Timestamp (microseconds),Accel X (g),Accel Y (g),Accel Z (g)
1539732865874786,-0.3911802853437094,0.5800259403372241,-0.7072251468680859
1539732865890782,-0.39349965667200726,0.5827115281910427,-0.7112535286488137
1539732865906779,-0.39642938887617296,0.5855191882200348,-0.7122301060502023
1539732865922775,-0.39813839932860295,0.5918669413290605,-0.7073472190432595
1539732865938772,-0.39899290455481795,0.5939421683070112,-0.7062485694666973
1539732865954768,-0.39691767757686724,0.594552529182879,-0.7039291981383995
1539732865970765,-0.3941100175478751,0.5927214465552755,-0.7095445181963838
1539732865986761,-0.3942320897230487,0.5891813534752419,-0.7107652399481195
1539732866002758,-0.3932555123216601,0.5874723430228119,-0.7082017242694745
1539732866018754,-0.39362172884718083,0.5856412603952084,-0.7077134355687802
1539732866034751,-0.392156862745098,0.5792935072861827,-0.7058823529411766
1539732866050747,-0.38764019226367585,0.5790493629358355,-0.7063706416418709
1539732866066743,-0.3858091096360723,0.5769741359578848,-0.7007553215838866
1539732866082740,-0.3891050583657587,0.5748989089799341,-0.6990463111314567
1539732866098736,-0.3891050583657587,0.575509269855802,-0.7005111772335395
1539732866114733,-0.3845883878843366,0.5792935072861827,-0.6988021667811095
1539732866130729,-0.3782406347753109,0.5827115281910427,-0.6979476615548945
1539732866146726,-0.3787289234760052,0.5896696421759362,-0.6999008163576717
1539732866162722,-0.38519874876020443,0.5902800030518041,-0.7007553215838866
1539732866178719,-0.3925230792706187,0.5901579308766305,-0.7060044251163502
1539732866194702,-0.3978942549782558,0.5886930647745476,-0.7088120851453423
1539732866210698,-0.4013122758831158,0.5863736934462498,-0.7099107347219045
1539732866226695,-0.40399786373693436,0.5869840543221176,-0.7118638895246816
1539732866242691,-0.4054627298390172,0.5852750438696877,-0.7127183947508966
1539732866258688,-0.40521858548867007,0.5840543221179519,-0.7052719920653088
1539732866274684,-0.40485236896314936,0.5846646829938198,-0.6983138780804152
1539732866290681,-0.3997253376058594,0.5850308995193405,-0.693553063248646
1539732866306677,-0.3971618219272144,0.5836881055924312,-0.6955062180514231
1539732866322673,-0.3970397497520408,0.5841763942931255,-0.6968490119783324
1539732866338670,-0.40070191500724794,0.5829556725413898,-0.696116578927291
1539732866354666,-0.4058289463645379,0.5812466620889598,-0.6979476615548945
1539732866370663,-0.4035095750362401,0.5838101777676048,-0.7003891050583659
1539732866386659,-0.4008239871824215,0.5853971160448612,-0.7031967650873581
1539732866402656,-0.39813839932860295,0.5871061264972912,-0.707469291218433
1539732866418652,-0.40106813153276866,0.5866178377965969,-0.7028305485618374
1539732866434649,-0.40521858548867007,0.5860074769207291,-0.7041733424887466
1539732866450645,-0.4009460593575951,0.5862516212710762,-0.7064927138170445
1539732866466642,-0.3933775844968337,0.5867399099717705,-0.7050278477149616
1539732866482638,-0.3854428931105516,0.5883268482490269,-0.7008773937590602
1539732866498634,-0.38641947051194014,0.5850308995193405,-0.6989242389562831
1539732866514618,-0.3908140688181887,0.5842984664682991,-0.6979476615548945
1539732866530614,-0.39191271839475084,0.5856412603952084,-0.6933089188982988
1539732866546610,-0.39276722362096583,0.5846646829938198,-0.6942854962996874
1539732866562607,-0.3932555123216601,0.5845426108186462,-0.6975814450293738
1539732866578603,-0.3941100175478751,0.5862516212710762,-0.7001449607080188
1539732866594600,-0.3945983062485694,0.5845426108186462,-0.7049057755397881
1539732866610596,-0.39264515144579226,0.5874723430228119,-0.7047837033646145
1539732866626593,-0.3892271305409323,0.5880827038986798,-0.7033188372625316
1539732866642589,-0.3882505531395437,0.5897917143511098,-0.7030746929121845
1539732866658586,-0.387029831387808,0.5884489204242005,-0.7055161364156559
1539732866674582,-0.38849469748989085,0.5884489204242005,-0.7068589303425652
1539732866690579,-0.39398794537270154,0.5872281986724648,-0.7052719920653088
1539732866706575,-0.3980163271534294,0.5856412603952084,-0.7036850537880524
1539732866722571,-0.39691767757686724,0.5858854047455555,-0.7038071259632259
1539732866738568,-0.3950865949492637,0.5884489204242005,-0.7017318989852752
1539732866754564,-0.39935912108033866,0.5864957656214234,-0.6963607232776381
1539732866770561,-0.40521858548867007,0.5847867551689934,-0.6959945067521174
1539732866786557,-0.4049744411383229,0.5836881055924312,-0.6994125276569774
1539732866802554,-0.4038757915617608,0.5842984664682991,-0.6986800946059359
1539732866818550,-0.40448615243762864,0.5847867551689934,-0.6963607232776381
1539732866834503,-0.40363164721141365,0.5846646829938198,-0.6972152285038531
1539732866850499,-0.4038757915617608,0.5852750438696877,-0.6946517128252081
1539732866866495,-0.4076600289921415,0.5853971160448612,-0.697825589379721
1539732866882491,-0.40863660639353006,0.5855191882200348,-0.6972152285038531
1539732866898487,-0.4087586785687036,0.5871061264972912,-0.6990463111314567
1539732866914483,-0.4035095750362401,0.5879606317235062,-0.7005111772335395
1539732866930479,-0.3978942549782558,0.5891813534752419,-0.7028305485618374
1539732866946475,-0.3937438010223544,0.5885709925993741,-0.7023422598611431
1539732866962471,-0.3942320897230487,0.5856412603952084,-0.7000228885328452
1539732866978467,-0.3942320897230487,0.5866178377965969,-0.6990463111314567
1539732866994463,-0.3954528114747844,0.5844205386434727,-0.6933089188982988
1539732867010459,-0.39264515144579226,0.5792935072861827,-0.6914778362706953
1539732867026455,-0.3982604715037765,0.5775844968337527,-0.6957503624017702
1539732867042451,-0.3958190280003051,0.5808804455634391,-0.6925764858472574
1539732867058447,-0.3963073167009994,0.5841763942931255,-0.6940413519493402
1539732867074442,-0.39862668802929724,0.5841763942931255,-0.6997787441824981
1539732867090438,-0.3963073167009994,0.5874723430228119,-0.7014877546349281
1539732867106434,-0.3963073167009994,0.5921110856794076,-0.7038071259632259
1539732867122430,-0.3997253376058594,0.5982146944380862,-0.7064927138170445
1539732867138426,-0.3997253376058594,0.6004119935912104,-0.707469291218433
1539732867154205,-0.39948119325551223,0.6017547875181197,-0.7106431677729459
1539732867170200,-0.3987487602044708,0.5998016327153426,-0.7149156939040209
1539732867186196,-0.40021362630655366,0.5958953231097883,-0.7088120851453423
1539732867202191,-0.4000915541313801,0.5912565804531926,-0.7012436102845809
1539732867218187,-0.40143434805828937,0.5840543221179519,-0.6907454032196538
1539732867234182,-0.4021667811093308,0.5774624246585791,-0.6883039597161824
1539732867250178,-0.3987487602044708,0.5728236820019834,-0.6843976501106277
1539732867266173,-0.3925230792706187,0.5728236820019834,-0.6803692683298999
1539732867282169,-0.38690775921263443,0.5762417029068434,-0.6872053101396198
1539732867298164,-0.3839780270084687,0.5821011673151748,-0.6922102693217367
1539732867314160,-0.3854428931105516,0.5889372091248948,-0.6983138780804152
1539732867330155,-0.3900816357671473,0.5915007248035398,-0.7068589303425652
1539732867346151,-0.3925230792706187,0.597116044861524,-0.713450827801938
1539732867362146,-0.3944762340733958,0.6017547875181197,-0.717723353933013
1539732867378142,-0.39728389410238796,0.5989471274891276,-0.7197985809109637
1539732867394137,-0.3980163271534294,0.5949187457083998,-0.7119859616998552
1539732867410133,-0.3991149767299915,0.5912565804531926,-0.7007553215838866
1539732867426128,-0.40033569848172723,0.5851529716945141,-0.6907454032196538
1539732867442124,-0.40277714198519865,0.5824673838406955,-0.6825665674830241
1539732867458119,-0.4043640802624551,0.5801480125123977,-0.6815899900816356
1539732867473968,-0.4043640802624551,0.5786831464103148,-0.6820782787823298
1539732867489963,-0.4042420080872815,0.5808804455634391,-0.6845197222858013
1539732867505957,-0.40070191500724794,0.5838101777676048,-0.6915999084458688
1539732867521952,-0.4005798428320744,0.5871061264972912,-0.6962386511024645
1539732867537946,-0.3996032654306858,0.5867399099717705,-0.7002670328831924
1539732867553941,-0.3967956054016937,0.5890592813000683,-0.7023422598611431
1539732867569935,-0.3978942549782558,0.5896696421759362,-0.7007553215838866
1539732867585930,-0.3987487602044708,0.5880827038986798,-0.7007553215838866
1539732867601925,-0.3983825436789501,0.5877164873731591,-0.6997787441824981
1539732867617919,-0.40033569848172723,0.5875944151979855,-0.6985580224307624
1539732867633914,-0.40399786373693436,0.5866178377965969,-0.7007553215838866
1539732867649908,-0.4102235446707865,0.5858854047455555,-0.6947737850003817
1539732867665903,-0.41412985427634075,0.5855191882200348,-0.6895246814679181
1539732867681897,-0.41571679255359717,0.5862516212710762,-0.6886701762417031
1539732867697892,-0.41083390554665433,0.5849088273441669,-0.6889143205920503
1539732867713886,-0.4068055237659265,0.5884489204242005,-0.6933089188982988
1539732867729881,-0.4076600289921415,0.5923552300297548,-0.6962386511024645
1539732867745875,-0.4050965133134965,0.5960173952849619,-0.7027084763866638
1539732867761870,-0.4013122758831158,0.5985809109636069,-0.7124742504005495
1539732867777865,-0.3949645227740901,0.6006561379415576,-0.7218738078889144
1539732867793701,-0.388738841840238,0.603097581445029,-0.7229724574654766
1539732867809695,-0.3789730678263523,0.6023651483939876,-0.7176012817578394
1539732867825689,-0.37384603646906234,0.6007782101167312,-0.7094224460212102
1539732867841683,-0.37714198519874875,0.5966277561608297,-0.7006332494087131
1539732867857677,-0.38092622262912945,0.591134508278019,-0.6939192797741667
1539732867873671,-0.38129243915465016,0.5877164873731591,-0.689280537117571
1539732867889665,-0.3816586556801709,0.5838101777676048,-0.6878156710154881
1539732867905659,-0.3837338826581216,0.5807583733882655,-0.6886701762417031
1539732867921653,-0.39020370794232084,0.5801480125123977,-0.6890363927672238
1539732867937647,-0.3941100175478751,0.5807583733882655,-0.6917219806210424
1539732867953642,-0.39899290455481795,0.5847867551689934,-0.6913557640955217
1539732867969636,-0.4035095750362401,0.5878385595483326,-0.696971084153506
1539732867985630,-0.4063172350652322,0.5899137865262833,-0.6996566720073245
1539732868001624,-0.40485236896314936,0.5933318074311433,-0.6997787441824981
1539732868017618,-0.3983825436789501,0.5934538796063169,-0.7003891050583659
1539732868033612,-0.39569695582513154,0.5927214465552755,-0.6941634241245138
1539732868049606,-0.39472037842374297,0.5880827038986798,-0.6891584649423974
1539732868065600,-0.39569695582513154,0.5802700846875712,-0.6881818875410088
1539732868081594,-0.39569695582513154,0.5769741359578848,-0.6908674753948274
1539732868097588,-0.3933775844968337,0.5779507133592734,-0.693553063248646
1539732868113433,-0.39728389410238796,0.5829556725413898,-0.6920881971465631
1539732868129427,-0.3991149767299915,0.5875944151979855,-0.6955062180514231
1539732868145421,-0.40143434805828937,0.5925993743801019,-0.7008773937590602
1539732868161414,-0.4020447089341572,0.6010223544670783,-0.7086900129701688
1539732868177408,-0.4018005645838101,0.6062714579995419,-0.7171129930571452
1539732868193401,-0.39765011062790867,0.6100556954299226,-0.722850385290303
1539732868209395,-0.3944762340733958,0.6118867780575261,-0.7191882200350959
1539732868225389,-0.3856870374608987,0.6083466849774926,-0.7193102922102694
1539732868241382,-0.3811703669794766,0.6067597467002361,-0.7193102922102694
1539732868257376,-0.38519874876020443,0.6011444266422519,-0.7077134355687802
1539732868273369,-0.37555504692149233,0.5966277561608297,-0.7029526207370109
1539732868289363,-0.37213702601663234,0.5875944151979855,-0.7016098268101016
1539732868305357,-0.3772640573739223,0.5769741359578848,-0.6962386511024645
1539732868321350,-0.3828793774319066,0.5734340428778513,-0.6825665674830241
1539732868337344,-0.3900816357671473,0.5673304341191727,-0.6768291752498663
1539732868353337,-0.39765011062790867,0.5646448462653542,-0.6745098039215685
1539732868369331,-0.40192263675898365,0.570382238498512,-0.6670634012359806
1539732868385325,-0.4005798428320744,0.5756313420309755,-0.6676737621118485
1539732868401318,-0.40277714198519865,0.5831998168917369,-0.6787823300526434
1539732868417312,-0.3997253376058594,0.5891813534752419,-0.6934309910734724
1539732868433136,-0.4016784924086365,0.5913786526283662,-0.7041733424887466
1539732868449128,-0.40411993591210793,0.5929655909056226,-0.7080796520943009
1539732868465121,-0.4004577706569008,0.5976043335622183,-0.7124742504005495
1539732868481114,-0.39606317235065225,0.5976043335622183,-0.7122301060502023
1539732868497106,-0.3906919966430151,0.5957732509346148,-0.709178301670863
1539732868513099,-0.3854428931105516,0.5961394674601355,-0.7030746929121845
1539732868529091,-0.38336766613260087,0.5943083848325319,-0.6986800946059359
1539732868545084,-0.3848325322346837,0.5944304570077055,-0.6977035172045474
1539732868561077,-0.38727397573815514,0.596261539635309,-0.6977035172045474
1539732868577069,-0.38898298619058513,0.5980926222629126,-0.7112535286488137
1539732868593062,-0.38812848096437014,0.6041962310215911,-0.7152819104295416
1539732868609055,-0.3900816357671473,0.6088349736781868,-0.7165026321812773
1539732868625047,-0.39313344014648655,0.6118867780575261,-0.7162584878309302
1539732868641040,-0.39179064621957727,0.6100556954299226,-0.7217517357137408
1539732868657033,-0.3915465018692301,0.6055390249485004,-0.7173571374074923
1539732868673025,-0.38422217135881587,0.6017547875181197,-0.710887312123293
1539732868689018,-0.381048294804303,0.5966277561608297,-0.6984359502555888
1539732868705011,-0.37933928435187303,0.5853971160448612,-0.6946517128252081
1539732868721003,-0.3760433356221866,0.5781948577096205,-0.6940413519493402
1539732868736996,-0.38141451132982374,0.5724574654764627,-0.6809796292057677
1539732868752838,-0.38678568703746086,0.568673228046082,-0.6721904325932706
1539732868768830,-0.3875181200885023,0.570382238498512,-0.6699931334401463
1539732868784822,-0.3845883878843366,0.5701380941481649,-0.6765850308995192
1539732868800814,-0.38507667658503086,0.5757534142061491,-0.6820782787823298
1539732868816806,-0.39105821316853584,0.5813687342641334,-0.6867170214389255
1539732868832799,-0.3982604715037765,0.5857633325703819,-0.6951400015259024
1539732868848791,-0.3967956054016937,0.592843518730449,-0.7003891050583659
1539732868864783,-0.39642938887617296,0.6002899214160369,-0.7093003738460366
1539732868880775,-0.3954528114747844,0.604806591897459,-0.7135728999771116
1539732868896767,-0.3933775844968337,0.6062714579995419,-0.7189440756847487
1539732868912759,-0.39349965667200726,0.6093232623788811,-0.7196765087357901
1539732868928752,-0.39386587319752797,0.6085908293278397,-0.716868848706798
1539732868944744,-0.39105821316853584,0.6102998397802697,-0.7136949721522852
1539732868960736,-0.3875181200885023,0.6051728084229797,-0.7128404669260702
1539732868976728,-0.3899595635919737,0.5984588387884333,-0.7063706416418709
1539732868992720,-0.38934920271610585,0.5939421683070112,-0.6972152285038531
1539732869008712,-0.38764019226367585,0.5862516212710762,-0.6923323414969103
1539732869024705,-0.38519874876020443,0.582345311665522,-0.6891584649423974
1539732869040697,-0.3877622644388494,0.5802700846875712,-0.6852521553368427
1539732869056689,-0.391302357518883,0.5784390020599677,-0.6829327840085448
1539732869072601,-0.3920347905699244,0.5811245899137862,-0.6828107118333713
1539732869088593,-0.393011367971313,0.5868619821469441,-0.682322423132677
1539732869104584,-0.391302357518883,0.5874723430228119,-0.6897688258182653
1539732869120576,-0.38898298619058513,0.5896696421759362,-0.6997787441824981
1539732869136568,-0.39142442969405655,0.5897917143511098,-0.7031967650873581
1539732869152559,-0.39484245059891654,0.591134508278019,-0.7046616311894409
1539732869168551,-0.40192263675898365,0.591989013504234,-0.7013656824597545
1539732869184543,-0.40704966811627363,0.591134508278019,-0.6968490119783324
1539732869200534,-0.4087586785687036,0.5938200961318376,-0.6917219806210424
1539732869216526,-0.40619516289005864,0.5940642404821848,-0.696971084153506
1539732869232518,-0.40228885328450437,0.5974822613870447,-0.7007553215838866
1539732869248510,-0.4008239871824215,0.5950408178835733,-0.707469291218433
1539732869264501,-0.3949645227740901,0.5978484779125655,-0.709178301670863
1539732869280493,-0.39093614099336227,0.6019989318684669,-0.7089341573205159
1539732869296485,-0.38641947051194014,0.6007782101167312,-0.708323796444648
1539732869312476,-0.38471046005951015,0.6041962310215911,-0.7097886625467309
1539732869328468,-0.392156862745098,0.6011444266422519,-0.710032806897078
1539732869344460,-0.3906919966430151,0.5967498283360033,-0.7050278477149616
1539732869360451,-0.3854428931105516,0.593698023956664,-0.6981918059052417
1539732869376443,-0.3799496452277409,0.5871061264972912,-0.6946517128252081
1539732869392334,-0.3768978408484016,0.5788052185854884,-0.6883039597161824
1539732869408325,-0.3787289234760052,0.5803921568627448,-0.6747539482719156
1539732869424317,-0.38348973830777444,0.5788052185854884,-0.6714579995422292
1539732869440309,-0.40827038986800934,0.5757534142061491,-0.6709697108415349
1539732869456300,-0.428290226596475,0.5777065690089263,-0.6735332265201799
1539732869472292,-0.41950102998397787,0.5855191882200348,-0.6808575570305941
1539732869488284,-0.39899290455481795,0.5907682917524983,-0.7016098268101016
1539732869504275,-0.3883726253147173,0.593698023956664,-0.7110093842984666
1539732869520267,-0.39227893492027155,0.5943083848325319,-0.7057602807660031
1539732869536259,-0.3961852445258258,0.5977264057373919,-0.7020981155107959
1539732869552250,-0.40021362630655366,0.5974822613870447,-0.6989242389562831
1539732869568242,-0.39948119325551223,0.5994354161898219,-0.6997787441824981
1539732869584234,-0.3978942549782558,0.5999237048905162,-0.7017318989852752
1539732869600226,-0.3925230792706187,0.6007782101167312,-0.7041733424887466
1539732869616217,-0.3906919966430151,0.599679560540169,-0.7008773937590602
1539732869632209,-0.38934920271610585,0.595407034409094,-0.7053940642404823
1539732869648201,-0.388738841840238,0.5894254978255891,-0.6988021667811095
1539732869664192,-0.38715190356298157,0.5872281986724648,-0.6915999084458688
1539732869680184,-0.38886091401541156,0.5868619821469441,-0.6864728770885784
1539732869696176,-0.39179064621957727,0.5894254978255891,-0.6878156710154881
1539732869712036,-0.39191271839475084,0.5912565804531926,-0.693553063248646
1539732869728027,-0.3975280384527351,0.5905241474021512,-0.7022201876859695
1539732869744018,-0.3971618219272144,0.5985809109636069,-0.7071030746929123
1539732869760009,-0.39398794537270154,0.6074921797512776,-0.7084458686198216
1539732869776001,-0.3920347905699244,0.6093232623788811,-0.7088120851453423
1539732869791992,-0.3906919966430151,0.607370107576104,-0.712596322575723
1539732869807983,-0.3941100175478751,0.6051728084229797,-0.7102769512474252
1539732869823974,-0.39777218280308224,0.5999237048905162,-0.7035629816128788
1539732869839965,-0.3961852445258258,0.5943083848325319,-0.6941634241245138
1539732869855957,-0.3961852445258258,0.5862516212710762,-0.688426031891356
1539732869871948,-0.39948119325551223,0.5816128786144805,-0.6809796292057677
1539732869887939,-0.4042420080872815,0.5770962081330584,-0.6803692683298999
1539732869903930,-0.4037537193865872,0.5734340428778513,-0.6778057526512549
1539732869919922,-0.4028992141603722,0.576363775082017,-0.6762188143739984
1539732869935913,-0.4004577706569008,0.5807583733882655,-0.677195391775387
1539732869951904,-0.39984740978103295,0.5857633325703819,-0.686594949263752
1539732869967895,-0.4009460593575951,0.5899137865262833,-0.6920881971465631
1539732869983886,-0.40192263675898365,0.5958953231097883,-0.7008773937590602
1539732869999878,-0.3982604715037765,0.6009002822919047,-0.7055161364156559
1539732870015869,-0.39655146105134653,0.6027313649195083,-0.708323796444648
1539732870031768,-0.39777218280308224,0.6027313649195083,-0.7105210955977723
1539732870047759,-0.40241092545967794,0.6024872205691612,-0.7077134355687802
1539732870063750,-0.4035095750362401,0.600534065766384,-0.7039291981383995
1539732870079741,-0.3996032654306858,0.5978484779125655,-0.7012436102845809
1539732870095731,-0.3966735332265201,0.5960173952849619,-0.696971084153506
1539732870111722,-0.39435416189822226,0.5922331578545812,-0.6946517128252081
1539732870127713,-0.3920347905699244,0.5890592813000683,-0.6946517128252081
1539732870143704,-0.3894712748912794,0.5888151369497212,-0.6924544136720838
1539732870159694,-0.38678568703746086,0.5890592813000683,-0.6958724345769438
1539732870175685,-0.3849546044098573,0.5907682917524983,-0.6948958571755552
1539732870191676,-0.384466315709163,0.5913786526283662,-0.6951400015259024
1539732870207666,-0.385320820935378,0.5921110856794076,-0.6923323414969103
1539732870223657,-0.38507667658503086,0.5916227969787133,-0.6986800946059359
1539732870239648,-0.389593347066453,0.591989013504234,-0.6979476615548945
1539732870255639,-0.3920347905699244,0.5912565804531926,-0.6981918059052417
1539732870271629,-0.3916685740444037,0.5918669413290605,-0.6941634241245138
1539732870287620,-0.39386587319752797,0.5921110856794076,-0.6930647745479517
1539732870303611,-0.39899290455481795,0.5897917143511098,-0.6939192797741667
1539732870319602,-0.4043640802624551,0.5885709925993741,-0.6929427023727781
1539732870335592,-0.4043640802624551,0.5890592813000683,-0.6925764858472574
1539732870351501,-0.4049744411383229,0.5912565804531926,-0.6889143205920503
1539732870367491,-0.40326543068589293,0.5921110856794076,-0.6930647745479517
1539732870383482,-0.40448615243762864,0.5927214465552755,-0.6942854962996874
1539732870399472,-0.40570687418936435,0.5951628900587469,-0.696971084153506
1539732870415462,-0.40448615243762864,0.5989471274891276,-0.6989242389562831
1539732870431452,-0.3999694819562065,0.5989471274891276,-0.7064927138170445
1539732870447443,-0.389593347066453,0.6016327153429462,-0.7118638895246816
1539732870463433,-0.38886091401541156,0.6023651483939876,-0.7042954146639202
1539732870479423,-0.3906919966430151,0.600534065766384,-0.7031967650873581
1539732870495413,-0.39313344014648655,0.5961394674601355,-0.7024643320363166
1539732870511404,-0.39520866712443725,0.5929655909056226,-0.6950179293507288
1539732870527394,-0.39765011062790867,0.5895475700007626,-0.6885481040665296
1539732870543384,-0.4004577706569008,0.5855191882200348,-0.6846417944609748
1539732870559374,-0.3932555123216601,0.5869840543221176,-0.6842755779354541
1539732870575365,-0.39472037842374297,0.5830777447165634,-0.683176928358892
1539732870591355,-0.3945983062485694,0.5807583733882655,-0.6894026092927446
1539732870607345,-0.3915465018692301,0.5821011673151748,-0.694407568474861
1539732870623335,-0.38690775921263443,0.5873502708476384,-0.6973373006790267
1539732870639326,-0.38678568703746086,0.5905241474021512,-0.6941634241245138
1539732870655316,-0.389593347066453,0.5915007248035398,-0.6991683833066302
1539732870671203,-0.3894712748912794,0.5966277561608297,-0.6991683833066302
1539732870687193,-0.39349965667200726,0.5983367666132597,-0.7051499198901352
1539732870703183,-0.39484245059891654,0.5999237048905162,-0.7035629816128788
1539732870719173,-0.39728389410238796,0.5974822613870447,-0.7029526207370109
1539732870735162,-0.4020447089341572,0.5946746013580526,-0.7034409094377052
1539732870751152,-0.40607309071488507,0.5917448691538869,-0.7035629816128788
1539732870767142,-0.40192263675898365,0.5904020752269776,-0.7022201876859695
1539732870783132,-0.3967956054016937,0.5883268482490269,-0.6941634241245138
1539732870799121,-0.38727397573815514,0.5900358587014569,-0.6966048676279852
1539732870815111,-0.3837338826581216,0.5917448691538869,-0.6958724345769438
1539732870831101,-0.38056000610360874,0.5901579308766305,-0.6972152285038531
1539732870847091,-0.37836270695048446,0.5896696421759362,-0.6980697337300681
1539732870863081,-0.37286945906767377,0.5891813534752419,-0.6983138780804152
1539732870879070,-0.3720149538414588,0.5929655909056226,-0.6924544136720838
1539732870895060,-0.3777523460746166,0.5906462195773248,-0.6908674753948274
1539732870911050,-0.3894712748912794,0.5862516212710762,-0.6925764858472574
1539732870927040,-0.39093614099336227,0.5890592813000683,-0.6940413519493402
1539732870943030,-0.3915465018692301,0.5916227969787133,-0.6997787441824981
1539732870959019,-0.39740596627756153,0.5940642404821848,-0.7041733424887466
1539732870975009,-0.40363164721141365,0.5974822613870447,-0.7014877546349281
1539732870990936,-0.4059510185397115,0.6006561379415576,-0.7047837033646145
1539732871006926,-0.4058289463645379,0.6002899214160369,-0.7030746929121845
1539732871022915,-0.3992370489051651,0.5994354161898219,-0.7082017242694745
1539732871038905,-0.39899290455481795,0.5999237048905162,-0.7064927138170445
1539732871054895,-0.3966735332265201,0.5961394674601355,-0.7028305485618374
1539732871070885,-0.39435416189822226,0.5924773022049283,-0.6996566720073245
1539732871086875,-0.39313344014648655,0.5905241474021512,-0.6964827954528117
1539732871102864,-0.38971541924162656,0.5869840543221176,-0.6948958571755552
1539732871118854,-0.39142442969405655,0.5867399099717705,-0.6915999084458688
1539732871134844,-0.39105821316853584,0.5858854047455555,-0.690135042343786
1539732871150834,-0.39386587319752797,0.5841763942931255,-0.6928206301976045
1539732871166823,-0.3971618219272144,0.5866178377965969,-0.6923323414969103
1539732871182813,-0.3988708323796444,0.5894254978255891,-0.6942854962996874
1539732871198803,-0.3971618219272144,0.5893034256504155,-0.6973373006790267
1539732871214793,-0.3961852445258258,0.5889372091248948,-0.6980697337300681
1539732871230783,-0.3937438010223544,0.5924773022049283,-0.6990463111314567
1539732871246772,-0.39520866712443725,0.5922331578545812,-0.6962386511024645
1539732871262762,-0.3983825436789501,0.5922331578545812,-0.6989242389562831
1539732871278752,-0.3975280384527351,0.5916227969787133,-0.6986800946059359
1539732871294742,-0.39349965667200726,0.5929655909056226,-0.695262073701076
1539732871310638,-0.390447852292668,0.591134508278019,-0.6956282902265967
1539732871326627,-0.38507667658503086,0.5895475700007626,-0.7016098268101016
1539732871342617,-0.38129243915465016,0.5902800030518041,-0.7041733424887466
1539732871358606,-0.380193789578088,0.5921110856794076,-0.6980697337300681
1539732871374595,-0.3799496452277409,0.5922331578545812,-0.696971084153506
1539732871390585,-0.38312352178225373,0.5927214465552755,-0.6994125276569774
1539732871406574,-0.385320820935378,0.591989013504234,-0.7018539711604488
1539732871422563,-0.38898298619058513,0.5923552300297548,-0.7022201876859695
1539732871438552,-0.3928892957961394,0.5956511787594412,-0.7016098268101016
1539732871454542,-0.39520866712443725,0.5961394674601355,-0.7079575799191273
1539732871470531,-0.3987487602044708,0.5968719005111769,-0.7064927138170445
1539732871486520,-0.40448615243762864,0.5973601892118712,-0.7036850537880524
1539732871502510,-0.4066834515907529,0.5972381170366976,-0.7033188372625316
1539732871518499,-0.40399786373693436,0.5958953231097883,-0.7002670328831924
1539732871534488,-0.4042420080872815,0.5935759517814905,-0.6972152285038531
1539732871550478,-0.4035095750362401,0.5904020752269776,-0.6942854962996874
1539732871566467,-0.40143434805828937,0.5882047760738534,-0.6920881971465631
1539732871582456,-0.39569695582513154,0.5851529716945141,-0.6924544136720838
1539732871598446,-0.39020370794232084,0.5862516212710762,-0.6923323414969103
1539732871614435,-0.38641947051194014,0.5874723430228119,-0.692698558022431
1539732871630371,-0.38263523308155944,0.5891813534752419,-0.6958724345769438
1539732871646360,-0.3770199130235752,0.5934538796063169,-0.7018539711604488
1539732871662348,-0.3732356755931945,0.5967498283360033,-0.7060044251163502
1539732871678337,-0.3739681086442359,0.5993133440146483,-0.709178301670863
1539732871694326,-0.3770199130235752,0.6007782101167312,-0.708323796444648
1539732871710315,-0.381048294804303,0.5974822613870447,-0.7116197451743345
1539732871726304,-0.3865415426871137,0.595407034409094,-0.7099107347219045
1539732871742293,-0.39020370794232084,0.5912565804531926,-0.7053940642404823
1539732871758281,-0.39606317235065225,0.5866178377965969,-0.6967269398031588
1539732871774270,-0.4025329976348515,0.5802700846875712,-0.684885938811322
1539732871790259,-0.40021362630655366,0.5767299916075377,-0.6807354848554206
1539732871806248,-0.39850461585412367,0.5758754863813227,-0.6774395361257342
1539732871822237,-0.3996032654306858,0.5762417029068434,-0.6784161135271227
1539732871838225,-0.40448615243762864,0.5752651255054548,-0.676340886549172
1539732871854214,-0.40900282291905077,0.5796597238117034,-0.6800030518043791
1539732871870203,-0.4042420080872815,0.5835660334172577,-0.6913557640955217
1539732871886192,-0.39935912108033866,0.5915007248035398,-0.6988021667811095
1539732871902181,-0.3978942549782558,0.5966277561608297,-0.7029526207370109
1539732871918170,-0.39862668802929724,0.598825055313954,-0.7116197451743345
1539732871934158,-0.3961852445258258,0.598825055313954,-0.718577859159228
1539732871950134,-0.3928892957961394,0.6035858701457233,-0.7147936217288473
1539732871966123,-0.39484245059891654,0.6074921797512776,-0.7130846112764173
1539732871982112,-0.3942320897230487,0.6038300144960704,-0.711741817349508
1539732871998100,-0.3858091096360723,0.6045624475471119,-0.7133287556267645
1539732872014089,-0.37921721217669946,0.6040741588464176,-0.7113756008239873
1539732872030078,-0.3828793774319066,0.5993133440146483,-0.7061264972915238
1539732872046067,-0.38849469748989085,0.5921110856794076,-0.6997787441824981
1539732872062056,-0.38812848096437014,0.5862516212710762,-0.6898908979934388
1539732872078045,-0.3891050583657587,0.5800259403372241,-0.6813458457312884
1539732872094033,-0.3932555123216601,0.5747768368047605,-0.6795147631036849
1539732872110022,-0.40155642023346294,0.5718471046005948,-0.6795147631036849
1539732872126011,-0.4004577706569008,0.5727016098268098,-0.673777370870527
1539732872142000,-0.3999694819562065,0.578927290760662,-0.6804913405050734
1539732872157989,-0.4008239871824215,0.582345311665522,-0.6886701762417031
1539732872173977,-0.39606317235065225,0.5863736934462498,-0.6937972075989931
1539732872189966,-0.39642938887617296,0.5940642404821848,-0.7011215381094074
1539732872205955,-0.39179064621957727,0.5980926222629126,-0.710887312123293
1539732872221944,-0.3932555123216601,0.6051728084229797,-0.7152819104295416
1539732872237933,-0.3980163271534294,0.6076142519264511,-0.7152819104295416
1539732872253922,-0.40399786373693436,0.6095674067292283,-0.716868848706798
1539732872269836,-0.4066834515907529,0.6096894789044018,-0.7157701991302359
1539732872285824,-0.4035095750362401,0.6081025406271454,-0.7166247043564509
1539732872301813,-0.4005798428320744,0.6029755092698554,-0.7149156939040209
1539732872317801,-0.3932555123216601,0.5978484779125655,-0.7095445181963838
1539732872333789,-0.39362172884718083,0.5973601892118712,-0.7017318989852752
1539732872349778,-0.3933775844968337,0.5891813534752419,-0.6994125276569774
1539732872365766,-0.39227893492027155,0.5840543221179519,-0.6970931563286795
1539732872381755,-0.3891050583657587,0.5811245899137862,-0.6881818875410088
1539732872397743,-0.39398794537270154,0.576363775082017,-0.6825665674830241
1539732872413731,-0.40399786373693436,0.5731898985275041,-0.6751201647974363
1539732872429720,-0.4020447089341572,0.5745326924544134,-0.6726787212939649
1539732872445708,-0.3894712748912794,0.5757534142061491,-0.6807354848554206
1539732872461696,-0.3749446860456245,0.5801480125123977,-0.6905012588693067
1539732872477685,-0.3756771190966659,0.5846646829938198,-0.695262073701076
1539732872493673,-0.3837338826581216,0.5842984664682991,-0.7035629816128788
1539732872509661,-0.3928892957961394,0.5922331578545812,-0.7042954146639202
1539732872525650,-0.40033569848172723,0.5950408178835733,-0.707469291218433
1539732872541638,-0.40277714198519865,0.5973601892118712,-0.7105210955977723
1539732872557626,-0.40570687418936435,0.5998016327153426,-0.7110093842984666
1539732872573615,-0.4064393072404058,0.5983367666132597,-0.7112535286488137
1539732872589538,-0.40070191500724794,0.5955291065842676,-0.7077134355687802
1539732872605527,-0.3978942549782558,0.591989013504234,-0.7033188372625316
1539732872621515,-0.39386587319752797,0.5886930647745476,-0.7014877546349281
1539732872637503,-0.38934920271610585,0.5874723430228119,-0.6931868467231252
1539732872653492,-0.3848325322346837,0.5863736934462498,-0.6870832379644463
1539732872669480,-0.38507667658503086,0.582345311665522,-0.6863508049134048
1539732872685468,-0.39105821316853584,0.5807583733882655,-0.6889143205920503
1539732872701457,-0.39472037842374297,0.5802700846875712,-0.6885481040665296
1539732872717445,-0.39777218280308224,0.5828336003662162,-0.6956282902265967
1539732872733433,-0.39606317235065225,0.5857633325703819,-0.6995345998321509
1539732872749422,-0.39691767757686724,0.5890592813000683,-0.7006332494087131
1539732872765410,-0.39691767757686724,0.5933318074311433,-0.7045395590142673
1539732872781398,-0.39606317235065225,0.5978484779125655,-0.7067368581673916
1539732872797387,-0.3953307392996108,0.5994354161898219,-0.7085679407949952
1539732872813375,-0.3980163271534294,0.5969939726863505,-0.7129625391012437
1539732872829363,-0.39948119325551223,0.5957732509346148,-0.7090562294956895
1539732872845352,-0.39691767757686724,0.5972381170366976,-0.7044174868390938
1539732872861340,-0.3950865949492637,0.591989013504234,-0.7034409094377052
1539732872877328,-0.39276722362096583,0.5896696421759362,-0.7027084763866638
1539732872893317,-0.3915465018692301,0.5877164873731591,-0.6962386511024645
1539732872909271,-0.3866636148622873,0.5845426108186462,-0.6914778362706953
1539732872925259,-0.38226901655603873,0.5796597238117034,-0.6903791866941331
1539732872941248,-0.3808041504539559,0.5808804455634391,-0.6883039597161824
1539732872957236,-0.3811703669794766,0.5803921568627448,-0.6887922484168767
1539732872973224,-0.383611810482948,0.5813687342641334,-0.6933089188982988
1539732872989213,-0.387029831387808,0.5825894560158691,-0.6991683833066302
1539732873005201,-0.39179064621957727,0.5861295490959026,-0.6995345998321509
1539732873021189,-0.3991149767299915,0.5894254978255891,-0.7006332494087131
1539732873037178,-0.40607309071488507,0.5923552300297548,-0.7072251468680859
1539732873053166,-0.4088807507438772,0.5944304570077055,-0.7071030746929123
1539732873069154,-0.4083924620431829,0.5951628900587469,-0.7077134355687802
1539732873085143,-0.40704966811627363,0.5963836118104826,-0.7069810025177388
1539732873101131,-0.4018005645838101,0.5961394674601355,-0.7071030746929123
1539732873117119,-0.39569695582513154,0.5935759517814905,-0.706614785992218
1539732873133108,-0.388738841840238,0.5918669413290605,-0.7033188372625316
1539732873149096,-0.38422217135881587,0.5879606317235062,-0.7008773937590602
1539732873165084,-0.37970550087739374,0.5889372091248948,-0.6956282902265967
1539732873181073,-0.37885099565117875,0.5872281986724648,-0.6956282902265967
1539732873197061,-0.37958342870222017,0.5847867551689934,-0.6962386511024645
1539732873213050,-0.38226901655603873,0.5858854047455555,-0.6970931563286795
1539732873228973,-0.38336766613260087,0.5846646829938198,-0.7006332494087131
1539732873244961,-0.3911802853437094,0.5849088273441669,-0.6985580224307624
1539732873260949,-0.39728389410238796,0.5853971160448612,-0.696116578927291
1539732873276937,-0.39740596627756153,0.5875944151979855,-0.6992904554818038
1539732873292925,-0.3987487602044708,0.5886930647745476,-0.7019760433356224
1539732873308912,-0.3925230792706187,0.5912565804531926,-0.7041733424887466
1539732873324900,-0.3866636148622873,0.5938200961318376,-0.7041733424887466
1539732873340888,-0.38214694438086516,0.5955291065842676,-0.7062485694666973
1539732873356876,-0.3825131609063859,0.5946746013580526,-0.7064927138170445
1539732873372864,-0.381902800030518,0.5949187457083998,-0.7057602807660031
1539732873388852,-0.38715190356298157,0.597116044861524,-0.7036850537880524
1539732873404840,-0.393011367971313,0.5950408178835733,-0.7008773937590602
1539732873420827,-0.3971618219272144,0.5933318074311433,-0.7046616311894409
1539732873436815,-0.3944762340733958,0.5917448691538869,-0.710032806897078
1539732873452803,-0.3942320897230487,0.5912565804531926,-0.7050278477149616
1539732873468791,-0.3967956054016937,0.5916227969787133,-0.7039291981383995
1539732873484779,-0.3988708323796444,0.5893034256504155,-0.7027084763866638
1539732873500767,-0.40033569848172723,0.5868619821469441,-0.6983138780804152
1539732873516755,-0.40070191500724794,0.5874723430228119,-0.6915999084458688
1539732873532743,-0.4008239871824215,0.5864957656214234,-0.690989547570001
1539732873548706,-0.39386587319752797,0.5872281986724648,-0.695262073701076
1539732873564694,-0.38593118181124586,0.5889372091248948,-0.6966048676279852
1539732873580681,-0.3841000991836423,0.5900358587014569,-0.6984359502555888
1539732873596669,-0.384466315709163,0.5895475700007626,-0.7016098268101016
1539732873612657,-0.3828793774319066,0.5910124361028455,-0.7045395590142673
1539732873628645,-0.3891050583657587,0.591134508278019,-0.7078355077439538
1539732873644633,-0.3933775844968337,0.5904020752269776,-0.7023422598611431
1539732873660621,-0.3983825436789501,0.5924773022049283,-0.7029526207370109
1539732873676609,-0.3958190280003051,0.5960173952849619,-0.7017318989852752
1539732873692597,-0.39691767757686724,0.5967498283360033,-0.7052719920653088
1539732873708584,-0.39777218280308224,0.5957732509346148,-0.7122301060502023
1539732873724572,-0.3958190280003051,0.5960173952849619,-0.7122301060502023
1539732873740560,-0.3906919966430151,0.6034637979705497,-0.7077134355687802
1539732873756548,-0.3961852445258258,0.5989471274891276,-0.712596322575723
1539732873772536,-0.4018005645838101,0.5764858472571905,-0.7135728999771116
1539732873788524,-0.3765316243228809,0.6009002822919047,-0.6931868467231252
1539732873804512,-0.3768978408484016,0.5960173952849619,-0.7056382085908295
1539732873820500,-0.3894712748912794,0.5767299916075377,-0.722850385290303
1539732873836487,-0.39349965667200726,0.5824673838406955,-0.6995345998321509
1539732873852475,-0.37628747997253376,0.5828336003662162,-0.690989547570001
1539732873868438,-0.3685969329365988,0.574654764629587,-0.6953841458762495
1539732873884426,-0.36835278858625164,0.5711146715495534,-0.6922102693217367
1539732873900414,-0.3701838712138552,0.5730678263523306,-0.684885938811322
1539732873916402,-0.3673762111848631,0.5734340428778513,-0.6846417944609748
1539732873932390,-0.36835278858625164,0.5758754863813227,-0.6894026092927446
1539732873948378,-0.37164873731593806,0.5791714351110091,-0.6990463111314567
1539732873964366,-0.3777523460746166,0.5844205386434727,-0.7028305485618374
1539732873980353,-0.38434424353398944,0.5879606317235062,-0.7073472190432595
1539732873996341,-0.3877622644388494,0.5930876630807962,-0.7127183947508966
1539732874012329,-0.3928892957961394,0.595407034409094,-0.7174792095826659
1539732874028317,-0.393011367971313,0.5974822613870447,-0.7208972304875259
1539732874044305,-0.3950865949492637,0.5994354161898219,-0.7179674982833602
1539732874060293,-0.3953307392996108,0.5978484779125655,-0.7173571374074923
1539732874076281,-0.39264515144579226,0.5939421683070112,-0.7130846112764173
1539732874092269,-0.3849546044098573,0.5923552300297548,-0.7089341573205159
1539732874108256,-0.3798275730525673,0.5875944151979855,-0.7046616311894409
1539732874124244,-0.37457846952010376,0.5844205386434727,-0.7022201876859695
1539732874140232,-0.3748226138704509,0.581490806439307,-0.6981918059052417
1539732874156220,-0.37372396429388877,0.5810025177386127,-0.6947737850003817
1539732874172208,-0.37628747997253376,0.5790493629358355,-0.6959945067521174
1539732874188140,-0.381048294804303,0.5792935072861827,-0.6994125276569774
1539732874204128,-0.37970550087739374,0.5839322499427784,-0.7024643320363166
1539732874220115,-0.3803158617532616,0.5862516212710762,-0.7068589303425652
1539732874236103,-0.38593118181124586,0.5891813534752419,-0.7096665903715573
1539732874252090,-0.38934920271610585,0.5913786526283662,-0.7080796520943009
1539732874268077,-0.3911802853437094,0.5930876630807962,-0.7113756008239873
1539732874284065,-0.38727397573815514,0.5949187457083998,-0.7132066834515909
1539732874300052,-0.38385595483329515,0.5930876630807962,-0.7133287556267645
1539732874316040,-0.38422217135881587,0.5935759517814905,-0.7094224460212102
1539732874332027,-0.3845883878843366,0.5906462195773248,-0.710032806897078
1539732874348014,-0.3866636148622873,0.5906462195773248,-0.7061264972915238
1539732874364002,-0.38727397573815514,0.5895475700007626,-0.7044174868390938
1539732874379989,-0.3858091096360723,0.5879606317235062,-0.7036850537880524
1539732874395977,-0.38422217135881587,0.5849088273441669,-0.7063706416418709
1539732874411964,-0.3825131609063859,0.5834439612420841,-0.7040512703135731
1539732874427951,-0.38300144960708016,0.5849088273441669,-0.7005111772335395
1539732874443939,-0.3811703669794766,0.5845426108186462,-0.7016098268101016
1539732874459926,-0.3808041504539559,0.5839322499427784,-0.7017318989852752
1539732874475914,-0.38348973830777444,0.5846646829938198,-0.7038071259632259
1539732874491901,-0.3865415426871137,0.5874723430228119,-0.7033188372625316
1539732874507873,-0.3882505531395437,0.5874723430228119,-0.7050278477149616
1539732874523861,-0.3875181200885023,0.5908903639276719,-0.7073472190432595
1539732874539848,-0.38800640878919657,0.591134508278019,-0.7103990234225988
1539732874555835,-0.38934920271610585,0.5934538796063169,-0.7110093842984666
1539732874571823,-0.38934920271610585,0.5917448691538869,-0.7118638895246816
1539732874587810,-0.3891050583657587,0.5904020752269776,-0.7063706416418709
1539732874603798,-0.3882505531395437,0.5883268482490269,-0.7073472190432595
1539732874619785,-0.384466315709163,0.5867399099717705,-0.7064927138170445
1539732874635772,-0.38336766613260087,0.5849088273441669,-0.7060044251163502
1539732874651760,-0.38141451132982374,0.5857633325703819,-0.7017318989852752
1539732874667747,-0.38043793392843517,0.5846646829938198,-0.7012436102845809
1539732874683735,-0.38007171740291446,0.5845426108186462,-0.7036850537880524
1539732874699722,-0.38056000610360874,0.5877164873731591,-0.7063706416418709
1539732874715709,-0.37921721217669946,0.5886930647745476,-0.7096665903715573
1539732874731697,-0.38043793392843517,0.5913786526283662,-0.7063706416418709
1539732874747684,-0.384466315709163,0.5910124361028455,-0.7079575799191273
1539732874763672,-0.38641947051194014,0.5884489204242005,-0.7096665903715573
1539732874779659,-0.3865415426871137,0.5913786526283662,-0.710032806897078
1539732874795646,-0.3862973983367666,0.5910124361028455,-0.7103990234225988
1539732874811634,-0.3856870374608987,0.5902800030518041,-0.7112535286488137
1539732874827606,-0.38641947051194014,0.5904020752269776,-0.7079575799191273
1539732874843593,-0.3877622644388494,0.5878385595483326,-0.7031967650873581
1539732874859581,-0.38715190356298157,0.5891813534752419,-0.7034409094377052
1539732874875568,-0.3866636148622873,0.5869840543221176,-0.7049057755397881
1539732874891555,-0.38593118181124586,0.5857633325703819,-0.7041733424887466
1539732874907543,-0.3848325322346837,0.5855191882200348,-0.7042954146639202
1539732874923530,-0.3823910887312123,0.5864957656214234,-0.7047837033646145
1539732874939518,-0.3841000991836423,0.5860074769207291,-0.7036850537880524
1539732874955505,-0.38226901655603873,0.5857633325703819,-0.7044174868390938
1539732874971492,-0.38336766613260087,0.5861295490959026,-0.7039291981383995
1539732874987480,-0.38690775921263443,0.5861295490959026,-0.7019760433356224
1539732875003467,-0.3882505531395437,0.5878385595483326,-0.7082017242694745
1539732875019455,-0.3873960479133287,0.5874723430228119,-0.7094224460212102
1539732875035442,-0.3849546044098573,0.5864957656214234,-0.706614785992218
1539732875051429,-0.3882505531395437,0.5879606317235062,-0.7072251468680859
1539732875067417,-0.38593118181124586,0.5882047760738534,-0.7055161364156559
1539732875083404,-0.38678568703746086,0.5872281986724648,-0.7064927138170445
1539732875099392,-0.38422217135881587,0.5863736934462498,-0.7062485694666973
1539732875115379,-0.3856870374608987,0.5858854047455555,-0.7068589303425652
1539732875131366,-0.38593118181124586,0.5852750438696877,-0.7058823529411766
1539732875147308,-0.38641947051194014,0.5852750438696877,-0.7034409094377052
1539732875163295,-0.3839780270084687,0.5860074769207291,-0.7024643320363166
1539732875179282,-0.38300144960708016,0.5840543221179519,-0.7047837033646145
1539732875195269,-0.3823910887312123,0.5860074769207291,-0.7064927138170445
1539732875211256,-0.38800640878919657,0.5841763942931255,-0.7077134355687802
1539732875227243,-0.38898298619058513,0.5852750438696877,-0.7047837033646145
1539732875243229,-0.38336766613260087,0.5871061264972912,-0.7036850537880524
1539732875259216,-0.3782406347753109,0.5888151369497212,-0.7121080338750287
1539732875275203,-0.3782406347753109,0.5880827038986798,-0.7132066834515909
1539732875291190,-0.37750820172426947,0.5885709925993741,-0.715159838254368
1539732875307177,-0.37299153124284734,0.5927214465552755,-0.7128404669260702
1539732875323164,-0.3710383764400702,0.5906462195773248,-0.7145494773785002
1539732875339151,-0.3761654077973602,0.5904020752269776,-0.7130846112764173
1539732875355138,-0.3825131609063859,0.5878385595483326,-0.7124742504005495
1539732875371125,-0.38764019226367585,0.5885709925993741,-0.7086900129701688
1539732875387112,-0.388738841840238,0.5873502708476384,-0.707469291218433
1539732875403099,-0.38422217135881587,0.5877164873731591,-0.7085679407949952
1539732875419086,-0.381048294804303,0.5871061264972912,-0.7085679407949952
1539732875435073,-0.3820248722056916,0.5850308995193405,-0.7084458686198216
1539732875451059,-0.38226901655603873,0.5842984664682991,-0.709178301670863
1539732875467041,-0.3782406347753109,0.5844205386434727,-0.7101548790722516
1539732875483028,-0.3761654077973602,0.5840543221179519,-0.7093003738460366
1539732875499014,-0.3749446860456245,0.5866178377965969,-0.7114976729991609
1539732875515001,-0.37958342870222017,0.5858854047455555,-0.7127183947508966
1539732875530988,-0.37628747997253376,0.5883268482490269,-0.7216296635385673
1539732875546975,-0.3764095521477073,0.5925993743801019,-0.721141374837873
1539732875562962,-0.3789730678263523,0.595407034409094,-0.7147936217288473
1539732875578949,-0.3848325322346837,0.5935759517814905,-0.7128404669260702
1539732875594936,-0.38983749141680013,0.5890592813000683,-0.7089341573205159
1539732875610923,-0.3928892957961394,0.5856412603952084,-0.7073472190432595
1539732875626910,-0.3971618219272144,0.5821011673151748,-0.7051499198901352
1539732875642897,-0.40155642023346294,0.5769741359578848,-0.7012436102845809
1539732875658884,-0.40399786373693436,0.5767299916075377,-0.6979476615548945
1539732875674871,-0.4016784924086365,0.5742885481040663,-0.6955062180514231
1539732875690858,-0.3963073167009994,0.5714808880750741,-0.6968490119783324
1539732875706844,-0.3915465018692301,0.5750209811551077,-0.6983138780804152
1539732875722831,-0.3832455939574273,0.578072785534447,-0.7029526207370109
1539732875738818,-0.380193789578088,0.5784390020599677,-0.7080796520943009
1539732875754805,-0.3770199130235752,0.5802700846875712,-0.7155260547798887
1539732875770792,-0.3706721599145495,0.5872281986724648,-0.7184557869840544
1539732875786743,-0.3609063859006638,0.5956511787594412,-0.721995880064088
1539732875802730,-0.3554131380178531,0.597970550087739,-0.7293202105745022
1539732875818717,-0.3593194476234074,0.6002899214160369,-0.7340810254062715
1539732875834704,-0.35651178759441526,0.600534065766384,-0.7367666132600901
1539732875850690,-0.35565728236820027,0.6037079423208969,-0.7361562523842222
1539732875866677,-0.35907530327306025,0.6017547875181197,-0.7351796749828337
1539732875882664,-0.3651789120317388,0.5995574883649955,-0.7332265201800565
1539732875898651,-0.37164873731593806,0.5961394674601355,-0.7287098496986344
1539732875914638,-0.3778744182497902,0.5905241474021512,-0.7195544365606166
1539732875930625,-0.3877622644388494,0.5844205386434727,-0.7146715495536737
1539732875946612,-0.3980163271534294,0.5758754863813227,-0.7101548790722516
1539732875962599,-0.40192263675898365,0.5694056610971234,-0.7012436102845809
1539732875978586,-0.4046082246128022,0.5650110627908749,-0.6995345998321509
1539732875994573,-0.4058289463645379,0.5603723201342792,-0.695262073701076
1539732876010560,-0.40448615243762864,0.5573205157549399,-0.6929427023727781
1539732876026547,-0.4009460593575951,0.5550011444266421,-0.6902571145189595
1539732876042533,-0.39813839932860295,0.5551232166018156,-0.6905012588693067
1539732876058520,-0.39520866712443725,0.5556115053025099,-0.6937972075989931
1539732876074507,-0.3883726253147173,0.5564660105287249,-0.6959945067521174
1539732876090494,-0.3756771190966659,0.5642786297398334,-0.7061264972915238
1539732876106475,-0.36493476768139166,0.5708705271992063,-0.7138170443274587
1539732876122462,-0.3546807049668117,0.5773403524834055,-0.7243152513923858
1539732876138449,-0.348332951857786,0.5874723430228119,-0.7327382314793622
1539732876154436,-0.348332951857786,0.5949187457083998,-0.7385976958876936
1539732876170423,-0.34906538490882744,0.5977264057373919,-0.7455558098725872
1539732876186410,-0.3529716945143817,0.5984588387884333,-0.7468986037994965
1539732876202397,-0.35700007629510955,0.5983367666132597,-0.7487296864271
1539732876218384,-0.3609063859006638,0.5957732509346148,-0.7493400473029679
1539732876234371,-0.36884107728694593,0.5957732509346148,-0.7471427481498436
1539732876250358,-0.3715266651407645,0.5886930647745476,-0.7443350881208515
1539732876266345,-0.37372396429388877,0.5861295490959026,-0.7339589532310979
1539732876282332,-0.3756771190966659,0.5808804455634391,-0.7212634470130466
1539732876298318,-0.38178072785534445,0.5716029602502477,-0.7139391165026323
1539732876314305,-0.38336766613260087,0.5624475471122299,-0.708323796444648
1539732876330292,-0.38263523308155944,0.5595178149080642,-0.6957503624017702
1539732876346279,-0.3882505531395437,0.5529259174486914,-0.6828107118333713
1539732876362266,-0.393011367971313,0.5460898756389714,-0.6803692683298999
1539732876378253,-0.3970397497520408,0.54193942168307,-0.6834210727092391
1539732876394240,-0.39484245059891654,0.5452353704127564,-0.6843976501106277
1539732876410227,-0.3915465018692301,0.5471885252155335,-0.6913557640955217
1539732876426208,-0.39227893492027155,0.5523155565728235,-0.7049057755397881
1539732876442195,-0.39398794537270154,0.5534142061493856,-0.7172350652323187
1539732876458182,-0.4101014724956129,0.5535362783245592,-0.7283436331731137
1539732876474169,-0.41364156557564646,0.5651331349660484,-0.724559395742733
1539732876490156,-0.3987487602044708,0.5829556725413898,-0.7123521782253759
1539732876506143,-0.38800640878919657,0.5943083848325319,-0.7078355077439538
1539732876522130,-0.38336766613260087,0.5963836118104826,-0.7133287556267645
1539732876538117,-0.3781185626001373,0.5918669413290605,-0.730540932326238
1539732876554103,-0.37933928435187303,0.5900358587014569,-0.7425040054932479
1539732876570090,-0.3799496452277409,0.5877164873731591,-0.7488517586022736
1539732876586077,-0.38092622262912945,0.5940642404821848,-0.7393301289387351
1539732876602064,-0.38129243915465016,0.598825055313954,-0.7267566948958573
1539732876618051,-0.37177080949111163,0.5905241474021512,-0.7335927367055772
1539732876634038,-0.3644464789806974,0.582345311665522,-0.7451895933470665
1539732876650025,-0.3629816128786145,0.5808804455634391,-0.7440909437705043
1539732876666012,-0.36285954070344095,0.5709925993743799,-0.7383535515373465
1539732876681999,-0.3606622415503167,0.5701380941481649,-0.7260242618448158
1539732876697986,-0.35651178759441526,0.579781795986877,-0.6980697337300681
1539732876713973,-0.353459983215076,0.572945754177157,-0.6885481040665296
1539732876729960,-0.3696955825131609,0.5446250095368885,-0.7055161364156559
1539732876745910,-0.3799496452277409,0.5363241016250857,-0.7163805600061037
1539732876761897,-0.382757305256733,0.5515831235217821,-0.7011215381094074
1539732876777884,-0.3841000991836423,0.5718471046005948,-0.6808575570305941
1539732876793871,-0.392156862745098,0.5822232394903484,-0.6747539482719156
1539732876809858,-0.4005798428320744,0.5825894560158691,-0.6959945067521174
1539732876825845,-0.4025329976348515,0.5861295490959026,-0.7243152513923858
1539732876841832,-0.40741588464179435,0.5918669413290605,-0.7429922941939422
1539732876857819,-0.4097352559700922,0.5961394674601355,-0.7520256351567864
1539732876873806,-0.41168841077286933,0.597116044861524,-0.7501945525291829
1539732876889793,-0.4042420080872815,0.591989013504234,-0.7494621194781415
1539732876905779,-0.38886091401541156,0.5833218890669105,-0.744457160296025
1539732876921766,-0.37372396429388877,0.5825894560158691,-0.7349355306324865
1539732876937753,-0.36627756160830094,0.5777065690089263,-0.7251697566186008
1539732876953740,-0.35907530327306025,0.5683070115205613,-0.7106431677729459
1539732876969727,-0.35370412756542313,0.5628137636377506,-0.7036850537880524
1539732876985714,-0.349187457084001,0.5611047531853206,-0.696116578927291
1539732877001701,-0.352605477988861,0.5620813305867092,-0.684031433585107
1539732877017688,-0.35907530327306025,0.5617151140611885,-0.682322423132677
1539732877033675,-0.36322575722896167,0.5578088044556342,-0.6968490119783324
1539732877049662,-0.36249332417792024,0.5606164644846263,-0.7113756008239873
1539732877065612,-0.3606622415503167,0.5676966506446934,-0.7189440756847487
1539732877081599,-0.36493476768139166,0.5716029602502477,-0.7188220035095751
1539732877097585,-0.3696955825131609,0.5753871976806284,-0.7157701991302359
1539732877113572,-0.36957351033798735,0.5790493629358355,-0.7111314564736402
1539732877129558,-0.3676203555352102,0.5777065690089263,-0.7094224460212102
1539732877145545,-0.3710383764400702,0.5774624246585791,-0.7080796520943009
1539732877161531,-0.37665369649805447,0.5783169298847941,-0.711741817349508
1539732877177518,-0.3823910887312123,0.5775844968337527,-0.7145494773785002
1539732877193504,-0.3866636148622873,0.5828336003662162,-0.711741817349508
1539732877209490,-0.390447852292668,0.5860074769207291,-0.7165026321812773
1539732877225477,-0.39606317235065225,0.5906462195773248,-0.727122911421378
1539732877241463,-0.39948119325551223,0.5973601892118712,-0.7368886854352636
1539732877257450,-0.40192263675898365,0.599679560540169,-0.7473868925001907
1539732877273436,-0.3953307392996108,0.6062714579995419,-0.75214770733196
1539732877289423,-0.3873960479133287,0.6104219119554433,-0.7415274280918593
1539732877305409,-0.3828793774319066,0.604806591897459,-0.7355458915083544
1539732877321395,-0.3787289234760052,0.5952849622339205,-0.7339589532310979
1539732877337382,-0.37262531471732663,0.5913786526283662,-0.7233386739909973
1539732877353368,-0.3696955825131609,0.5830777447165634,-0.7150377660791944
1539732877369355,-0.3676203555352102,0.5764858472571905,-0.7058823529411766
1539732877385345,-0.36200503547722596,0.5719691767757684,-0.6945296406500345
1539732877401332,-0.3651789120317388,0.5717250324254213,-0.6843976501106277
1539732877417318,-0.3703059433890288,0.570382238498512,-0.6828107118333713
1539732877433304,-0.37335774776836805,0.5727016098268098,-0.6895246814679181
1539732877449291,-0.36786449988555736,0.5773403524834055,-0.7029526207370109
1539732877465277,-0.36163881895170524,0.5851529716945141,-0.7186999313344016
1539732877481264,-0.36700999465934236,0.5885709925993741,-0.7324940871290151
1539732877497250,-0.37543297474631876,0.5934538796063169,-0.7415274280918593
1539732877513237,-0.3757991912718395,0.5969939726863505,-0.7553215838864729
1539732877529223,-0.3646906233310445,0.6038300144960704,-0.76240177004654
1539732877545210,-0.3571221484702831,0.6161593041886011,-0.7560540169375143
1539732877561196,-0.3521171892881667,0.6173800259403368,-0.7467765316243229
1539732877577182,-0.3504081788357367,0.6165255207141218,-0.7442130159456779
1539732877593169,-0.34699015793087673,0.6178683146410311,-0.7396963454642558
1539732877609155,-0.3484550240329596,0.6115205615320054,-0.7361562523842222
1539732877625142,-0.3479667353322653,0.6006561379415576,-0.7406729228656443
1539732877641128,-0.3428397039749753,0.5951628900587469,-0.7422598611429008
1539732877657115,-0.34528114747844674,0.5862516212710762,-0.7400625619897765
1539732877673101,-0.35651178759441526,0.5808804455634391,-0.7326161593041887
1539732877689087,-0.37506675822079805,0.5707484550240327,-0.7340810254062715
1539732877705047,-0.382757305256733,0.5620813305867092,-0.7472648203250172
1539732877721034,-0.37628747997253376,0.5620813305867092,-0.7517814908064393
1539732877737020,-0.36786449988555736,0.5707484550240327,-0.7561760891126879
1539732877753007,-0.36578927290760666,0.5717250324254213,-0.7514152742809186
1539732877768993,-0.3734798199435416,0.5702601663233384,-0.7466544594491493
1539732877784979,-0.37628747997253376,0.566964217593652,-0.7417715724422065
1539732877800966,-0.3790951400015259,0.5578088044556342,-0.7476310368505379
1539732877816952,-0.3705500877393759,0.5531700617990385,-0.7493400473029679
1539732877832939,-0.3706721599145495,0.5443808651865414,-0.7483634699015793
1539732877848925,-0.36908522163729307,0.5242389562829022,-0.7392080567635615
1539732877864912,-0.37164873731593806,0.5122758831158922,-0.7144274052033266
1539732877880898,-0.39142442969405655,0.4917677576867323,-0.7005111772335395
1539732877896885,-0.4028992141603722,0.46210421911955457,-0.7149156939040209
1539732877912871,-0.41327534905012575,0.44586861982146964,-0.7157701991302359
1539732877928857,-0.4485542076752882,0.4502632181277182,-0.670359349965667
1539732877944844,-0.4586861982146946,0.4740672922865645,-0.6244602121004044
1539732877960830,-0.4240177004654,0.4965285725185016,-0.6189669642175937
1539732877976817,-0.36237125200274667,0.5474326695658807,-0.64106202792401
1539732877992803,-0.3281910429541468,0.5913786526283662,-0.6748760204470892
1539732878008790,-0.30353246356908503,0.6231174181734946,-0.7226062409399558
1539732878024749,-0.2881513694972151,0.6576638437476161,-0.7544670786602579
1539732878040736,-0.26190585183489734,0.6776836804760817,-0.793408102540627
1539732878056722,-0.23578240634775316,0.680735484855421,-0.828809033340963
1539732878072709,-0.22284275577935464,0.6800030518043796,-0.8327153429465173
1539732878088695,-0.2213778896772718,0.6525368123903261,-0.8286869611657894
1539732878104682,-0.2246738384069582,0.6222629129472796,-0.8172121766994738
1539732878120668,-0.2280918593118182,0.5861295490959026,-0.797680628671702
1539732878136654,-0.2401770046540017,0.5744106202792398,-0.7263904783703365
1539732878152641,-0.26019684138246735,0.558419165331502,-0.6630350194552528
1539732878168627,-0.2717936980239566,0.5343709468223086,-0.6400854505226214
1539732878184614,-0.3010910200656136,0.5126420996414129,-0.6286106660563058
1539732878200600,-0.344060425726711,0.49030289158464946,-0.6295872434576943
1539732878216587,-0.3953307392996108,0.4807812619211109,-0.6315403982604715
1539732878232573,-0.4247501335164414,0.49042496375982303,-0.6243381399252308
1539732878248560,-0.42377355611505285,0.5093461509117265,-0.6251926451514458
1539732878264546,-0.41290913252460504,0.5293659876401922,-0.6408178835736629
1539732878280532,-0.4037537193865872,0.5438925764858471,-0.6557106889448385
1539732878296519,-0.38727397573815514,0.5614709697108413,-0.6666971847104599
1539732878312505,-0.3600518806744488,0.5794155794613562,-0.6845197222858013
1539732878328492,-0.3379568169680325,0.591134508278019,-0.7063706416418709
1539732878344513,-0.34052033264667747,0.5867399099717705,-0.7208972304875259
1539732878360499,-0.33514915693904035,0.5980926222629126,-0.7316395819028001
1539732878376485,-0.3676203555352102,0.6010223544670783,-0.729686427100023
1539732878392472,-0.42511635004196213,0.6079804684519718,-0.7086900129701688
1539732878408458,-0.4918898298619059,0.6229953459983211,-0.6790264744029906
1539732878424445,-0.5183794918745708,0.6370336461432826,-0.6764629587243456
1539732878440431,-0.5202105745021743,0.6444800488288704,-0.6853742275120163
1539732878456418,-0.510078583962768,0.6598611429007404,-0.6751201647974363
1539732878472404,-0.4712596322575724,0.6842755779354546,-0.6615701533531699
1539732878488391,-0.4147402151522086,0.7035629816128788,-0.6627908751049056
1539732878504377,-0.3516289005874724,0.7102769512474252,-0.6883039597161824
1539732878520363,-0.30609597924773,0.7128404669260702,-0.7206530861371787
1539732878536350,-0.2818036163881894,0.6945296406500345,-0.7515373464560922
1539732878552336,-0.2573891813534752,0.6718242160677503,-0.7569085221637293
1539732878568323,-0.22699320973525605,0.6690165560387582,-0.7361562523842222
1539732878584309,-0.20379949645227757,0.6740215152208746,-0.7011215381094074
1539732878600296,-0.2188143739986268,0.6690165560387582,-0.678049897001602
1539732878616282,-0.2540932326237888,0.6588845654993518,-0.6688944838635842
1539732878632269,-0.2838788433661401,0.6699931334401468,-0.6748760204470892
1539732878648255,-0.3297779812314032,0.6779278248264289,-0.6948958571755552
1539732878664215,-0.3925230792706187,0.6835431448844131,-0.7197985809109637
1539732878680201,-0.4459906919966432,0.6873273823147938,-0.7321278706034944
1539732878696188,-0.456855115587091,0.709178301670863,-0.7392080567635615
1539732878712174,-0.4369573510337985,0.7339589532310979,-0.744457160296025
1539732878728160,-0.43830014496070824,0.7390859845883879,-0.7409170672159915
1539732878744147,-0.4507515068284125,0.7371328297856108,-0.7230945296406501
1539732878760133,-0.46051728084229815,0.7316395819028001,-0.694407568474861
1539732878776120,-0.4633249408712903,0.7095445181963838,-0.6735332265201799
1539732878792106,-0.46674296177615027,0.684153505760281,-0.6544899671931028
1539732878808093,-0.463691157396811,0.6597390707255668,-0.6349584191653315
1539732878824079,-0.4519722285801482,0.6467994201571683,-0.6234836346990158
1539732878840066,-0.4581979095140003,0.6187228198672461,-0.6210421911955444
1539732878856052,-0.45758754863813245,0.5958953231097883,-0.6281223773556115
1539732878872038,-0.4451361867704282,0.5835660334172577,-0.6330052643625543
1539732878888025,-0.42633707179369784,0.5864957656214234,-0.6408178835736629
1539732878904011,-0.42133211261158143,0.581490806439307,-0.6532692454413671
1539732878919998,-0.4140077821011672,0.5792935072861827,-0.670359349965667
1539732878935984,-0.40326543068589293,0.5796597238117034,-0.6751201647974363
1539732878951971,-0.39642938887617296,0.5888151369497212,-0.672922865644312
1539732878967957,-0.3999694819562065,0.6012664988174254,-0.6651102464332035
1539732878983917,-0.3988708323796444,0.6143282215609975,-0.6651102464332035
1539732878999903,-0.39191271839475084,0.6287327382314798,-0.6636453803311206
1539732879015890,-0.38849469748989085,0.6422827496757462,-0.6723125047684442
1539732879031876,-0.39655146105134653,0.6421606775005726,-0.6863508049134048
1539732879047863,-0.40326543068589293,0.6399633783474483,-0.7038071259632259
1539732879063849,-0.40607309071488507,0.6341039139391169,-0.7229724574654766
1539732879079836,-0.40119020370794223,0.6276340886549177,-0.7270008392462044
1539732879095822,-0.39191271839475084,0.6160372320134275,-0.7268787670710308
1539732879111808,-0.37848477912565803,0.5978484779125655,-0.7217517357137408
1539732879127795,-0.3631036850537881,0.5808804455634391,-0.7071030746929123
1539732879143781,-0.35785458152132454,0.5580529488059813,-0.6845197222858013
1539732879159768,-0.356023498893721,0.5327840085450521,-0.6623025864042114
1539732879175754,-0.34357213702601674,0.5145952544441901,-0.6481422140840771
1539732879191741,-0.3382009613183796,0.49372091248950944,-0.6476539253833828
1539732879207727,-0.3290455481803618,0.4860303654535745,-0.6435034714274814
1539732879223713,-0.275089646753643,0.4879835202563516,-0.7067368581673916
1539732879239700,-0.2133211261158161,0.5532921339742121,-0.7189440756847487
1539732879255686,-0.24408331425955598,0.5680628671702141,-0.7155260547798887
1539732879271673,-0.2864423590447851,0.6474097810330361,-0.6415503166247043
1539732879287659,-0.3882505531395437,0.603097581445029,-0.7383535515373465
1539732879303650,-0.4185244525825893,0.5781948577096205,-0.8450446326390479
1539732879319636,-0.44452582589456036,0.5951628900587469,-0.895948729686427
1539732879335622,-0.45087357900358604,0.6413061722743576,-0.8892347600518806
1539732879351609,-0.39557488364995796,0.7201647974364844,-0.8783703364614328
1539732879367595,-0.36713206683451594,0.7360341802090486,-0.8719005111772336
1539732879383582,-0.35700007629510955,0.7278553444724194,-0.8535896849011979
1539732879399568,-0.36798657206073093,0.721141374837873,-0.7999999999999998
1539732879415555,-0.33185320820935393,0.6836652170595867,-0.7534905012588693
1539732879431541,-0.3478446631570917,0.6156710154879068,-0.722850385290303
1539732879447528,-0.391302357518883,0.5452353704127564,-0.6784161135271227
1539732879463514,-0.4058289463645379,0.457709620813306,-0.6641336690318149
1539732879479500,-0.39728389410238796,0.38788433661402344,-0.64789806973373
1539732879495487,-0.36285954070344095,0.34918745708400056,-0.6293430991073472
1539732879511473,-0.29633020523384435,0.34796673533226485,-0.5983367666132602
1539732879527460,-0.24762340733958954,0.36566720073243264,-0.5640344853894868
1539732879543446,-0.24518196383611812,0.38117036697947704,-0.5405966277561607
1539732879559433,-0.2737468528267337,0.40387579156176123,-0.5435263599603264
1539732879575419,-0.28632028686961153,0.4337834744792861,-0.5819790951400017
1539732879591405,-0.3082932784008543,0.48151369497215235,-0.6280003051804379
1539732879607392,-0.35236133363851385,0.5329060807202257,-0.6652323186083771
1539732879623352,-0.3753109025711452,0.5705043106736856,-0.7182116426337073
1539732879639338,-0.37933928435187303,0.600534065766384,-0.7825436789501792
1539732879655324,-0.37543297474631876,0.6166475928892954,-0.836499580376898
1539732879671310,-0.36884107728694593,0.6160372320134275,-0.8642099641412986
1539732879687296,-0.36249332417792024,0.6076142519264511,-0.8656748302433814
1539732879703282,-0.3643244068055238,0.5918669413290605,-0.8450446326390479
1539732879719267,-0.3823910887312123,0.5740444037537191,-0.8122072175173569
1539732879735253,-0.3698176546883345,0.5759975585564963,-0.7713130388342107
1539732879751239,-0.3646906233310445,0.5750209811551077,-0.727122911421378
1539732879767225,-0.3609063859006638,0.5676966506446934,-0.7009994659342338
1539732879783211,-0.34821087968261244,0.5628137636377506,-0.6974593728542002
1539732879799197,-0.35187304493781957,0.5570763714045928,-0.7000228885328452
1539732879815183,-0.34308384832532246,0.5690394445716027,-0.7124742504005495
1539732879831169,-0.3419851987487603,0.5893034256504155,-0.7223620965896087
1539732879847155,-0.3529716945143817,0.6084687571526661,-0.7350576028076601
1539732879863141,-0.35077439536125743,0.6321507591363398,-0.7554436560616464
1539732879879127,-0.3546807049668117,0.651438162813764,-0.7776607919432363
1539732879895113,-0.33844510566872676,0.671335927367056,-0.8046387426565955
1539732879911099,-0.32123292896925326,0.6746318760967425,-0.8267338063630123
1539732879927085,-0.3075608453498129,0.6635233081559475,-0.8411383230334937
1539732879943084,-0.27570000762951086,0.6572976272220954,-0.8391851682307165
1539732879959070,-0.2527504386968795,0.6461890592813004,-0.8057373922331577
1539732879975056,-0.23468375677119102,0.6306858930342569,-0.7659418631265735
1539732879991042,-0.2360265506981003,0.6040741588464176,-0.729686427100023
1539732880007028,-0.22247653925383393,0.5830777447165634,-0.7112535286488137
1539732880023014,-0.23993286030365457,0.5534142061493856,-0.7152819104295416
1539732880039000,-0.25140764476997024,0.559273670557717,-0.6730449378194856
1539732880054986,-0.29169146257724865,0.5562218661783778,-0.6519264515144578
1539732880070972,-0.3350270847638668,0.54706645304036,-0.6660868238345921
1539732880086958,-0.34650186923018245,0.5434042877851528,-0.7071030746929123
1539732880102944,-0.3429617761501489,0.560128175783932,-0.7338368810559244
1539732880118930,-0.3450370031280996,0.5888151369497212,-0.7384756237125201
1539732880134916,-0.36127260242618453,0.6148165102616918,-0.7291981383993287
1539732880150902,-0.3920347905699244,0.6251926451514462,-0.7241931792172123
1539732880166888,-0.4218204013122757,0.6258030060273141,-0.7210193026626994
1539732880182874,-0.4348821240558478,0.6248264286259246,-0.7139391165026323
1539732880198860,-0.4435492484931718,0.6137178606851297,-0.7101548790722516
1539732880214846,-0.4426947432669568,0.5967498283360033,-0.7067368581673916
1539732880230832,-0.419745174334325,0.5828336003662162,-0.7018539711604488
1539732880246818,-0.4042420080872815,0.5708705271992063,-0.6972152285038531
1539732880262786,-0.3920347905699244,0.5623254749370563,-0.6934309910734724
1539732880278772,-0.38422217135881587,0.558419165331502,-0.6911116197451745
1539732880294758,-0.3706721599145495,0.5680628671702141,-0.6914778362706953
1539732880310744,-0.3588311589227131,0.5819790951400012,-0.7019760433356224
1539732880326730,-0.34943160143434815,0.5950408178835733,-0.7182116426337073
1539732880342716,-0.34564736400396745,0.6083466849774926,-0.7345693141069658
1539732880358702,-0.3479667353322653,0.6188448920424197,-0.7467765316243229
1539732880374688,-0.35150682841229886,0.6244602121004039,-0.7520256351567864
1539732880390674,-0.3479667353322653,0.6280003051804384,-0.7494621194781415
1539732880406660,-0.35284962233920814,0.6209201190203704,-0.7383535515373465
1539732880422646,-0.36115053025101096,0.6052948805981533,-0.7190661478599223
1539732880438632,-0.36115053025101096,0.5935759517814905,-0.7025864042114902
1539732880454618,-0.35870908674753954,0.5768520637827113,-0.691844052796216
1539732880470604,-0.35663385976958883,0.5662317845426106,-0.6809796292057677
1539732880486590,-0.3609063859006638,0.5602502479591056,-0.6685282673380635
1539732880502576,-0.3643244068055238,0.5659876401922634,-0.6643778133821621
1539732880518562,-0.3770199130235752,0.5698939497978177,-0.6731670099946592
1539732880534548,-0.3924010070954451,0.580636301213092,-0.6950179293507288
1539732880550534,-0.4085145342183565,0.6026092927443347,-0.7124742504005495
1539732880566520,-0.4269474326695657,0.6209201190203704,-0.7344472419317922
1539732880582519,-0.40985732814526576,0.6271457999542234,-0.7754634927901121
1539732880598505,-0.3778744182497902,0.6338597695887698,-0.796826123445487
1539732880614491,-0.348332951857786,0.6272678721293969,-0.7962157625696191
1539732880630477,-0.33173113603418036,0.6181124589913782,-0.7722896162355992
1539732880646463,-0.32709239337758467,0.6043183031967647,-0.7273670557717251
1539732880662449,-0.3341725795376518,0.5864957656214234,-0.690989547570001
1539732880678435,-0.33722438391699106,0.5656214236667427,-0.6726787212939649
1539732880694421,-0.34308384832532246,0.5499961852445256,-0.6590066376745249
1539732880710407,-0.34979781795986886,0.5463340199893185,-0.6533913176165407
1539732880726393,-0.36371404592965595,0.5436484321355,-0.6481422140840771
1539732880742379,-0.37958342870222017,0.5474326695658807,-0.64960708018616
1539732880758365,-0.39105821316853584,0.5596398870832378,-0.655588616769665
1539732880774351,-0.39569695582513154,0.5768520637827113,-0.6767071030746927
1539732880790337,-0.3980163271534294,0.5890592813000683,-0.7030746929121845
1539732880806323,-0.3983825436789501,0.5994354161898219,-0.731395437552453
1539732880822309,-0.4004577706569008,0.6100556954299226,-0.7439688715953308
1539732880838295,-0.40228885328450437,0.6153047989623861,-0.7486076142519265
1539732880854281,-0.4046082246128022,0.615060654612039,-0.7448233768215458
1539732880870267,-0.40143434805828937,0.6117647058823525,-0.7368886854352636
1539732880886253,-0.4013122758831158,0.606515602349889,-0.7146715495536737
1539732880902252,-0.4000915541313801,0.5965056839856562,-0.6995345998321509
1539732880918238,-0.4043640802624551,0.5850308995193405,-0.6885481040665296
1539732880934224,-0.3959411001754787,0.5734340428778513,-0.6854962996871898
1539732880950210,-0.3854428931105516,0.5676966506446934,-0.6801251239795527
1539732880966196,-0.3731136034180209,0.5689173723964291,-0.6765850308995192
1539732880982182,-0.3672541390096895,0.575509269855802,-0.6719462882429235
1539732880998168,-0.36798657206073093,0.5839322499427784,-0.6767071030746927
1539732881014154,-0.3668879224841688,0.5900358587014569,-0.6940413519493402
1539732881030140,-0.3672541390096895,0.5972381170366976,-0.707469291218433
1539732881046126,-0.36957351033798735,0.6068818188754097,-0.7201647974364844
1539732881062111,-0.3696955825131609,0.6126192111085675,-0.7295643549248494
1539732881078097,-0.3706721599145495,0.616769665064469,-0.7348134584573129
1539732881094083,-0.3715266651407645,0.618478675516899,-0.7309071488517587
1539732881110069,-0.3703059433890288,0.6186007476920725,-0.7290760662241551
1539732881126055,-0.37164873731593806,0.6155489433127332,-0.7232166018158237
1539732881142041,-0.3739681086442359,0.6098115510795754,-0.7113756008239873
1539732881158027,-0.3756771190966659,0.6027313649195083,-0.7063706416418709
1539732881174013,-0.3753109025711452,0.5938200961318376,-0.7020981155107959
1539732881189999,-0.3739681086442359,0.5856412603952084,-0.6984359502555888
1539732881205985,-0.37286945906767377,0.5812466620889598,-0.6931868467231252
1539732881221954,-0.37213702601663234,0.5821011673151748,-0.687449454489967
1539732881237940,-0.3772640573739223,0.5836881055924312,-0.6809796292057677
1539732881253926,-0.38300144960708016,0.5847867551689934,-0.6804913405050734
1539732881269912,-0.3862973983367666,0.5879606317235062,-0.6836652170595863
1539732881285898,-0.3841000991836423,0.5923552300297548,-0.6896467536430917
1539732881301884,-0.3816586556801709,0.5967498283360033,-0.6980697337300681
1539732881317870,-0.3789730678263523,0.6026092927443347,-0.7016098268101016
1539732881333856,-0.38300144960708016,0.5995574883649955,-0.7068589303425652
1539732881349842,-0.393011367971313,0.5968719005111769,-0.709178301670863
1539732881365828,-0.39606317235065225,0.5963836118104826,-0.7102769512474252
1539732881381814,-0.38983749141680013,0.5973601892118712,-0.7079575799191273
1539732881397800,-0.3858091096360723,0.5990691996643012,-0.710032806897078
1539732881413786,-0.37970550087739374,0.6024872205691612,-0.7096665903715573
1539732881429772,-0.3782406347753109,0.6045624475471119,-0.7045395590142673
1539732881445757,-0.38007171740291446,0.6033417257953761,-0.7035629816128788
1539732881461743,-0.3816586556801709,0.6032196536202026,-0.7033188372625316
1539732881477729,-0.37885099565117875,0.6040741588464176,-0.6994125276569774
1539732881493715,-0.37677576867322804,0.6024872205691612,-0.7011215381094074
1539732881509701,-0.37457846952010376,0.5999237048905162,-0.7029526207370109
1539732881525687,-0.3749446860456245,0.5982146944380862,-0.7001449607080188
1539732881541656,-0.3736018921187152,0.5974822613870447,-0.6974593728542002
1539732881557642,-0.3751888303959716,0.5967498283360033,-0.6957503624017702
1539732881573628,-0.3757991912718395,0.5940642404821848,-0.6959945067521174
1539732881589614,-0.380193789578088,0.5929655909056226,-0.694407568474861
1539732881605600,-0.38056000610360874,0.594552529182879,-0.695262073701076
1539732881621586,-0.3778744182497902,0.5957732509346148,-0.7006332494087131
1539732881637572,-0.3757991912718395,0.5982146944380862,-0.7025864042114902
1539732881653558,-0.3761654077973602,0.6012664988174254,-0.7003891050583659
1539732881669544,-0.3806820782787823,0.6007782101167312,-0.7006332494087131
1539732881685530,-0.38263523308155944,0.6011444266422519,-0.7013656824597545
1539732881701516,-0.38422217135881587,0.6024872205691612,-0.6999008163576717
1539732881717502,-0.3854428931105516,0.6016327153429462,-0.697825589379721
1539732881733488,-0.3883726253147173,0.5998016327153426,-0.6992904554818038
1539732881749474,-0.38764019226367585,0.6028534370946819,-0.696116578927291
1539732881765460,-0.387029831387808,0.5998016327153426,-0.6974593728542002
1539732881781446,-0.3828793774319066,0.5994354161898219,-0.6999008163576717
1539732881797432,-0.381048294804303,0.6006561379415576,-0.6975814450293738
1539732881813418,-0.38043793392843517,0.5984588387884333,-0.6981918059052417
1539732881829404,-0.37848477912565803,0.600534065766384,-0.6986800946059359
1539732881845389,-0.37921721217669946,0.6015106431677726,-0.6970931563286795
1539732881861389,-0.37677576867322804,0.6027313649195083,-0.6981918059052417
1539732881877375,-0.3756771190966659,0.6023651483939876,-0.7029526207370109
1539732881893361,-0.37848477912565803,0.602243076218814,-0.7039291981383995
1539732881909347,-0.37592126344701304,0.6038300144960704,-0.7028305485618374
1539732881925333,-0.3761654077973602,0.6057831692988476,-0.6992904554818038
1539732881941319,-0.37714198519874875,0.6050507362478061,-0.7035629816128788
1539732881957305,-0.3727473868925002,0.6033417257953761,-0.7044174868390938
1539732881973291,-0.3705500877393759,0.6052948805981533,-0.7014877546349281
1539732881989277,-0.37250324254215306,0.6019989318684669,-0.6990463111314567
1539732882005262,-0.3740901808194095,0.6009002822919047,-0.6989242389562831
1539732882021248,-0.37555504692149233,0.599679560540169,-0.6996566720073245
1539732882037234,-0.3786068513008316,0.5991912718394747,-0.7001449607080188
1539732882053220,-0.3773861295490959,0.5989471274891276,-0.6988021667811095
1539732882069206,-0.3768978408484016,0.5985809109636069,-0.6985580224307624
1539732882085192,-0.37958342870222017,0.6007782101167312,-0.6973373006790267
1539732882101178,-0.38056000610360874,0.5998016327153426,-0.6988021667811095
1539732882117164,-0.38300144960708016,0.5984588387884333,-0.6970931563286795
1539732882133150,-0.3808041504539559,0.6016327153429462,-0.6966048676279852
1539732882149136,-0.3794613565270466,0.6006561379415576,-0.6999008163576717
1539732882165122,-0.3816586556801709,0.6010223544670783,-0.6973373006790267
1539732882181091,-0.38007171740291446,0.604806591897459,-0.6972152285038531
1539732882197077,-0.381048294804303,0.6032196536202026,-0.7014877546349281
1539732882213063,-0.38043793392843517,0.6029755092698554,-0.6986800946059359
1539732882229049,-0.3841000991836423,0.6009002822919047,-0.6994125276569774
1539732882245035,-0.3849546044098573,0.5987029831387805,-0.7023422598611431
1539732882261021,-0.38178072785534445,0.5980926222629126,-0.7008773937590602
1539732882277007,-0.3798275730525673,0.5994354161898219,-0.6981918059052417
1539732882292993,-0.37921721217669946,0.5977264057373919,-0.6973373006790267
1539732882308979,-0.3744563973449302,0.5969939726863505,-0.6997787441824981
1539732882324965,-0.36884107728694593,0.5985809109636069,-0.6980697337300681
1539732882340951,-0.3689631494621195,0.5993133440146483,-0.6958724345769438
1539732882356937,-0.3676203555352102,0.599679560540169,-0.6986800946059359
1539732882372923,-0.36920729381246664,0.6004119935912104,-0.6989242389562831
1539732882388908,-0.3732356755931945,0.6000457770656897,-0.6990463111314567
1539732882404894,-0.3777523460746166,0.6016327153429462,-0.7003891050583659
1539732882420880,-0.37970550087739374,0.601388570992599,-0.7022201876859695
1539732882436866,-0.3794613565270466,0.6029755092698554,-0.7031967650873581
1539732882452852,-0.3806820782787823,0.6035858701457233,-0.6992904554818038
1539732882468838,-0.38226901655603873,0.6010223544670783,-0.6995345998321509
1539732882484824,-0.381902800030518,0.5991912718394747,-0.7001449607080188
1539732882500824,-0.381902800030518,0.5980926222629126,-0.6984359502555888
1539732882516810,-0.3811703669794766,0.5985809109636069,-0.6951400015259024
1539732882532796,-0.3825131609063859,0.5961394674601355,-0.6937972075989931
1539732882548781,-0.38129243915465016,0.5957732509346148,-0.6957503624017702
1539732882564767,-0.37677576867322804,0.5958953231097883,-0.6959945067521174
1539732882580753,-0.3764095521477073,0.597970550087739,-0.6948958571755552
1539732882596739,-0.3765316243228809,0.5977264057373919,-0.6985580224307624
1539732882612725,-0.3761654077973602,0.5998016327153426,-0.6966048676279852
1539732882628711,-0.37421225299458305,0.6009002822919047,-0.6977035172045474
1539732882644697,-0.37250324254215306,0.601388570992599,-0.7022201876859695
1539732882660683,-0.37714198519874875,0.6009002822919047,-0.7051499198901352
1539732882676669,-0.37506675822079805,0.6007782101167312,-0.7051499198901352
1539732882692655,-0.3743343251697566,0.6012664988174254,-0.7042954146639202
1539732882708641,-0.3731136034180209,0.602243076218814,-0.7012436102845809
1539732882724627,-0.3736018921187152,0.5998016327153426,-0.7002670328831924
1539732882740613,-0.3723811703669795,0.5994354161898219,-0.6994125276569774
1539732882756599,-0.37213702601663234,0.6001678492408633,-0.6958724345769438
1539732882772585,-0.3710383764400702,0.5969939726863505,-0.6989242389562831
1539732882788571,-0.3672541390096895,0.5972381170366976,-0.7023422598611431
1539732882804557,-0.3660334172579538,0.6001678492408633,-0.7001449607080188
1539732882820556,-0.3715266651407645,0.601388570992599,-0.7033188372625316
1539732882836542,-0.3727473868925002,0.6009002822919047,-0.7038071259632259
1539732882852528,-0.3778744182497902,0.6009002822919047,-0.7005111772335395
1539732882868514,-0.38043793392843517,0.6018768596932933,-0.7003891050583659
1539732882884500,-0.38178072785534445,0.6028534370946819,-0.7000228885328452
1539732882900486,-0.3816586556801709,0.6029755092698554,-0.7002670328831924
1539732882916472,-0.3787289234760052,0.6021210040436404,-0.7031967650873581
1539732882932458,-0.3777523460746166,0.6027313649195083,-0.7022201876859695
1539732882948444,-0.37592126344701304,0.6035858701457233,-0.7022201876859695
1539732882964430,-0.3757991912718395,0.6021210040436404,-0.7011215381094074
1539732882980416,-0.3731136034180209,0.6011444266422519,-0.7033188372625316
1539732882996402,-0.3703059433890288,0.5999237048905162,-0.7013656824597545
1539732883012388,-0.3789730678263523,0.5974822613870447,-0.7003891050583659
1539732883028374,-0.36908522163729307,0.6027313649195083,-0.7008773937590602
1539732883044360,-0.36615548943312737,0.6009002822919047,-0.7057602807660031
1539732883060346,-0.36664377813382165,0.5994354161898219,-0.7049057755397881
1539732883076332,-0.3718928816662852,0.5990691996643012,-0.7003891050583659
1539732883092318,-0.37299153124284734,0.6007782101167312,-0.7002670328831924
1539732883108304,-0.3740901808194095,0.6015106431677726,-0.7013656824597545
1539732883124290,-0.3685969329365988,0.6026092927443347,-0.7046616311894409
1539732883140258,-0.3696955825131609,0.6011444266422519,-0.7034409094377052
1539732883156244,-0.3723811703669795,0.600534065766384,-0.7022201876859695
1539732883172230,-0.37421225299458305,0.600534065766384,-0.7008773937590602
1539732883188216,-0.3731136034180209,0.6000457770656897,-0.7044174868390938
1539732883204202,-0.37213702601663234,0.5968719005111769,-0.7029526207370109
1539732883220188,-0.37164873731593806,0.6017547875181197,-0.6999008163576717
1539732883236174,-0.36920729381246664,0.6021210040436404,-0.6997787441824981
1539732883252160,-0.3711604486152438,0.5994354161898219,-0.7031967650873581
1539732883268146,-0.3698176546883345,0.5989471274891276,-0.7051499198901352
1539732883284132,-0.3718928816662852,0.5999237048905162,-0.7025864042114902
1539732883300118,-0.37079423208972306,0.5984588387884333,-0.7006332494087131
1539732883316104,-0.37250324254215306,0.5998016327153426,-0.6992904554818038
1539732883332090,-0.3740901808194095,0.5991912718394747,-0.7008773937590602
1539732883348076,-0.37592126344701304,0.6002899214160369,-0.6997787441824981
1539732883364062,-0.3781185626001373,0.5999237048905162,-0.7003891050583659
1539732883380048,-0.3777523460746166,0.5985809109636069,-0.7014877546349281
1539732883396034,-0.3736018921187152,0.5994354161898219,-0.7022201876859695
1539732883412020,-0.3751888303959716,0.5991912718394747,-0.6980697337300681
1539732883428006,-0.3764095521477073,0.599679560540169,-0.6996566720073245
1539732883443992,-0.3772640573739223,0.5974822613870447,-0.6985580224307624
1539732883459991,-0.37628747997253376,0.5974822613870447,-0.6980697337300681
1539732883475977,-0.37384603646906234,0.5965056839856562,-0.7008773937590602
1539732883491963,-0.3765316243228809,0.5965056839856562,-0.7003891050583659
1539732883507949,-0.38007171740291446,0.5976043335622183,-0.6997787441824981
1539732883523935,-0.37750820172426947,0.5982146944380862,-0.7008773937590602
1539732883539921,-0.3773861295490959,0.5994354161898219,-0.7045395590142673
1539732883555907,-0.37299153124284734,0.6006561379415576,-0.7031967650873581
1539732883571893,-0.3748226138704509,0.599679560540169,-0.7052719920653088
1539732883587879,-0.37164873731593806,0.603952086671244,-0.7060044251163502
1539732883603865,-0.3706721599145495,0.6024872205691612,-0.7027084763866638
1539732883619851,-0.36993972686350807,0.600534065766384,-0.7008773937590602
1539732883635837,-0.3736018921187152,0.5990691996643012,-0.7002670328831924
1539732883651823,-0.3764095521477073,0.598825055313954,-0.6975814450293738
1539732883667809,-0.3777523460746166,0.5985809109636069,-0.6966048676279852
1539732883683795,-0.3772640573739223,0.5951628900587469,-0.6984359502555888
1539732883699781,-0.37665369649805447,0.5973601892118712,-0.6981918059052417
1539732883715767,-0.3778744182497902,0.5957732509346148,-0.696971084153506
1539732883731752,-0.37750820172426947,0.5968719005111769,-0.7000228885328452
1539732883747738,-0.3748226138704509,0.5969939726863505,-0.7013656824597545
1539732883763724,-0.3731136034180209,0.6007782101167312,-0.7030746929121845
1539732883779693,-0.3711604486152438,0.6027313649195083,-0.7046616311894409
1539732883795679,-0.37250324254215306,0.6034637979705497,-0.7053940642404823
1539732883811665,-0.3740901808194095,0.6051728084229797,-0.7085679407949952
1539732883827651,-0.37750820172426947,0.6040741588464176,-0.7030746929121845
1539732883843637,-0.37958342870222017,0.6015106431677726,-0.7077134355687802
1539732883859623,-0.37470054169527733,0.6002899214160369,-0.7044174868390938
1539732883875609,-0.3727473868925002,0.5983367666132597,-0.7027084763866638
1539732883891595,-0.37299153124284734,0.5987029831387805,-0.7017318989852752
1539732883907581,-0.37506675822079805,0.5961394674601355,-0.6972152285038531
1539732883923567,-0.37677576867322804,0.5934538796063169,-0.6923323414969103
1539732883939553,-0.37592126344701304,0.5938200961318376,-0.6922102693217367
1539732883955539,-0.3772640573739223,0.593698023956664,-0.6959945067521174
1539732883971525,-0.37543297474631876,0.5949187457083998,-0.7000228885328452
1539732883987511,-0.37763027389944304,0.5985809109636069,-0.7028305485618374
1539732884003497,-0.37885099565117875,0.6000457770656897,-0.7019760433356224
1539732884019483,-0.37958342870222017,0.6017547875181197,-0.7034409094377052
1539732884035469,-0.38092622262912945,0.6024872205691612,-0.7046616311894409
1539732884051455,-0.3778744182497902,0.6035858701457233,-0.7053940642404823
1539732884067441,-0.3764095521477073,0.6043183031967647,-0.7047837033646145
1539732884083427,-0.3760433356221866,0.6006561379415576,-0.7060044251163502
1539732884099426,-0.3739681086442359,0.5995574883649955,-0.6992904554818038
1539732884115412,-0.3732356755931945,0.5973601892118712,-0.6973373006790267
1539732884131398,-0.36871900511177236,0.5958953231097883,-0.6991683833066302
1539732884147384,-0.3668879224841688,0.5952849622339205,-0.7003891050583659
1539732884163370,-0.36456855115587095,0.5934538796063169,-0.7013656824597545
1539732884179356,-0.36505683985656523,0.5950408178835733,-0.6979476615548945
1539732884195342,-0.37164873731593806,0.5967498283360033,-0.6958724345769438
1539732884211328,-0.37128252079041735,0.5973601892118712,-0.6991683833066302
1539732884227314,-0.3718928816662852,0.6002899214160369,-0.7035629816128788
1539732884243300,-0.37177080949111163,0.6012664988174254,-0.7049057755397881
1539732884259286,-0.3734798199435416,0.6023651483939876,-0.7082017242694745
1539732884275272,-0.37470054169527733,0.6034637979705497,-0.7106431677729459
1539732884291257,-0.37299153124284734,0.6035858701457233,-0.7094224460212102
1539732884307243,-0.37555504692149233,0.603097581445029,-0.7080796520943009
1539732884323229,-0.3744563973449302,0.6010223544670783,-0.7050278477149616
1539732884339215,-0.3715266651407645,0.5983367666132597,-0.7045395590142673
1539732884355201,-0.3705500877393759,0.5990691996643012,-0.7003891050583659
1539732884371187,-0.37006179903868164,0.5969939726863505,-0.696971084153506
1539732884387173,-0.37006179903868164,0.5935759517814905,-0.6996566720073245
1539732884403159,-0.37079423208972306,0.5941863126573583,-0.7002670328831924
1539732884419128,-0.3722590981918059,0.5951628900587469,-0.6985580224307624
1539732884435114,-0.3760433356221866,0.5952849622339205,-0.6983138780804152
1539732884451100,-0.3770199130235752,0.5955291065842676,-0.6962386511024645
1539732884467086,-0.3798275730525673,0.5980926222629126,-0.6984359502555888
1539732884483072,-0.38129243915465016,0.6007782101167312,-0.7000228885328452
1539732884499058,-0.3811703669794766,0.6018768596932933,-0.7040512703135731
1539732884515044,-0.37799649042496375,0.603097581445029,-0.7061264972915238
1539732884531030,-0.3765316243228809,0.6026092927443347,-0.7084458686198216
1539732884547016,-0.3722590981918059,0.6021210040436404,-0.7089341573205159
1539732884563002,-0.36920729381246664,0.6026092927443347,-0.7080796520943009
1539732884578988,-0.3682307164110781,0.6018768596932933,-0.7086900129701688
1539732884594974,-0.36713206683451594,0.599679560540169,-0.7027084763866638
1539732884610960,-0.3646906233310445,0.5980926222629126,-0.6994125276569774
1539732884626946,-0.36334782940413524,0.5974822613870447,-0.7017318989852752
1539732884642932,-0.36334782940413524,0.5965056839856562,-0.7023422598611431
1539732884658918,-0.3663996337834745,0.5995574883649955,-0.6981918059052417
1539732884674903,-0.3667658503089952,0.5966277561608297,-0.7007553215838866
1539732884690889,-0.36798657206073093,0.5969939726863505,-0.7035629816128788
1539732884706875,-0.3703059433890288,0.5995574883649955,-0.7038071259632259
1539732884722861,-0.37128252079041735,0.600534065766384,-0.7052719920653088
1539732884738861,-0.3723811703669795,0.6010223544670783,-0.7057602807660031
1539732884754847,-0.37677576867322804,0.600534065766384,-0.7031967650873581
1539732884770833,-0.37958342870222017,0.6017547875181197,-0.7007553215838866
1539732884786819,-0.381902800030518,0.6001678492408633,-0.7011215381094074
1539732884802805,-0.37970550087739374,0.5989471274891276,-0.7013656824597545
1539732884818791,-0.37958342870222017,0.5987029831387805,-0.6988021667811095
1539732884834777,-0.38263523308155944,0.5978484779125655,-0.6958724345769438
1539732884850762,-0.38385595483329515,0.5950408178835733,-0.6968490119783324
1539732884866748,-0.3798275730525673,0.595407034409094,-0.6992904554818038
1539732884882734,-0.37665369649805447,0.5980926222629126,-0.7007553215838866
1539732884898720,-0.37470054169527733,0.5999237048905162,-0.7027084763866638
1539732884914706,-0.37164873731593806,0.6007782101167312,-0.7020981155107959
1539732884930692,-0.37213702601663234,0.6012664988174254,-0.7047837033646145
1539732884946678,-0.37250324254215306,0.6016327153429462,-0.7045395590142673
1539732884962664,-0.3744563973449302,0.6012664988174254,-0.7029526207370109
1539732884978650,-0.3734798199435416,0.5993133440146483,-0.7011215381094074
1539732884994636,-0.3720149538414588,0.600534065766384,-0.7034409094377052
1539732885010622,-0.37042801556420235,0.598825055313954,-0.7050278477149616
1539732885026608,-0.36957351033798735,0.597116044861524,-0.7036850537880524
1539732885042594,-0.37042801556420235,0.5978484779125655,-0.6973373006790267
1539732885058563,-0.37262531471732663,0.5974822613870447,-0.6985580224307624
1539732885074549,-0.3723811703669795,0.5965056839856562,-0.7003891050583659
1539732885090535,-0.3694514381628138,0.597970550087739,-0.7036850537880524
1539732885106521,-0.3705500877393759,0.6007782101167312,-0.7003891050583659
1539732885122507,-0.37555504692149233,0.6007782101167312,-0.6999008163576717
1539732885138493,-0.3723811703669795,0.5990691996643012,-0.7019760433356224
1539732885154479,-0.37164873731593806,0.6027313649195083,-0.7046616311894409
1539732885170465,-0.3722590981918059,0.6017547875181197,-0.7058823529411766
1539732885186451,-0.37421225299458305,0.6024872205691612,-0.7071030746929123
1539732885202437,-0.37421225299458305,0.603097581445029,-0.7056382085908295
1539732885218423,-0.37665369649805447,0.6017547875181197,-0.7040512703135731
1539732885234408,-0.3786068513008316,0.602243076218814,-0.7025864042114902
1539732885250394,-0.3806820782787823,0.599679560540169,-0.6999008163576717
1539732885266380,-0.37885099565117875,0.5987029831387805,-0.6988021667811095
1539732885282366,-0.37848477912565803,0.5998016327153426,-0.6977035172045474
1539732885298352,-0.3781185626001373,0.5978484779125655,-0.6986800946059359
1539732885314338,-0.3773861295490959,0.597116044861524,-0.6973373006790267
1539732885330324,-0.3748226138704509,0.5965056839856562,-0.7003891050583659
1539732885346310,-0.37543297474631876,0.5980926222629126,-0.6984359502555888
1539732885362296,-0.3756771190966659,0.5968719005111769,-0.6995345998321509
1539732885378296,-0.3736018921187152,0.5966277561608297,-0.7025864042114902
1539732885394281,-0.3693293659876402,0.5993133440146483,-0.7031967650873581
1539732885410267,-0.36957351033798735,0.6018768596932933,-0.7042954146639202
1539732885426253,-0.3693293659876402,0.6017547875181197,-0.7039291981383995
1539732885442239,-0.36957351033798735,0.6016327153429462,-0.7029526207370109
1539732885458225,-0.37177080949111163,0.6021210040436404,-0.7024643320363166
1539732885474211,-0.38422217135881587,0.5934538796063169,-0.6967269398031588
1539732885490197,-0.3765316243228809,0.603097581445029,-0.6977035172045474
1539732885506183,-0.3677424277103838,0.5991912718394747,-0.7052719920653088
1539732885522169,-0.3705500877393759,0.5967498283360033,-0.7078355077439538
1539732885538155,-0.37836270695048446,0.5987029831387805,-0.6970931563286795
1539732885554141,-0.3789730678263523,0.5983367666132597,-0.7003891050583659
1539732885570127,-0.3720149538414588,0.5990691996643012,-0.7020981155107959
1539732885586113,-0.36798657206073093,0.598825055313954,-0.7025864042114902
1539732885602099,-0.3710383764400702,0.5984588387884333,-0.7008773937590602
1539732885618085,-0.3714045929655909,0.5990691996643012,-0.6991683833066302
1539732885634071,-0.37164873731593806,0.5984588387884333,-0.7018539711604488
1539732885650057,-0.3723811703669795,0.5980926222629126,-0.7029526207370109
1539732885666043,-0.3734798199435416,0.5998016327153426,-0.7046616311894409
1539732885682029,-0.3761654077973602,0.5991912718394747,-0.7039291981383995
1539732885697998,-0.3761654077973602,0.6002899214160369,-0.7011215381094074
1539732885713984,-0.37665369649805447,0.6007782101167312,-0.7018539711604488
1539732885729970,-0.37555504692149233,0.5991912718394747,-0.7047837033646145
1539732885745956,-0.3732356755931945,0.5990691996643012,-0.7028305485618374
1539732885761942,-0.3753109025711452,0.5978484779125655,-0.7017318989852752
1539732885777928,-0.3739681086442359,0.5969939726863505,-0.7011215381094074
1539732885793913,-0.37042801556420235,0.5963836118104826,-0.7014877546349281
1539732885809899,-0.3672541390096895,0.5960173952849619,-0.7002670328831924
1539732885825885,-0.3659113450827802,0.597970550087739,-0.7017318989852752
1539732885841871,-0.3644464789806974,0.599679560540169,-0.7038071259632259
1539732885857857,-0.3643244068055238,0.5983367666132597,-0.7044174868390938
1539732885873843,-0.3610284580758374,0.6009002822919047,-0.7042954146639202
1539732885889829,-0.35956359197375454,0.600534065766384,-0.7067368581673916
1539732885905815,-0.36334782940413524,0.6012664988174254,-0.7078355077439538
1539732885921801,-0.3655451285572595,0.6026092927443347,-0.7063706416418709
1539732885937787,-0.3715266651407645,0.6006561379415576,-0.7080796520943009
1539732885953773,-0.3693293659876402,0.6010223544670783,-0.7079575799191273
1539732885969759,-0.3714045929655909,0.6011444266422519,-0.7040512703135731
1539732885985745,-0.3748226138704509,0.5994354161898219,-0.7023422598611431
1539732886001731,-0.3782406347753109,0.6002899214160369,-0.7029526207370109
1539732886017730,-0.3751888303959716,0.5984588387884333,-0.7011215381094074
1539732886033716,-0.3772640573739223,0.597970550087739,-0.6984359502555888
1539732886049702,-0.3806820782787823,0.5956511787594412,-0.6980697337300681
1539732886065688,-0.3794613565270466,0.594552529182879,-0.6991683833066302
1539732886081674,-0.3764095521477073,0.5946746013580526,-0.6999008163576717
1539732886097660,-0.3777523460746166,0.5951628900587469,-0.7036850537880524
1539732886113646,-0.3753109025711452,0.5982146944380862,-0.7029526207370109
1539732886129632,-0.37628747997253376,0.5980926222629126,-0.7023422598611431
1539732886145618,-0.3756771190966659,0.5998016327153426,-0.7016098268101016
1539732886161604,-0.3764095521477073,0.5995574883649955,-0.7030746929121845
1539732886177590,-0.3748226138704509,0.6004119935912104,-0.7047837033646145
1539732886193576,-0.37421225299458305,0.5994354161898219,-0.7040512703135731
1539732886209562,-0.37470054169527733,0.5994354161898219,-0.7038071259632259
1539732886225548,-0.3731136034180209,0.5987029831387805,-0.7053940642404823
1539732886241534,-0.3722590981918059,0.5961394674601355,-0.7071030746929123
1539732886257520,-0.37006179903868164,0.5960173952849619,-0.7028305485618374
1539732886273506,-0.36884107728694593,0.5968719005111769,-0.7024643320363166
1539732886289492,-0.3684748607614252,0.5966277561608297,-0.7025864042114902
1539732886305478,-0.3696955825131609,0.5983367666132597,-0.7039291981383995
1539732886321464,-0.3705500877393759,0.597970550087739,-0.7031967650873581
1539732886337432,-0.3727473868925002,0.5991912718394747,-0.7028305485618374
1539732886353418,-0.37470054169527733,0.5982146944380862,-0.7046616311894409
1539732886369404,-0.3727473868925002,0.5993133440146483,-0.7069810025177388
1539732886385390,-0.3701838712138552,0.6009002822919047,-0.7058823529411766
1539732886401376,-0.3696955825131609,0.5989471274891276,-0.7045395590142673
1539732886417362,-0.37091630426489663,0.5977264057373919,-0.7024643320363166
1539732886433348,-0.37006179903868164,0.5978484779125655,-0.7040512703135731
1539732886449334,-0.3698176546883345,0.597970550087739,-0.7072251468680859
1539732886465320,-0.3682307164110781,0.596261539635309,-0.7068589303425652
1539732886481306,-0.36835278858625164,0.5963836118104826,-0.7040512703135731
1539732886497292,-0.3696955825131609,0.5977264057373919,-0.7033188372625316
1539732886513278,-0.3711604486152438,0.596261539635309,-0.7027084763866638
1539732886529264,-0.36920729381246664,0.5978484779125655,-0.7030746929121845
1539732886545250,-0.36908522163729307,0.5972381170366976,-0.7039291981383995
1539732886561236,-0.36957351033798735,0.5994354161898219,-0.7049057755397881
1539732886577222,-0.3723811703669795,0.6001678492408633,-0.7053940642404823
1539732886593208,-0.3736018921187152,0.5998016327153426,-0.7064927138170445
1539732886609194,-0.37421225299458305,0.5987029831387805,-0.7062485694666973
1539732886625180,-0.3722590981918059,0.599679560540169,-0.7073472190432595
1539732886641166,-0.3718928816662852,0.5987029831387805,-0.7063706416418709
1539732886657165,-0.37079423208972306,0.600534065766384,-0.7028305485618374
1539732886673151,-0.37177080949111163,0.5995574883649955,-0.6988021667811095
1539732886689137,-0.3722590981918059,0.5985809109636069,-0.7028305485618374
1539732886705123,-0.36835278858625164,0.5947966735332262,-0.7068589303425652
1539732886721109,-0.37042801556420235,0.5947966735332262,-0.7077134355687802
1539732886737095,-0.37250324254215306,0.5961394674601355,-0.7056382085908295
1539732886753081,-0.37384603646906234,0.5965056839856562,-0.7022201876859695
1539732886769067,-0.3734798199435416,0.5974822613870447,-0.7022201876859695
1539732886785053,-0.37421225299458305,0.5985809109636069,-0.7039291981383995
1539732886801039,-0.37555504692149233,0.5976043335622183,-0.7075913633936066
1539732886817025,-0.3781185626001373,0.5989471274891276,-0.7077134355687802
1539732886833011,-0.37628747997253376,0.5987029831387805,-0.7079575799191273
1539732886848997,-0.3764095521477073,0.5989471274891276,-0.708323796444648
1539732886864983,-0.3768978408484016,0.5969939726863505,-0.7060044251163502
1539732886880969,-0.37555504692149233,0.5982146944380862,-0.7035629816128788
1539732886896955,-0.3723811703669795,0.5976043335622183,-0.7050278477149616
1539732886912941,-0.36957351033798735,0.5980926222629126,-0.7078355077439538
1539732886928927,-0.3656672007324331,0.5978484779125655,-0.7058823529411766
1539732886944913,-0.36615548943312737,0.597970550087739,-0.7018539711604488
1539732886960899,-0.36700999465934236,0.5972381170366976,-0.7012436102845809
1539732886976867,-0.3677424277103838,0.5950408178835733,-0.6997787441824981
1539732886992853,-0.3651789120317388,0.5956511787594412,-0.7006332494087131
1539732887008839,-0.36578927290760666,0.5958953231097883,-0.6981918059052417
1539732887024825,-0.3656672007324331,0.5947966735332262,-0.7020981155107959
1539732887040811,-0.3638361181048295,0.5963836118104826,-0.7042954146639202
1539732887056797,-0.36127260242618453,0.5952849622339205,-0.706614785992218
1539732887072783,-0.3618829633020524,0.5967498283360033,-0.7085679407949952
1539732887088769,-0.36163881895170524,0.5958953231097883,-0.7121080338750287
1539732887104755,-0.36627756160830094,0.5983367666132597,-0.713450827801938
1539732887120741,-0.37213702601663234,0.6023651483939876,-0.7058823529411766
1539732887136727,-0.37848477912565803,0.6012664988174254,-0.7051499198901352
1539732887152713,-0.3806820782787823,0.6015106431677726,-0.7073472190432595
1539732887168699,-0.381902800030518,0.5998016327153426,-0.7086900129701688
1539732887184685,-0.38141451132982374,0.5989471274891276,-0.7101548790722516
1539732887200671,-0.381048294804303,0.5977264057373919,-0.7075913633936066
1539732887216657,-0.37933928435187303,0.596261539635309,-0.7058823529411766
1539732887232643,-0.37543297474631876,0.5934538796063169,-0.7017318989852752
1539732887248629,-0.37506675822079805,0.5904020752269776,-0.7014877546349281
1539732887264615,-0.3731136034180209,0.5905241474021512,-0.6974593728542002
1539732887280601,-0.3740901808194095,0.5896696421759362,-0.6937972075989931
1539732887296600,-0.37677576867322804,0.5906462195773248,-0.692698558022431
1539732887312586,-0.381048294804303,0.5893034256504155,-0.6951400015259024
1539732887328572,-0.3820248722056916,0.5906462195773248,-0.6973373006790267
1539732887344558,-0.38507667658503086,0.5912565804531926,-0.7017318989852752
1539732887360544,-0.3839780270084687,0.5922331578545812,-0.7036850537880524
1539732887376530,-0.38348973830777444,0.5949187457083998,-0.7033188372625316
1539732887392516,-0.37848477912565803,0.5976043335622183,-0.7045395590142673
1539732887408502,-0.37592126344701304,0.5993133440146483,-0.7041733424887466
1539732887424488,-0.3760433356221866,0.5991912718394747,-0.7071030746929123
1539732887440474,-0.37384603646906234,0.601388570992599,-0.7017318989852752
1539732887456460,-0.3711604486152438,0.6011444266422519,-0.7072251468680859
1539732887472446,-0.3689631494621195,0.6001678492408633,-0.710887312123293
1539732887488432,-0.3703059433890288,0.598825055313954,-0.711741817349508
1539732887504418,-0.3685969329365988,0.5978484779125655,-0.7124742504005495
1539732887520403,-0.36993972686350807,0.5985809109636069,-0.7105210955977723
1539732887536389,-0.36993972686350807,0.5987029831387805,-0.7099107347219045
1539732887552375,-0.37164873731593806,0.5968719005111769,-0.7086900129701688
1539732887568361,-0.3731136034180209,0.5956511787594412,-0.7047837033646145
1539732887584347,-0.37555504692149233,0.5977264057373919,-0.7028305485618374
1539732887600333,-0.37799649042496375,0.5932097352559698,-0.6974593728542002
1539732887616302,-0.3787289234760052,0.5923552300297548,-0.7002670328831924
1539732887632288,-0.38007171740291446,0.5921110856794076,-0.6981918059052417
1539732887648274,-0.380193789578088,0.5912565804531926,-0.7000228885328452
1539732887664260,-0.38007171740291446,0.5915007248035398,-0.7014877546349281
1539732887680246,-0.38092622262912945,0.5952849622339205,-0.7009994659342338
1539732887696232,-0.3789730678263523,0.5952849622339205,-0.7001449607080188
1539732887712218,-0.3823910887312123,0.594552529182879,-0.7020981155107959
1539732887728204,-0.38300144960708016,0.5956511787594412,-0.7018539711604488
1539732887744190,-0.3811703669794766,0.5982146944380862,-0.7041733424887466
1539732887760176,-0.382757305256733,0.596261539635309,-0.7045395590142673
1539732887776162,-0.384466315709163,0.5968719005111769,-0.7049057755397881
1539732887792148,-0.3808041504539559,0.5961394674601355,-0.7055161364156559
1539732887808134,-0.38007171740291446,0.597116044861524,-0.7041733424887466
1539732887824120,-0.3789730678263523,0.5935759517814905,-0.7082017242694745
1539732887840106,-0.37506675822079805,0.593698023956664,-0.7052719920653088
1539732887856092,-0.3772640573739223,0.5952849622339205,-0.6999008163576717
1539732887872078,-0.3789730678263523,0.594552529182879,-0.6985580224307624
1539732887888064,-0.37750820172426947,0.5939421683070112,-0.7003891050583659
1539732887904049,-0.3731136034180209,0.5949187457083998,-0.7003891050583659
1539732887920035,-0.36786449988555736,0.5929655909056226,-0.7067368581673916
1539732887936035,-0.3659113450827802,0.5939421683070112,-0.7090562294956895
1539732887952021,-0.36664377813382165,0.5958953231097883,-0.7058823529411766
1539732887968007,-0.36884107728694593,0.5967498283360033,-0.7028305485618374
1539732887983993,-0.3720149538414588,0.5973601892118712,-0.7029526207370109
1539732887999979,-0.37213702601663234,0.597970550087739,-0.7061264972915238
1539732888015965,-0.3703059433890288,0.597970550087739,-0.708323796444648
1539732888031951,-0.3715266651407645,0.5982146944380862,-0.7082017242694745
1539732888047937,-0.37372396429388877,0.595407034409094,-0.7101548790722516
1539732888063923,-0.3749446860456245,0.5958953231097883,-0.7080796520943009
1539732888079908,-0.37421225299458305,0.5955291065842676,-0.7063706416418709
1539732888095894,-0.3761654077973602,0.5965056839856562,-0.7049057755397881
1539732888111880,-0.37665369649805447,0.5966277561608297,-0.7036850537880524
1539732888127866,-0.37714198519874875,0.5967498283360033,-0.7013656824597545
1539732888143852,-0.3760433356221866,0.597116044861524,-0.7007553215838866
1539732888159838,-0.37506675822079805,0.5958953231097883,-0.7016098268101016
1539732888175824,-0.3760433356221866,0.596261539635309,-0.7053940642404823
1539732888191810,-0.3715266651407645,0.5943083848325319,-0.7067368581673916
1539732888207796,-0.37384603646906234,0.5943083848325319,-0.7062485694666973
1539732888223782,-0.3731136034180209,0.5933318074311433,-0.7050278477149616
1539732888239768,-0.3736018921187152,0.5947966735332262,-0.7039291981383995
1539732888255737,-0.3731136034180209,0.595407034409094,-0.7029526207370109
1539732888271723,-0.3718928816662852,0.5951628900587469,-0.7022201876859695
1539732888287709,-0.3694514381628138,0.5933318074311433,-0.7064927138170445
1539732888303695,-0.3663996337834745,0.5940642404821848,-0.7086900129701688
1539732888319681,-0.3681086442359045,0.5943083848325319,-0.7093003738460366
1539732888335667,-0.3711604486152438,0.5961394674601355,-0.7050278477149616
1539732888351653,-0.37128252079041735,0.5947966735332262,-0.7093003738460366
1539732888367639,-0.37177080949111163,0.5952849622339205,-0.7106431677729459
1539732888383625,-0.3710383764400702,0.597116044861524,-0.710032806897078
1539732888399611,-0.37286945906767377,0.5983367666132597,-0.7088120851453423
1539732888415597,-0.3749446860456245,0.5982146944380862,-0.7071030746929123
1539732888431583,-0.3760433356221866,0.5993133440146483,-0.7058823529411766
1539732888447569,-0.3773861295490959,0.5963836118104826,-0.7056382085908295
1539732888463554,-0.3799496452277409,0.5932097352559698,-0.7052719920653088
1539732888479540,-0.3744563973449302,0.5961394674601355,-0.7050278477149616
1539732888495526,-0.37286945906767377,0.5917448691538869,-0.7040512703135731
1539732888511512,-0.37555504692149233,0.5900358587014569,-0.7013656824597545
1539732888527498,-0.37921721217669946,0.5897917143511098,-0.6992904554818038
1539732888543484,-0.37677576867322804,0.5894254978255891,-0.7007553215838866
1539732888559470,-0.37457846952010376,0.5918669413290605,-0.7038071259632259
1539732888575470,-0.3705500877393759,0.5940642404821848,-0.7030746929121845
1539732888591456,-0.36993972686350807,0.5969939726863505,-0.7077134355687802
1539732888607442,-0.3685969329365988,0.5965056839856562,-0.7078355077439538
1539732888623427,-0.3651789120317388,0.5972381170366976,-0.7085679407949952
1539732888639413,-0.3656672007324331,0.5956511787594412,-0.7116197451743345
1539732888655399,-0.3618829633020524,0.5969939726863505,-0.7123521782253759
1539732888671385,-0.36237125200274667,0.5977264057373919,-0.7103990234225988
1539732888687371,-0.36408026245517666,0.5978484779125655,-0.709178301670863
1539732888703357,-0.36542305638208594,0.5961394674601355,-0.7071030746929123
1539732888719343,-0.3665217059586481,0.595407034409094,-0.7053940642404823
1539732888735329,-0.3677424277103838,0.5952849622339205,-0.7028305485618374
1539732888751315,-0.3693293659876402,0.594552529182879,-0.7041733424887466
1539732888767301,-0.3701838712138552,0.593698023956664,-0.7067368581673916
1539732888783287,-0.36884107728694593,0.5967498283360033,-0.7057602807660031
1539732888799273,-0.37164873731593806,0.5974822613870447,-0.7035629816128788
1539732888815259,-0.3711604486152438,0.5946746013580526,-0.7047837033646145
1539732888831245,-0.3711604486152438,0.5974822613870447,-0.7096665903715573
1539732888847231,-0.37128252079041735,0.5974822613870447,-0.709178301670863
1539732888863217,-0.3720149538414588,0.5956511787594412,-0.7111314564736402
1539732888879203,-0.37091630426489663,0.5969939726863505,-0.7061264972915238
1539732888895172,-0.37384603646906234,0.5974822613870447,-0.7063706416418709
1539732888911158,-0.3744563973449302,0.5969939726863505,-0.7033188372625316
1539732888927144,-0.37262531471732663,0.5956511787594412,-0.7023422598611431
1539732888943130,-0.37091630426489663,0.5958953231097883,-0.7009994659342338
1539732888959116,-0.37164873731593806,0.5940642404821848,-0.7052719920653088
1539732888975102,-0.3734798199435416,0.5941863126573583,-0.7061264972915238
1539732888991088,-0.37372396429388877,0.5935759517814905,-0.7068589303425652
1539732889007074,-0.37421225299458305,0.5933318074311433,-0.7046616311894409
1539732889023059,-0.3753109025711452,0.5950408178835733,-0.7045395590142673
1539732889039045,-0.37750820172426947,0.596261539635309,-0.7053940642404823
1539732889055031,-0.3794613565270466,0.5972381170366976,-0.7058823529411766
1539732889071017,-0.37933928435187303,0.597970550087739,-0.7062485694666973
1539732889087003,-0.38056000610360874,0.5995574883649955,-0.7085679407949952
1539732889102989,-0.3806820782787823,0.5987029831387805,-0.7080796520943009
1539732889118975,-0.3790951400015259,0.5980926222629126,-0.7078355077439538
1539732889134961,-0.37555504692149233,0.5976043335622183,-0.7069810025177388
1539732889150947,-0.3720149538414588,0.5972381170366976,-0.7089341573205159
1539732889166933,-0.3720149538414588,0.5957732509346148,-0.707469291218433
1539732889182919,-0.3714045929655909,0.5958953231097883,-0.7045395590142673
1539732889198905,-0.36786449988555736,0.5960173952849619,-0.7025864042114902
1539732889214904,-0.36493476768139166,0.5941863126573583,-0.7033188372625316
1539732889230890,-0.3618829633020524,0.5924773022049283,-0.7044174868390938
1539732889246876,-0.3600518806744488,0.591989013504234,-0.7027084763866638
1539732889262862,-0.36322575722896167,0.5946746013580526,-0.7019760433356224
1539732889278848,-0.36505683985656523,0.5944304570077055,-0.7033188372625316
1539732889294834,-0.36505683985656523,0.5955291065842676,-0.7071030746929123
1539732889310820,-0.36542305638208594,0.5985809109636069,-0.7078355077439538
1539732889326806,-0.3714045929655909,0.5995574883649955,-0.7103990234225988
1539732889342792,-0.3756771190966659,0.5999237048905162,-0.7102769512474252
1539732889358778,-0.3764095521477073,0.6002899214160369,-0.708323796444648
1539732889374764,-0.3811703669794766,0.5995574883649955,-0.7075913633936066
1539732889390750,-0.3820248722056916,0.5994354161898219,-0.7085679407949952
1539732889406736,-0.37921721217669946,0.5990691996643012,-0.7094224460212102
1539732889422722,-0.3770199130235752,0.5963836118104826,-0.7063706416418709
1539732889438708,-0.37665369649805447,0.5955291065842676,-0.7025864042114902
1539732889454694,-0.3770199130235752,0.5924773022049283,-0.7017318989852752
1539732889470680,-0.37763027389944304,0.5908903639276719,-0.6999008163576717
1539732889486666,-0.37421225299458305,0.5908903639276719,-0.7000228885328452
1539732889502652,-0.3739681086442359,0.5910124361028455,-0.7000228885328452
1539732889518638,-0.37042801556420235,0.5925993743801019,-0.7003891050583659
1539732889534637,-0.36786449988555736,0.591989013504234,-0.7050278477149616
1539732889550623,-0.3656672007324331,0.5955291065842676,-0.7047837033646145
1539732889566609,-0.3659113450827802,0.5974822613870447,-0.7055161364156559
1539732889582595,-0.3613946746013581,0.5957732509346148,-0.7101548790722516
1539732889598581,-0.3579766536964981,0.5991912718394747,-0.712596322575723
1539732889614567,-0.35822079804684526,0.5985809109636069,-0.7128404669260702
1539732889630553,-0.3591973754482338,0.5990691996643012,-0.7141832608529795
1539732889646539,-0.36041809719996953,0.5994354161898219,-0.7122301060502023
1539732889662525,-0.36200503547722596,0.6010223544670783,-0.7085679407949952
1539732889678511,-0.3656672007324331,0.5999237048905162,-0.7121080338750287
1539732889694497,-0.3627374685282674,0.6002899214160369,-0.7135728999771116
1539732889710483,-0.3638361181048295,0.598825055313954,-0.710032806897078
1539732889726469,-0.3693293659876402,0.5998016327153426,-0.7077134355687802
1539732889742455,-0.3772640573739223,0.5960173952849619,-0.7033188372625316
1539732889758441,-0.37885099565117875,0.5946746013580526,-0.7019760433356224
1539732889774427,-0.3811703669794766,0.5935759517814905,-0.6986800946059359
1539732889790413,-0.3825131609063859,0.5918669413290605,-0.6975814450293738
1539732889806398,-0.3877622644388494,0.5886930647745476,-0.7001449607080188
1539732889822384,-0.3892271305409323,0.5894254978255891,-0.6985580224307624
1539732889838370,-0.3891050583657587,0.5899137865262833,-0.6959945067521174
1539732889854339,-0.388738841840238,0.5918669413290605,-0.6979476615548945
1539732889870325,-0.3875181200885023,0.593698023956664,-0.7019760433356224
1539732889886311,-0.3823910887312123,0.5965056839856562,-0.7031967650873581
1539732889902297,-0.3858091096360723,0.5978484779125655,-0.7014877546349281
1539732889918283,-0.3849546044098573,0.5961394674601355,-0.7030746929121845
1539732889934269,-0.3845883878843366,0.5944304570077055,-0.708323796444648
1539732889950255,-0.37958342870222017,0.5935759517814905,-0.7060044251163502
1539732889966241,-0.37543297474631876,0.5963836118104826,-0.7030746929121845
1539732889982227,-0.37470054169527733,0.594552529182879,-0.7036850537880524
1539732889998213,-0.3761654077973602,0.5961394674601355,-0.7031967650873581
1539732890014199,-0.3768978408484016,0.5952849622339205,-0.7023422598611431
1539732890030185,-0.3778744182497902,0.5963836118104826,-0.7034409094377052
1539732890046171,-0.3777523460746166,0.5940642404821848,-0.7033188372625316
1539732890062157,-0.37628747997253376,0.5950408178835733,-0.7056382085908295
1539732890078143,-0.37457846952010376,0.595407034409094,-0.7041733424887466
1539732890094129,-0.37470054169527733,0.5944304570077055,-0.7044174868390938
1539732890110115,-0.37335774776836805,0.5951628900587469,-0.7057602807660031
1539732890126101,-0.37335774776836805,0.5961394674601355,-0.7064927138170445
1539732890142087,-0.3722590981918059,0.5957732509346148,-0.7046616311894409
1539732890158073,-0.36871900511177236,0.5958953231097883,-0.7047837033646145
1539732890174072,-0.36798657206073093,0.5952849622339205,-0.7045395590142673
1539732890190058,-0.36664377813382165,0.595407034409094,-0.7017318989852752
1539732890206044,-0.36993972686350807,0.5952849622339205,-0.7028305485618374
1539732890222030,-0.3710383764400702,0.5935759517814905,-0.7051499198901352
1539732890238016,-0.3722590981918059,0.5913786526283662,-0.7073472190432595
1539732890254002,-0.3740901808194095,0.5943083848325319,-0.7045395590142673
1539732890269988,-0.37799649042496375,0.5963836118104826,-0.7003891050583659
1539732890285974,-0.38263523308155944,0.5952849622339205,-0.7023422598611431
1539732890301960,-0.3845883878843366,0.5955291065842676,-0.7012436102845809
1539732890317946,-0.38519874876020443,0.5973601892118712,-0.7028305485618374
1539732890333932,-0.38434424353398944,0.5980926222629126,-0.7045395590142673
1539732890349918,-0.37763027389944304,0.597116044861524,-0.7073472190432595
1539732890365903,-0.37677576867322804,0.5972381170366976,-0.7082017242694745
1539732890381889,-0.3765316243228809,0.5968719005111769,-0.7062485694666973
1539732890397875,-0.37592126344701304,0.5955291065842676,-0.7029526207370109
1539732890413861,-0.37677576867322804,0.5952849622339205,-0.7031967650873581
1539732890429847,-0.37286945906767377,0.5957732509346148,-0.7028305485618374
1539732890445833,-0.37506675822079805,0.5941863126573583,-0.7025864042114902
1539732890461819,-0.3778744182497902,0.5957732509346148,-0.7011215381094074
1539732890477805,-0.3786068513008316,0.5947966735332262,-0.6984359502555888
1539732890493774,-0.38043793392843517,0.5951628900587469,-0.7014877546349281
1539732890509760,-0.3789730678263523,0.5946746013580526,-0.7006332494087131
1539732890525746,-0.3799496452277409,0.594552529182879,-0.7025864042114902
1539732890541732,-0.37763027389944304,0.5957732509346148,-0.7014877546349281
1539732890557718,-0.37763027389944304,0.5949187457083998,-0.7007553215838866
1539732890573704,-0.3781185626001373,0.5951628900587469,-0.7030746929121845
1539732890589690,-0.37543297474631876,0.5951628900587469,-0.7040512703135731
1539732890605676,-0.3744563973449302,0.5966277561608297,-0.7046616311894409
1539732890621662,-0.37457846952010376,0.5961394674601355,-0.7057602807660031
1539732890637648,-0.37372396429388877,0.595407034409094,-0.7040512703135731
1539732890653634,-0.3764095521477073,0.5965056839856562,-0.7049057755397881
1539732890669620,-0.37628747997253376,0.597970550087739,-0.7027084763866638
1539732890685606,-0.38043793392843517,0.5972381170366976,-0.7014877546349281
1539732890701592,-0.38300144960708016,0.5955291065842676,-0.7003891050583659
1539732890717578,-0.38226901655603873,0.5955291065842676,-0.7031967650873581
1539732890733564,-0.38434424353398944,0.5960173952849619,-0.7033188372625316
1539732890749549,-0.38849469748989085,0.5965056839856562,-0.6988021667811095
1539732890765535,-0.39056992446784156,0.5963836118104826,-0.7001449607080188
1539732890781521,-0.3848325322346837,0.5946746013580526,-0.7007553215838866
1539732890797507,-0.38056000610360874,0.5951628900587469,-0.7030746929121845
1539732890813507,-0.3778744182497902,0.597970550087739,-0.7009994659342338
1539732890829493,-0.3753109025711452,0.596261539635309,-0.7031967650873581
1539732890845479,-0.3696955825131609,0.5967498283360033,-0.7045395590142673
1539732890861465,-0.36871900511177236,0.5974822613870447,-0.7062485694666973
1539732890877451,-0.36749828336003665,0.598825055313954,-0.7049057755397881
1539732890893437,-0.3681086442359045,0.5967498283360033,-0.7075913633936066
1539732890909422,-0.3677424277103838,0.5973601892118712,-0.706614785992218
1539732890925408,-0.36957351033798735,0.5990691996643012,-0.7046616311894409
1539732890941394,-0.3722590981918059,0.5984588387884333,-0.7019760433356224
1539732890957380,-0.37543297474631876,0.5967498283360033,-0.7033188372625316
1539732890973366,-0.3790951400015259,0.5976043335622183,-0.6974593728542002
1539732890989352,-0.38092622262912945,0.5973601892118712,-0.6975814450293738
1539732891005338,-0.3777523460746166,0.5966277561608297,-0.7001449607080188
