Timestamp (microseconds),Gyro X (°/s),Gyro Y (°/s),Gyro Z (°/s)
1539732865874786,-1.3733119707026162,0.6408789196611906,-0.7629510948347615
1539732865890782,-1.2512397955290453,0.45777065690094787,-0.7629510948347615
1539732865906779,-0.9460593575952316,0.33569848172737693,-0.7629510948347615
1539732865922775,-0.6408789196611906,0.33569848172737693,-0.8239871824216607
1539732865938772,-0.5188067444876197,0.45777065690094787,-1.1291676203554744
1539732865954768,-0.5188067444876197,0.5798428320745188,-1.3733119707026162
1539732865970765,-0.5188067444876197,0.5798428320745188,-1.4343480582895154
1539732865986761,-0.2746623941404778,0.5188067444876197,-1.3733119707026162
1539732866002758,0.03051804379333589,0.5188067444876197,-1.3733119707026162
1539732866018754,0.213626306553806,0.5188067444876197,-1.3733119707026162
1539732866034751,0.2746623941404778,0.5798428320745188,-1.4953841458761872
1539732866050747,0.213626306553806,0.5798428320745188,-1.4343480582895154
1539732866066743,0.15259021896690683,0.5798428320745188,-1.3122758831159445
1539732866082740,-0.09155413138023505,0.33569848172737693,-1.0070954451819034
1539732866098736,-0.2746623941404778,-0.03051804379333589,-1.0681315327688026
1539732866114733,-0.33569848172737693,-0.15259021896690683,-1.3733119707026162
1539732866130729,-0.5188067444876197,-0.45777065690094787,-1.3122758831159445
1539732866146726,-0.7629510948347615,-0.6408789196611906,-0.9460593575952316
1539732866162722,-0.8850232700083325,-0.7019150072480898,-0.5798428320745188
1539732866178719,-0.9460593575952316,-0.8239871824216607,-0.33569848172737693
1539732866194702,-0.8239871824216607,-0.7629510948347615,-0.213626306553806
1539732866210698,-0.6408789196611906,-0.7019150072480898,-0.213626306553806
1539732866226695,-0.2746623941404778,-0.6408789196611906,-0.45777065690094787
1539732866242691,0.03051804379333589,-0.45777065690094787,-0.5798428320745188
1539732866258688,0.3967345693140487,-0.2746623941404778,-0.6408789196611906
1539732866274684,0.5188067444876197,-0.213626306553806,-0.8239871824216607
1539732866290681,0.3967345693140487,0.03051804379333589,-1.0681315327688026
1539732866306677,0.15259021896690683,0.213626306553806,-1.0681315327688026
1539732866322673,-0.09155413138023505,0.213626306553806,-0.9460593575952316
1539732866338670,-0.09155413138023505,0.33569848172737693,-0.7019150072480898
1539732866354666,-0.2746623941404778,0.5188067444876197,-0.7019150072480898
1539732866370663,-0.6408789196611906,0.3967345693140487,-1.0070954451819034
1539732866386659,-0.8239871824216607,0.5798428320745188,-1.3122758831159445
1539732866402656,-0.6408789196611906,0.6408789196611906,-1.2512397955290453
1539732866418652,-0.33569848172737693,0.9460593575952316,-1.0681315327688026
1539732866434649,-0.2746623941404778,1.0681315327688026,-1.1902037079423735
1539732866450645,-0.2746623941404778,0.8850232700083325,-1.5564202334630863
1539732866466642,-0.15259021896690683,0.8239871824216607,-1.8616006713969
1539732866482638,-0.03051804379333589,0.9460593575952316,-1.739528496223329
1539732866498634,-0.03051804379333589,1.0070954451819034,-1.4343480582895154
1539732866514618,-0.03051804379333589,0.9460593575952316,-1.1291676203554744
1539732866530614,0.03051804379333589,0.7629510948347615,-1.0681315327688026
1539732866546610,-0.15259021896690683,0.5188067444876197,-1.0681315327688026
1539732866562607,-0.33569848172737693,0.5188067444876197,-1.1291676203554744
1539732866578603,-0.45777065690094787,0.3967345693140487,-1.1291676203554744
1539732866594600,-0.33569848172737693,0.213626306553806,-1.1902037079423735
1539732866610596,-0.2746623941404778,0.15259021896690683,-1.1291676203554744
1539732866626593,-0.213626306553806,0.09155413138023505,-1.1291676203554744
1539732866642589,-0.15259021896690683,-0.03051804379333589,-1.1291676203554744
1539732866658586,-0.15259021896690683,-0.15259021896690683,-0.9460593575952316
1539732866674582,-0.03051804379333589,-0.03051804379333589,-0.6408789196611906
1539732866690579,0.15259021896690683,0.03051804379333589,-0.3967345693140487
1539732866706575,0.15259021896690683,-0.09155413138023505,-0.3967345693140487
1539732866722571,0.2746623941404778,-0.3967345693140487,-0.5798428320745188
1539732866738568,0.45777065690094787,-0.3967345693140487,-0.5798428320745188
1539732866754564,0.45777065690094787,-0.33569848172737693,-0.33569848172737693
1539732866770561,0.33569848172737693,-0.213626306553806,-0.2746623941404778
1539732866786557,0.213626306553806,-0.2746623941404778,-0.45777065690094787
1539732866802554,0.213626306553806,-0.2746623941404778,-0.7629510948347615
1539732866818550,0.15259021896690683,-0.2746623941404778,-0.7629510948347615
1539732866834503,0.03051804379333589,-0.09155413138023505,-0.8850232700083325
1539732866850499,-0.15259021896690683,0.09155413138023505,-0.8850232700083325
1539732866866495,-0.33569848172737693,0.2746623941404778,-0.9460593575952316
1539732866882491,-0.3967345693140487,0.45777065690094787,-1.0681315327688026
1539732866898487,-0.33569848172737693,0.5188067444876197,-1.2512397955290453
1539732866914483,-0.33569848172737693,0.6408789196611906,-1.5564202334630863
1539732866930479,-0.3967345693140487,0.8239871824216607,-1.739528496223329
1539732866946475,-0.2746623941404778,0.8239871824216607,-1.6784924086366573
1539732866962471,-0.09155413138023505,0.8850232700083325,-1.4953841458761872
1539732866978467,0.09155413138023505,0.7629510948347615,-1.3122758831159445
1539732866994463,0.15259021896690683,1.0070954451819034,-1.1291676203554744
1539732867010459,-0.09155413138023505,1.1902037079423735,-0.9460593575952316
1539732867026455,-0.213626306553806,0.8239871824216607,-0.8850232700083325
1539732867042451,-0.3967345693140487,0.5798428320745188,-1.1902037079423735
1539732867058447,-0.6408789196611906,0.45777065690094787,-1.2512397955290453
1539732867074442,-0.7629510948347615,0.213626306553806,-1.1902037079423735
1539732867090438,-0.8239871824216607,0.03051804379333589,-1.2512397955290453
1539732867106434,-0.9460593575952316,0.09155413138023505,-1.2512397955290453
1539732867122430,-1.0070954451819034,0.2746623941404778,-1.1291676203554744
1539732867138426,-0.8239871824216607,0.3967345693140487,-1.1291676203554744
1539732867154205,-0.6408789196611906,0.3967345693140487,-1.2512397955290453
1539732867170200,-0.15259021896690683,0.5798428320745188,-1.1902037079423735
1539732867186196,0.6408789196611906,0.8239871824216607,-1.0681315327688026
1539732867202191,1.3122758831159445,0.9460593575952316,-1.0070954451819034
1539732867218187,1.5564202334630863,0.9460593575952316,-0.9460593575952316
1539732867234182,1.4343480582895154,0.9460593575952316,-1.0681315327688026
1539732867250178,1.1902037079423735,0.8239871824216607,-1.3733119707026162
1539732867266173,0.7019150072480898,0.6408789196611906,-1.5564202334630863
1539732867282169,-0.03051804379333589,0.33569848172737693,-1.6174563210497581
1539732867298164,-0.7019150072480898,0.09155413138023505,-1.2512397955290453
1539732867314160,-1.0681315327688026,-0.03051804379333589,-0.8850232700083325
1539732867330155,-1.2512397955290453,-0.213626306553806,-0.6408789196611906
1539732867346151,-1.0681315327688026,-0.2746623941404778,-0.3967345693140487
1539732867362146,-0.5798428320745188,-0.33569848172737693,-0.213626306553806
1539732867378142,0.09155413138023505,-0.213626306553806,-0.09155413138023505
1539732867394137,0.8850232700083325,-0.2746623941404778,-0.09155413138023505
1539732867410133,1.4343480582895154,-0.09155413138023505,0.03051804379333589
1539732867426128,1.4343480582895154,0.09155413138023505,0.03051804379333589
1539732867442124,1.2512397955290453,0.15259021896690683,-0.03051804379333589
1539732867458119,0.8239871824216607,0.213626306553806,-0.15259021896690683
1539732867473968,0.33569848172737693,0.15259021896690683,-0.33569848172737693
1539732867489963,-0.2746623941404778,0.09155413138023505,-0.5798428320745188
1539732867505957,-0.6408789196611906,0.03051804379333589,-0.7019150072480898
1539732867521952,-0.8850232700083325,0.33569848172737693,-0.7019150072480898
1539732867537946,-1.0070954451819034,0.5188067444876197,-0.5798428320745188
1539732867553941,-0.7629510948347615,0.5188067444876197,-0.5188067444876197
1539732867569935,-0.3967345693140487,0.5188067444876197,-0.3967345693140487
1539732867585930,-0.213626306553806,0.45777065690094787,-0.33569848172737693
1539732867601925,-0.09155413138023505,0.5188067444876197,-0.3967345693140487
1539732867617919,0.03051804379333589,0.5798428320745188,-0.33569848172737693
1539732867633914,0.15259021896690683,0.5798428320745188,-0.213626306553806
1539732867649908,0.33569848172737693,0.9460593575952316,-0.33569848172737693
1539732867665903,0.33569848172737693,1.0681315327688026,-0.5798428320745188
1539732867681897,0.213626306553806,1.1291676203554744,-0.9460593575952316
1539732867697892,-0.03051804379333589,1.1902037079423735,-1.3733119707026162
1539732867713886,-0.3967345693140487,1.3733119707026162,-1.6174563210497581
1539732867729881,-0.8850232700083325,1.6784924086366573,-1.6784924086366573
1539732867745875,-1.3733119707026162,1.8005645838102282,-1.8005645838102282
1539732867761870,-1.6174563210497581,1.9226367589837992,-1.8616006713969
1539732867777865,-1.4953841458761872,1.983672846570471,-1.8005645838102282
1539732867793701,-0.8239871824216607,2.04470893415737,-1.739528496223329
1539732867809695,0.03051804379333589,1.983672846570471,-1.5564202334630863
1539732867825689,0.8850232700083325,1.8616006713969,-1.1291676203554744
1539732867841683,1.5564202334630863,1.9226367589837992,-0.45777065690094787
1539732867857677,1.6784924086366573,1.6784924086366573,-0.03051804379333589
1539732867873671,1.4953841458761872,1.1902037079423735,-0.03051804379333589
1539732867889665,1.1291676203554744,0.9460593575952316,-0.03051804379333589
1539732867905659,0.8239871824216607,0.7629510948347615,0.213626306553806
1539732867921653,0.45777065690094787,0.5188067444876197,0.3967345693140487
1539732867937647,0.213626306553806,0.2746623941404778,0.2746623941404778
1539732867953642,0.03051804379333589,0.213626306553806,0.213626306553806
1539732867969636,-0.213626306553806,0.2746623941404778,0.09155413138023505
1539732867985630,-0.33569848172737693,0.33569848172737693,-0.213626306553806
1539732868001624,-0.2746623941404778,0.3967345693140487,-0.5188067444876197
1539732868017618,-0.09155413138023505,0.5188067444876197,-0.7019150072480898
1539732868033612,0.15259021896690683,0.8850232700083325,-0.6408789196611906
1539732868049606,0.15259021896690683,1.0681315327688026,-0.3967345693140487
1539732868065600,-0.09155413138023505,1.0681315327688026,-0.45777065690094787
1539732868081594,-0.3967345693140487,0.9460593575952316,-0.6408789196611906
1539732868097588,-0.5188067444876197,0.6408789196611906,-0.7019150072480898
1539732868113433,-0.7019150072480898,0.5798428320745188,-0.8239871824216607
1539732868129427,-1.1902037079423735,0.7629510948347615,-0.8850232700083325
1539732868145421,-1.4953841458761872,0.9460593575952316,-1.0070954451819034
1539732868161414,-1.5564202334630863,1.0070954451819034,-1.1902037079423735
1539732868177408,-1.3733119707026162,1.0070954451819034,-1.3733119707026162
1539732868193401,-0.8239871824216607,1.1902037079423735,-1.4953841458761872
1539732868209395,-0.213626306553806,1.6174563210497581,-1.4953841458761872
1539732868225389,0.15259021896690683,1.739528496223329,-1.3122758831159445
1539732868241382,0.8239871824216607,1.983672846570471,-0.8850232700083325
1539732868257376,1.6174563210497581,1.8005645838102282,-0.45777065690094787
1539732868273369,1.983672846570471,1.4343480582895154,-0.45777065690094787
1539732868289363,2.105745021744042,1.4953841458761872,-0.09155413138023505
1539732868305357,2.410925459678083,1.4343480582895154,0.5798428320745188
1539732868321350,2.4719615472647547,1.1291676203554744,0.8239871824216607
1539732868337344,1.8005645838102282,0.8239871824216607,0.8850232700083325
1539732868353337,1.2512397955290453,0.5798428320745188,0.7019150072480898
1539732868369331,0.5798428320745188,0.2746623941404778,0.09155413138023505
1539732868385325,-0.33569848172737693,0.15259021896690683,-0.5188067444876197
1539732868401318,-1.1902037079423735,-0.09155413138023505,-1.0070954451819034
1539732868417312,-1.8005645838102282,0.03051804379333589,-1.4343480582895154
1539732868433136,-1.8616006713969,0.33569848172737693,-1.2512397955290453
1539732868449128,-1.4953841458761872,0.45777065690094787,-1.3733119707026162
1539732868465121,-1.1902037079423735,0.5188067444876197,-1.739528496223329
1539732868481114,-0.8850232700083325,0.6408789196611906,-1.9226367589837992
1539732868497106,-0.45777065690094787,0.9460593575952316,-1.983672846570471
1539732868513099,0.03051804379333589,1.0681315327688026,-1.8616006713969
1539732868529091,0.213626306553806,1.0681315327688026,-1.5564202334630863
1539732868545084,-0.15259021896690683,1.0070954451819034,-1.1902037079423735
1539732868561077,-0.7629510948347615,0.8850232700083325,-1.0681315327688026
1539732868577069,-1.1902037079423735,0.7019150072480898,-1.1291676203554744
1539732868593062,-1.1291676203554744,0.6408789196611906,-1.1291676203554744
1539732868609055,-0.8239871824216607,0.8239871824216607,-0.9460593575952316
1539732868625047,-0.5798428320745188,1.0681315327688026,-0.7019150072480898
1539732868641040,-0.2746623941404778,1.1902037079423735,-0.6408789196611906
1539732868657033,0.45777065690094787,1.3733119707026162,-0.7019150072480898
1539732868673025,1.3122758831159445,1.3733119707026162,-0.7019150072480898
1539732868689018,1.9226367589837992,1.4953841458761872,-0.5188067444876197
1539732868705011,1.983672846570471,1.3733119707026162,-0.3967345693140487
1539732868721003,1.983672846570471,0.9460593575952316,-0.15259021896690683
1539732868736996,2.105745021744042,0.9460593575952316,0.15259021896690683
1539732868752838,1.8005645838102282,0.6408789196611906,0.09155413138023505
1539732868768830,1.0681315327688026,0.09155413138023505,-0.3967345693140487
1539732868784822,0.2746623941404778,-0.2746623941404778,-0.8850232700083325
1539732868800814,-0.2746623941404778,-0.45777065690094787,-0.9460593575952316
1539732868816806,-0.7019150072480898,-0.5188067444876197,-0.8850232700083325
1539732868832799,-1.0681315327688026,-0.5798428320745188,-0.8850232700083325
1539732868848791,-1.3122758831159445,-0.7629510948347615,-1.3122758831159445
1539732868864783,-1.4343480582895154,-0.7629510948347615,-1.6784924086366573
1539732868880775,-1.4343480582895154,-0.6408789196611906,-1.6784924086366573
1539732868896767,-1.1291676203554744,-0.6408789196611906,-1.5564202334630863
1539732868912759,-0.8239871824216607,-0.5798428320745188,-1.4343480582895154
1539732868928752,-0.213626306553806,-0.33569848172737693,-1.2512397955290453
1539732868944744,0.15259021896690683,-0.15259021896690683,-1.3122758831159445
1539732868960736,0.5798428320745188,-0.03051804379333589,-1.1902037079423735
1539732868976728,1.0070954451819034,0.15259021896690683,-0.8239871824216607
1539732868992720,1.3122758831159445,-0.03051804379333589,-0.7629510948347615
1539732869008712,1.0681315327688026,-0.09155413138023505,-0.8239871824216607
1539732869024705,0.9460593575952316,-0.213626306553806,-0.8239871824216607
1539732869040697,0.8239871824216607,0.09155413138023505,-0.6408789196611906
1539732869056689,0.7019150072480898,0.03051804379333589,-0.5188067444876197
1539732869072601,0.5188067444876197,-0.03051804379333589,-0.7019150072480898
1539732869088593,0.15259021896690683,-0.09155413138023505,-1.0681315327688026
1539732869104584,-0.33569848172737693,-0.2746623941404778,-1.2512397955290453
1539732869120576,-0.6408789196611906,-0.3967345693140487,-1.2512397955290453
1539732869136568,-0.3967345693140487,-0.2746623941404778,-1.0070954451819034
1539732869152559,-0.15259021896690683,-0.33569848172737693,-0.7629510948347615
1539732869168551,0.03051804379333589,-0.15259021896690683,-0.5188067444876197
1539732869184543,0.213626306553806,0.15259021896690683,-0.45777065690094787
1539732869200534,0.15259021896690683,0.213626306553806,-0.8850232700083325
1539732869216526,-0.33569848172737693,0.15259021896690683,-1.4343480582895154
1539732869232518,-0.6408789196611906,0.2746623941404778,-1.6174563210497581
1539732869248510,-0.5798428320745188,0.45777065690094787,-1.6174563210497581
1539732869264501,-0.45777065690094787,0.45777065690094787,-1.6784924086366573
1539732869280493,-0.2746623941404778,0.6408789196611906,-1.5564202334630863
1539732869296485,-0.33569848172737693,0.7019150072480898,-1.3733119707026162
1539732869312476,-0.3967345693140487,0.7019150072480898,-1.0681315327688026
1539732869328468,-0.09155413138023505,0.7629510948347615,-0.7629510948347615
1539732869344460,0.33569848172737693,0.3967345693140487,-0.8239871824216607
1539732869360451,0.7019150072480898,0.15259021896690683,-1.1291676203554744
1539732869376443,1.0070954451819034,-0.09155413138023505,-1.0070954451819034
1539732869392334,1.2512397955290453,-0.15259021896690683,-0.6408789196611906
1539732869408325,1.1291676203554744,0.03051804379333589,-0.33569848172737693
1539732869424317,0.5798428320745188,0.09155413138023505,0.45777065690094787
1539732869440309,0.09155413138023505,0.7019150072480898,1.0681315327688026
1539732869456300,-0.2746623941404778,0.45777065690094787,0.45777065690094787
1539732869472292,-1.0070954451819034,-0.213626306553806,-1.4343480582895154
1539732869488284,-1.4343480582895154,-0.5798428320745188,-2.7161058976118966
1539732869504275,-1.0070954451819034,-0.213626306553806,-2.410925459678083
1539732869520267,-0.33569848172737693,0.45777065690094787,-1.6174563210497581
1539732869536259,-0.15259021896690683,0.7019150072480898,-1.1902037079423735
1539732869552250,-0.3967345693140487,0.8239871824216607,-1.3733119707026162
1539732869568242,-0.5188067444876197,0.8239871824216607,-1.5564202334630863
1539732869584234,-0.33569848172737693,0.8239871824216607,-1.739528496223329
1539732869600226,-0.09155413138023505,0.5798428320745188,-1.8005645838102282
1539732869616217,0.09155413138023505,0.45777065690094787,-1.6784924086366573
1539732869632209,0.2746623941404778,0.3967345693140487,-1.4953841458761872
1539732869648201,0.5798428320745188,0.33569848172737693,-1.4343480582895154
1539732869664192,0.7629510948347615,0.15259021896690683,-1.2512397955290453
1539732869680184,0.5188067444876197,0.15259021896690683,-1.0681315327688026
1539732869696176,-0.03051804379333589,-0.09155413138023505,-0.8850232700083325
1539732869712036,-0.6408789196611906,-0.3967345693140487,-0.8239871824216607
1539732869728027,-1.0681315327688026,-0.6408789196611906,-0.7629510948347615
1539732869744018,-1.0070954451819034,-0.7019150072480898,-0.8239871824216607
1539732869760009,-0.7629510948347615,-0.5798428320745188,-0.9460593575952316
1539732869776001,-0.3967345693140487,-0.45777065690094787,-0.8850232700083325
1539732869791992,0.03051804379333589,-0.33569848172737693,-0.7019150072480898
1539732869807983,0.8239871824216607,-0.03051804379333589,-0.3967345693140487
1539732869823974,1.5564202334630863,0.213626306553806,-0.2746623941404778
1539732869839965,1.9226367589837992,0.45777065690094787,-0.3967345693140487
1539732869855957,2.04470893415737,0.5188067444876197,-0.33569848172737693
1539732869871948,1.8616006713969,0.6408789196611906,-0.33569848172737693
1539732869887939,1.4953841458761872,0.5798428320745188,-0.45777065690094787
1539732869903930,1.0681315327688026,0.45777065690094787,-0.7019150072480898
1539732869919922,0.5188067444876197,0.2746623941404778,-1.0070954451819034
1539732869935913,-0.09155413138023505,0.2746623941404778,-1.1291676203554744
1539732869951904,-0.7629510948347615,0.2746623941404778,-1.1902037079423735
1539732869967895,-1.1902037079423735,0.33569848172737693,-1.2512397955290453
1539732869983886,-1.1291676203554744,0.2746623941404778,-1.4343480582895154
1539732869999878,-0.9460593575952316,0.33569848172737693,-1.5564202334630863
1539732870015869,-0.8850232700083325,0.5798428320745188,-1.4953841458761872
1539732870031768,-0.6408789196611906,0.7629510948347615,-1.3122758831159445
1539732870047759,-0.15259021896690683,1.0070954451819034,-1.0681315327688026
1539732870063750,0.213626306553806,1.1291676203554744,-1.2512397955290453
1539732870079741,0.3967345693140487,1.0681315327688026,-1.4953841458761872
1539732870095731,0.5188067444876197,1.0681315327688026,-1.4953841458761872
1539732870111722,0.6408789196611906,1.0681315327688026,-1.4343480582895154
1539732870127713,0.5188067444876197,0.9460593575952316,-1.3733119707026162
1539732870143704,0.33569848172737693,0.9460593575952316,-1.3733119707026162
1539732870159694,0.213626306553806,0.7629510948347615,-1.3122758831159445
1539732870175685,0.15259021896690683,0.5798428320745188,-1.0681315327688026
1539732870191676,0.15259021896690683,0.5188067444876197,-0.8239871824216607
1539732870207666,0.09155413138023505,0.33569848172737693,-0.7019150072480898
1539732870223657,0.03051804379333589,0.09155413138023505,-0.5188067444876197
1539732870239648,0.15259021896690683,0.03051804379333589,-0.3967345693140487
1539732870255639,0.45777065690094787,-0.03051804379333589,-0.2746623941404778
1539732870271629,0.6408789196611906,-0.15259021896690683,-0.3967345693140487
1539732870287620,0.5798428320745188,-0.213626306553806,-0.2746623941404778
1539732870303611,0.45777065690094787,-0.09155413138023505,-0.03051804379333589
1539732870319602,0.3967345693140487,0.09155413138023505,-0.03051804379333589
1539732870335592,0.3967345693140487,0.15259021896690683,-0.213626306553806
1539732870351501,0.3967345693140487,0.2746623941404778,-0.3967345693140487
1539732870367491,0.15259021896690683,0.5188067444876197,-0.5188067444876197
1539732870383482,-0.09155413138023505,0.7629510948347615,-0.33569848172737693
1539732870399472,-0.213626306553806,0.8850232700083325,-0.45777065690094787
1539732870415462,-0.33569848172737693,1.0070954451819034,-0.7019150072480898
1539732870431452,-0.45777065690094787,1.0070954451819034,-1.0070954451819034
1539732870447443,-0.09155413138023505,1.0070954451819034,-1.0681315327688026
1539732870463433,0.45777065690094787,1.3122758831159445,-0.7629510948347615
1539732870479423,0.7629510948347615,1.3733119707026162,-0.3967345693140487
1539732870495413,1.0681315327688026,1.5564202334630863,-0.213626306553806
1539732870511404,1.3733119707026162,1.5564202334630863,-0.15259021896690683
1539732870527394,1.4953841458761872,1.5564202334630863,-0.09155413138023505
1539732870543384,1.5564202334630863,1.6174563210497581,-0.45777065690094787
1539732870559374,1.3122758831159445,1.3122758831159445,-0.6408789196611906
1539732870575365,0.8850232700083325,1.4343480582895154,-0.6408789196611906
1539732870591355,0.3967345693140487,1.0681315327688026,-0.7629510948347615
1539732870607345,0.15259021896690683,0.8239871824216607,-1.0681315327688026
1539732870623335,0.09155413138023505,0.6408789196611906,-1.0681315327688026
1539732870639326,0.03051804379333589,0.6408789196611906,-0.7629510948347615
1539732870655316,-0.15259021896690683,0.5798428320745188,-0.6408789196611906
1539732870671203,-0.213626306553806,0.45777065690094787,-0.6408789196611906
1539732870687193,-0.03051804379333589,0.5188067444876197,-0.5188067444876197
1539732870703183,0.09155413138023505,0.5798428320745188,-0.45777065690094787
1539732870719173,0.213626306553806,0.7019150072480898,-0.3967345693140487
1539732870735162,0.33569848172737693,1.0070954451819034,-0.2746623941404778
1539732870751152,0.3967345693140487,1.0681315327688026,-0.45777065690094787
1539732870767142,0.45777065690094787,1.1291676203554744,-0.8850232700083325
1539732870783132,0.5188067444876197,1.1902037079423735,-1.1902037079423735
1539732870799121,0.3967345693140487,1.1291676203554744,-1.2512397955290453
1539732870815111,0.33569848172737693,1.1291676203554744,-1.1291676203554744
1539732870831101,0.213626306553806,1.0070954451819034,-1.0070954451819034
1539732870847091,0.2746623941404778,0.6408789196611906,-0.8850232700083325
1539732870863081,0.3967345693140487,0.09155413138023505,-0.8850232700083325
1539732870879070,0.45777065690094787,-0.2746623941404778,-0.6408789196611906
1539732870895060,0.33569848172737693,-0.3967345693140487,-0.09155413138023505
1539732870911050,-0.03051804379333589,-0.7629510948347615,0.09155413138023505
1539732870927040,-0.09155413138023505,-1.3122758831159445,-0.2746623941404778
1539732870943030,-0.2746623941404778,-1.1902037079423735,-0.5798428320745188
1539732870959019,-0.09155413138023505,-1.0070954451819034,-0.15259021896690683
1539732870975009,0.09155413138023505,-0.7019150072480898,-0.09155413138023505
1539732870990936,0.03051804379333589,-0.2746623941404778,-0.2746623941404778
1539732871006926,0.15259021896690683,-0.15259021896690683,-0.6408789196611906
1539732871022915,0.3967345693140487,0.03051804379333589,-0.9460593575952316
1539732871038905,0.8239871824216607,0.2746623941404778,-0.7629510948347615
1539732871054895,1.0681315327688026,0.7019150072480898,-0.7019150072480898
1539732871070885,1.3122758831159445,0.8850232700083325,-0.6408789196611906
1539732871086875,1.1902037079423735,0.7629510948347615,-0.6408789196611906
1539732871102864,1.0681315327688026,0.7019150072480898,-0.5798428320745188
1539732871118854,1.0681315327688026,0.7019150072480898,-0.5188067444876197
1539732871134844,0.7629510948347615,0.6408789196611906,-0.5188067444876197
1539732871150834,0.3967345693140487,0.5798428320745188,-0.5188067444876197
1539732871166823,0.2746623941404778,0.5798428320745188,-0.5188067444876197
1539732871182813,0.03051804379333589,0.3967345693140487,-0.6408789196611906
1539732871198803,-0.213626306553806,0.45777065690094787,-0.8850232700083325
1539732871214793,-0.15259021896690683,0.5188067444876197,-0.9460593575952316
1539732871230783,0.09155413138023505,0.7019150072480898,-1.0070954451819034
1539732871246772,0.213626306553806,0.8850232700083325,-0.9460593575952316
1539732871262762,0.213626306553806,1.0681315327688026,-0.8850232700083325
1539732871278752,0.213626306553806,1.0681315327688026,-1.0681315327688026
1539732871294742,0.15259021896690683,1.0070954451819034,-1.2512397955290453
1539732871310638,0.03051804379333589,0.9460593575952316,-1.3733119707026162
1539732871326627,-0.09155413138023505,0.8239871824216607,-1.3733119707026162
1539732871342617,0.03051804379333589,0.7019150072480898,-1.1902037079423735
1539732871358606,0.213626306553806,0.5798428320745188,-1.0070954451819034
1539732871374595,0.213626306553806,0.33569848172737693,-0.7629510948347615
1539732871390585,0.213626306553806,0.09155413138023505,-0.6408789196611906
1539732871406574,0.15259021896690683,-0.09155413138023505,-0.5798428320745188
1539732871422563,0.213626306553806,-0.15259021896690683,-0.45777065690094787
1539732871438552,0.09155413138023505,-0.213626306553806,-0.3967345693140487
1539732871454542,0.09155413138023505,-0.33569848172737693,-0.45777065690094787
1539732871470531,0.213626306553806,-0.09155413138023505,-0.45777065690094787
1539732871486520,0.2746623941404778,0.09155413138023505,-0.45777065690094787
1539732871502510,0.3967345693140487,0.2746623941404778,-0.5798428320745188
1539732871518499,0.6408789196611906,0.3967345693140487,-0.8239871824216607
1539732871534488,0.7629510948347615,0.6408789196611906,-0.8850232700083325
1539732871550478,0.7019150072480898,0.8239871824216607,-0.9460593575952316
1539732871566467,0.5188067444876197,0.9460593575952316,-1.3122758831159445
1539732871582456,0.2746623941404778,0.8850232700083325,-1.6174563210497581
1539732871598446,0.213626306553806,1.0070954451819034,-1.6174563210497581
1539732871614435,-0.03051804379333589,1.0681315327688026,-1.4343480582895154
1539732871630371,-0.213626306553806,0.8239871824216607,-1.4953841458761872
1539732871646360,-0.3967345693140487,0.5188067444876197,-1.5564202334630863
1539732871662348,-0.45777065690094787,0.2746623941404778,-1.3122758831159445
1539732871678337,-0.213626306553806,0.09155413138023505,-0.8239871824216607
1539732871694326,0.03051804379333589,-0.09155413138023505,-0.3967345693140487
1539732871710315,0.3967345693140487,-0.213626306553806,-0.15259021896690683
1539732871726304,0.8850232700083325,-0.33569848172737693,-0.03051804379333589
1539732871742293,1.4343480582895154,-0.33569848172737693,0.03051804379333589
1539732871758281,1.9226367589837992,-0.2746623941404778,0.213626306553806
1539732871774270,2.04470893415737,-0.15259021896690683,0.09155413138023505
1539732871790259,1.739528496223329,-0.213626306553806,-0.33569848172737693
1539732871806248,1.2512397955290453,-0.213626306553806,-0.7019150072480898
1539732871822237,0.8239871824216607,0.03051804379333589,-0.7019150072480898
1539732871838225,0.2746623941404778,0.09155413138023505,-0.7629510948347615
1539732871854214,-0.45777065690094787,-0.03051804379333589,-1.1291676203554744
1539732871870203,-1.1291676203554744,-0.2746623941404778,-1.6784924086366573
1539732871886192,-1.3733119707026162,-0.3967345693140487,-1.983672846570471
1539732871902181,-1.3733119707026162,0.03051804379333589,-1.8005645838102282
1539732871918170,-1.5564202334630863,0.33569848172737693,-1.6784924086366573
1539732871934158,-1.2512397955290453,0.2746623941404778,-1.6784924086366573
1539732871950134,-0.6408789196611906,0.5188067444876197,-1.6784924086366573
1539732871966123,-0.2746623941404778,0.7629510948347615,-1.4343480582895154
1539732871982112,-0.15259021896690683,0.6408789196611906,-1.3733119707026162
1539732871998100,0.2746623941404778,0.3967345693140487,-1.4953841458761872
1539732872014089,0.7629510948347615,0.33569848172737693,-1.3122758831159445
1539732872030078,1.2512397955290453,0.5188067444876197,-0.6408789196611906
1539732872046067,1.6784924086366573,0.3967345693140487,-0.45777065690094787
1539732872062056,1.9226367589837992,0.213626306553806,-0.45777065690094787
1539732872078045,1.8005645838102282,0.15259021896690683,-0.3967345693140487
1539732872094033,1.3733119707026162,0.213626306553806,-0.2746623941404778
1539732872110022,0.8850232700083325,0.09155413138023505,-0.2746623941404778
1539732872126011,0.33569848172737693,-0.09155413138023505,-0.7019150072480898
1539732872142000,-0.3967345693140487,-0.213626306553806,-1.1291676203554744
1539732872157989,-1.0070954451819034,-0.33569848172737693,-1.3122758831159445
1539732872173977,-1.2512397955290453,-0.45777065690094787,-1.4343480582895154
1539732872189966,-1.4953841458761872,-0.5188067444876197,-1.4953841458761872
1539732872205955,-1.5564202334630863,-0.5798428320745188,-1.4953841458761872
1539732872221944,-1.1902037079423735,-0.3967345693140487,-1.1291676203554744
1539732872237933,-0.7019150072480898,-0.09155413138023505,-0.8850232700083325
1539732872253922,-0.2746623941404778,0.03051804379333589,-0.7019150072480898
1539732872269836,0.213626306553806,0.15259021896690683,-0.8239871824216607
1539732872285824,0.7629510948347615,0.3967345693140487,-0.8850232700083325
1539732872301813,1.1291676203554744,0.6408789196611906,-1.0070954451819034
1539732872317801,1.6174563210497581,0.9460593575952316,-0.8239871824216607
1539732872333789,1.9226367589837992,1.4953841458761872,-0.5798428320745188
1539732872349778,1.8616006713969,1.8005645838102282,-0.2746623941404778
1539732872365766,2.04470893415737,1.9226367589837992,-0.33569848172737693
1539732872381755,2.166781109330941,2.105745021744042,-0.213626306553806
1539732872397743,1.983672846570471,2.288853284504512,0.09155413138023505
1539732872413731,1.6174563210497581,2.04470893415737,-0.03051804379333589
1539732872429720,0.9460593575952316,1.4953841458761872,-1.0681315327688026
1539732872445708,0.15259021896690683,0.7019150072480898,-1.983672846570471
1539732872461696,-0.3967345693140487,0.09155413138023505,-2.105745021744042
1539732872477685,-0.7629510948347615,0.09155413138023505,-1.3122758831159445
1539732872493673,-0.7629510948347615,0.03051804379333589,-0.5798428320745188
1539732872509661,-0.7019150072480898,-0.15259021896690683,-0.45777065690094787
1539732872525650,-0.7019150072480898,-0.213626306553806,-0.3967345693140487
1539732872541638,-0.6408789196611906,-0.15259021896690683,-0.3967345693140487
1539732872557626,-0.3967345693140487,0.15259021896690683,-0.45777065690094787
1539732872573615,-0.03051804379333589,0.3967345693140487,-0.7019150072480898
1539732872589538,0.3967345693140487,0.6408789196611906,-0.8850232700083325
1539732872605527,0.6408789196611906,0.8239871824216607,-1.0070954451819034
1539732872621515,0.9460593575952316,0.8239871824216607,-1.0681315327688026
1539732872637503,1.3733119707026162,0.8239871824216607,-1.1291676203554744
1539732872653492,1.3122758831159445,0.8850232700083325,-1.1291676203554744
1539732872669480,0.8850232700083325,0.8850232700083325,-0.7629510948347615
1539732872685468,0.6408789196611906,0.8850232700083325,-0.6408789196611906
1539732872701457,0.2746623941404778,0.7019150072480898,-0.5798428320745188
1539732872717445,0.03051804379333589,0.33569848172737693,-0.7019150072480898
1539732872733433,-0.213626306553806,0.2746623941404778,-0.8239871824216607
1539732872749422,-0.2746623941404778,0.2746623941404778,-0.8850232700083325
1539732872765410,-0.33569848172737693,0.45777065690094787,-0.8850232700083325
1539732872781398,-0.33569848172737693,0.5798428320745188,-0.8850232700083325
1539732872797387,-0.03051804379333589,0.7019150072480898,-0.8239871824216607
1539732872813375,0.09155413138023505,0.8850232700083325,-0.5798428320745188
1539732872829363,0.5188067444876197,1.1902037079423735,-0.5188067444876197
1539732872845352,0.9460593575952316,1.4953841458761872,-0.6408789196611906
1539732872861340,1.0681315327688026,1.6784924086366573,-0.5798428320745188
1539732872877328,1.1291676203554744,1.6784924086366573,-0.7019150072480898
1539732872893317,1.1902037079423735,1.6784924086366573,-0.9460593575952316
1539732872909271,1.1291676203554744,1.3733119707026162,-1.0681315327688026
1539732872925259,0.8850232700083325,0.8850232700083325,-1.0070954451819034
1539732872941248,0.5798428320745188,0.5798428320745188,-0.9460593575952316
1539732872957236,0.3967345693140487,0.2746623941404778,-0.7629510948347615
1539732872973224,0.03051804379333589,-0.09155413138023505,-0.7019150072480898
1539732872989213,-0.3967345693140487,-0.2746623941404778,-0.5798428320745188
1539732873005201,-0.45777065690094787,-0.2746623941404778,-0.33569848172737693
1539732873021189,-0.5188067444876197,-0.213626306553806,-0.09155413138023505
1539732873037178,-0.7019150072480898,0.03051804379333589,-0.15259021896690683
1539732873053166,-0.5188067444876197,0.213626306553806,-0.45777065690094787
1539732873069154,-0.213626306553806,0.5188067444876197,-0.8239871824216607
1539732873085143,-0.03051804379333589,0.7629510948347615,-1.0681315327688026
1539732873101131,0.15259021896690683,1.0070954451819034,-1.3122758831159445
1539732873117119,0.213626306553806,1.1902037079423735,-1.5564202334630863
1539732873133108,0.3967345693140487,1.1902037079423735,-1.6174563210497581
1539732873149096,0.5188067444876197,1.1902037079423735,-1.4953841458761872
1539732873165084,0.5798428320745188,1.1291676203554744,-1.3122758831159445
1539732873181073,0.45777065690094787,0.9460593575952316,-1.0070954451819034
1539732873197061,0.2746623941404778,0.7629510948347615,-0.7019150072480898
1539732873213050,0.15259021896690683,0.7019150072480898,-0.5188067444876197
1539732873228973,0.03051804379333589,0.45777065690094787,-0.2746623941404778
1539732873244961,-0.03051804379333589,0.5798428320745188,-0.03051804379333589
1539732873260949,-0.03051804379333589,0.45777065690094787,-0.09155413138023505
1539732873276937,-0.2746623941404778,0.33569848172737693,-0.45777065690094787
1539732873292925,-0.3967345693140487,0.33569848172737693,-0.7629510948347615
1539732873308912,-0.2746623941404778,0.15259021896690683,-1.0681315327688026
1539732873324900,-0.15259021896690683,0.15259021896690683,-1.3122758831159445
1539732873340888,-0.03051804379333589,0.03051804379333589,-1.3122758831159445
1539732873356876,0.03051804379333589,0.09155413138023505,-1.0070954451819034
1539732873372864,0.2746623941404778,0.15259021896690683,-0.5798428320745188
1539732873388852,0.45777065690094787,0.15259021896690683,-0.15259021896690683
1539732873404840,0.6408789196611906,0.15259021896690683,0.09155413138023505
1539732873420827,0.45777065690094787,0.2746623941404778,0.03051804379333589
1539732873436815,0.5188067444876197,0.2746623941404778,-0.15259021896690683
1539732873452803,0.7629510948347615,0.45777065690094787,-0.09155413138023505
1539732873468791,0.8850232700083325,0.6408789196611906,0.03051804379333589
1539732873484779,0.7629510948347615,0.8239871824216607,0.03051804379333589
1539732873500767,0.8850232700083325,1.0070954451819034,0.03051804379333589
1539732873516755,0.8239871824216607,1.1902037079423735,-0.15259021896690683
1539732873532743,0.5188067444876197,1.1902037079423735,-0.5188067444876197
1539732873548706,0.213626306553806,1.1291676203554744,-1.0070954451819034
1539732873564694,0.03051804379333589,0.9460593575952316,-1.2512397955290453
1539732873580681,-0.09155413138023505,1.0681315327688026,-1.0681315327688026
1539732873596669,-0.09155413138023505,0.9460593575952316,-0.8850232700083325
1539732873612657,0.03051804379333589,0.8850232700083325,-0.7019150072480898
1539732873628645,0.15259021896690683,1.0681315327688026,-0.45777065690094787
1539732873644633,0.213626306553806,1.3122758831159445,-0.2746623941404778
1539732873660621,0.33569848172737693,1.3733119707026162,-0.45777065690094787
1539732873676609,0.213626306553806,1.4343480582895154,-0.6408789196611906
1539732873692597,0.09155413138023505,1.5564202334630863,-0.7019150072480898
1539732873708584,0.09155413138023505,1.8616006713969,-0.7019150072480898
1539732873724572,0.2746623941404778,2.166781109330941,-0.7629510948347615
1539732873740560,0.3967345693140487,2.410925459678083,-0.8239871824216607
1539732873756548,0.45777065690094787,2.8992141603723667,-0.6408789196611906
1539732873772536,1.2512397955290453,2.8992141603723667,-0.7019150072480898
1539732873788524,2.105745021744042,2.3498893720911838,-1.8005645838102282
1539732873804512,0.9460593575952316,2.8381780727854675,-1.1291676203554744
1539732873820500,1.1291676203554744,3.3264667734797513,0.03051804379333589
1539732873836487,2.655069810025225,3.4485389486533222,-0.6408789196611906
1539732873852475,2.288853284504512,2.5940337224383256,-1.5564202334630863
1539732873868438,1.4343480582895154,2.532997634851654,-1.3733119707026162
1539732873884426,1.3122758831159445,2.227817196917613,-0.8239871824216607
1539732873900414,1.1291676203554744,1.6784924086366573,-0.7019150072480898
1539732873916402,0.5188067444876197,1.1291676203554744,-0.7629510948347615
1539732873932390,-0.15259021896690683,0.5798428320745188,-0.7629510948347615
1539732873948378,-0.5188067444876197,0.15259021896690683,-0.5798428320745188
1539732873964366,-0.7629510948347615,-0.09155413138023505,-0.3967345693140487
1539732873980353,-0.8239871824216607,-0.15259021896690683,-0.3967345693140487
1539732873996341,-0.9460593575952316,-0.213626306553806,-0.3967345693140487
1539732874012329,-0.8239871824216607,-0.09155413138023505,-0.5188067444876197
1539732874028317,-0.3967345693140487,-0.03051804379333589,-0.6408789196611906
1539732874044305,0.03051804379333589,0.33569848172737693,-0.7019150072480898
1539732874060293,0.3967345693140487,0.7629510948347615,-0.8239871824216607
1539732874076281,0.6408789196611906,0.8850232700083325,-1.0681315327688026
1539732874092269,0.8850232700083325,1.0070954451819034,-1.3122758831159445
1539732874108256,1.0070954451819034,0.8850232700083325,-1.3733119707026162
1539732874124244,1.0070954451819034,0.8850232700083325,-1.2512397955290453
1539732874140232,0.8239871824216607,0.7629510948347615,-1.1902037079423735
1539732874156220,0.6408789196611906,0.5798428320745188,-1.0681315327688026
1539732874172208,0.213626306553806,0.3967345693140487,-0.9460593575952316
1539732874188140,-0.2746623941404778,0.09155413138023505,-0.9460593575952316
1539732874204128,-0.45777065690094787,-0.15259021896690683,-1.0681315327688026
1539732874220115,-0.5798428320745188,-0.15259021896690683,-1.0070954451819034
1539732874236103,-0.5188067444876197,-0.09155413138023505,-0.8850232700083325
1539732874252090,-0.3967345693140487,-0.15259021896690683,-0.8850232700083325
1539732874268077,-0.33569848172737693,-0.15259021896690683,-1.0681315327688026
1539732874284065,-0.213626306553806,-0.15259021896690683,-1.1902037079423735
1539732874300052,0.09155413138023505,-0.09155413138023505,-1.1902037079423735
1539732874316040,0.213626306553806,0.09155413138023505,-1.0681315327688026
1539732874332027,0.2746623941404778,0.2746623941404778,-1.0070954451819034
1539732874348014,0.3967345693140487,0.45777065690094787,-1.0070954451819034
1539732874364002,0.3967345693140487,0.5188067444876197,-1.0681315327688026
1539732874379989,0.3967345693140487,0.3967345693140487,-1.1902037079423735
1539732874395977,0.3967345693140487,0.33569848172737693,-1.1291676203554744
1539732874411964,0.45777065690094787,0.33569848172737693,-1.0681315327688026
1539732874427951,0.3967345693140487,0.2746623941404778,-1.0070954451819034
1539732874443939,0.2746623941404778,0.2746623941404778,-1.0070954451819034
1539732874459926,0.09155413138023505,0.213626306553806,-1.0070954451819034
1539732874475914,-0.03051804379333589,0.213626306553806,-0.8850232700083325
1539732874491901,-0.03051804379333589,0.213626306553806,-0.7629510948347615
1539732874507873,-0.09155413138023505,0.2746623941404778,-0.8239871824216607
1539732874523861,-0.09155413138023505,0.2746623941404778,-0.8850232700083325
1539732874539848,-0.03051804379333589,0.33569848172737693,-0.9460593575952316
1539732874555835,0.03051804379333589,0.5188067444876197,-0.9460593575952316
1539732874571823,0.2746623941404778,0.6408789196611906,-0.8850232700083325
1539732874587810,0.33569848172737693,0.7629510948347615,-1.0070954451819034
1539732874603798,0.3967345693140487,0.7629510948347615,-1.1291676203554744
1539732874619785,0.45777065690094787,0.7629510948347615,-1.1291676203554744
1539732874635772,0.45777065690094787,0.8239871824216607,-1.1902037079423735
1539732874651760,0.3967345693140487,0.8239871824216607,-1.1291676203554744
1539732874667747,0.213626306553806,0.7629510948347615,-1.0681315327688026
1539732874683735,0.09155413138023505,0.5798428320745188,-1.0070954451819034
1539732874699722,0.03051804379333589,0.45777065690094787,-1.0681315327688026
1539732874715709,0.09155413138023505,0.3967345693140487,-1.0070954451819034
1539732874731697,0.213626306553806,0.3967345693140487,-0.8239871824216607
1539732874747684,0.213626306553806,0.3967345693140487,-0.6408789196611906
1539732874763672,0.2746623941404778,0.2746623941404778,-0.7019150072480898
1539732874779659,0.33569848172737693,0.2746623941404778,-0.8850232700083325
1539732874795646,0.3967345693140487,0.2746623941404778,-0.8850232700083325
1539732874811634,0.5188067444876197,0.33569848172737693,-0.8239871824216607
1539732874827606,0.5798428320745188,0.5188067444876197,-0.8239871824216607
1539732874843593,0.5798428320745188,0.7019150072480898,-0.7629510948347615
1539732874859581,0.5798428320745188,0.7019150072480898,-0.8850232700083325
1539732874875568,0.5798428320745188,0.6408789196611906,-0.9460593575952316
1539732874891555,0.5188067444876197,0.5798428320745188,-1.0070954451819034
1539732874907543,0.5188067444876197,0.5798428320745188,-1.0070954451819034
1539732874923530,0.45777065690094787,0.5188067444876197,-1.0070954451819034
1539732874939518,0.3967345693140487,0.45777065690094787,-0.9460593575952316
1539732874955505,0.33569848172737693,0.33569848172737693,-0.8850232700083325
1539732874971492,0.3967345693140487,0.45777065690094787,-0.8239871824216607
1539732874987480,0.3967345693140487,0.5188067444876197,-0.8239871824216607
1539732875003467,0.2746623941404778,0.5188067444876197,-0.8239871824216607
1539732875019455,0.213626306553806,0.5188067444876197,-0.9460593575952316
1539732875035442,0.213626306553806,0.6408789196611906,-0.9460593575952316
1539732875051429,0.3967345693140487,0.7019150072480898,-0.8850232700083325
1539732875067417,0.3967345693140487,0.8239871824216607,-0.8850232700083325
1539732875083404,0.33569848172737693,0.9460593575952316,-0.9460593575952316
1539732875099392,0.2746623941404778,0.8850232700083325,-0.9460593575952316
1539732875115379,0.3967345693140487,0.8850232700083325,-0.9460593575952316
1539732875131366,0.33569848172737693,0.9460593575952316,-0.9460593575952316
1539732875147308,0.3967345693140487,0.9460593575952316,-0.9460593575952316
1539732875163295,0.33569848172737693,0.9460593575952316,-1.1291676203554744
1539732875179282,0.213626306553806,0.8850232700083325,-1.1291676203554744
1539732875195269,0.213626306553806,0.8850232700083325,-1.0070954451819034
1539732875211256,0.09155413138023505,0.9460593575952316,-0.8239871824216607
1539732875227243,0.15259021896690683,1.0681315327688026,-1.0070954451819034
1539732875243229,0.03051804379333589,1.0070954451819034,-1.3733119707026162
1539732875259216,-0.03051804379333589,0.9460593575952316,-1.3733119707026162
1539732875275203,0.03051804379333589,0.9460593575952316,-1.1291676203554744
1539732875291190,0.15259021896690683,0.8239871824216607,-1.0070954451819034
1539732875307177,0.3967345693140487,0.7019150072480898,-1.0070954451819034
1539732875323164,0.5188067444876197,0.45777065690094787,-0.7629510948347615
1539732875339151,0.5798428320745188,0.5188067444876197,-0.2746623941404778
1539732875355138,0.7629510948347615,0.7019150072480898,-0.15259021896690683
1539732875371125,0.9460593575952316,0.6408789196611906,-0.213626306553806
1539732875387112,0.8850232700083325,0.5188067444876197,-0.45777065690094787
1539732875403099,0.7629510948347615,0.45777065690094787,-0.7019150072480898
1539732875419086,0.7629510948347615,0.45777065690094787,-0.7019150072480898
1539732875435073,0.8239871824216607,0.5188067444876197,-0.5798428320745188
1539732875451059,0.8239871824216607,0.5798428320745188,-0.5188067444876197
1539732875467041,0.7019150072480898,0.3967345693140487,-0.5798428320745188
1539732875483028,0.6408789196611906,0.213626306553806,-0.5798428320745188
1539732875499014,0.7019150072480898,0.213626306553806,-0.33569848172737693
1539732875515001,0.7019150072480898,0.2746623941404778,-0.213626306553806
1539732875530988,0.8239871824216607,-0.03051804379333589,-0.2746623941404778
1539732875546975,1.1902037079423735,-0.09155413138023505,-0.2746623941404778
1539732875562962,1.4343480582895154,-0.15259021896690683,0.09155413138023505
1539732875578949,1.6174563210497581,0.03051804379333589,0.33569848172737693
1539732875594936,1.6784924086366573,0.15259021896690683,0.33569848172737693
1539732875610923,1.6784924086366573,0.213626306553806,0.15259021896690683
1539732875626910,1.739528496223329,0.5188067444876197,0.15259021896690683
1539732875642897,1.6784924086366573,0.8850232700083325,-0.09155413138023505
1539732875658884,1.4343480582895154,1.0681315327688026,-0.45777065690094787
1539732875674871,1.0070954451819034,1.3733119707026162,-0.9460593575952316
1539732875690858,0.5188067444876197,1.6174563210497581,-1.3122758831159445
1539732875706844,0.09155413138023505,1.8616006713969,-1.6174563210497581
1539732875722831,-0.2746623941404778,2.04470893415737,-1.8005645838102282
1539732875738818,-0.7019150072480898,2.166781109330941,-1.739528496223329
1539732875754805,-0.8239871824216607,2.227817196917613,-1.6784924086366573
1539732875770792,-0.7629510948347615,2.105745021744042,-1.6784924086366573
1539732875786743,-0.45777065690094787,1.739528496223329,-1.6784924086366573
1539732875802730,-0.15259021896690683,1.4953841458761872,-1.2512397955290453
1539732875818717,0.213626306553806,1.0681315327688026,-0.8239871824216607
1539732875834704,0.8850232700083325,0.45777065690094787,-0.7629510948347615
1539732875850690,1.739528496223329,0.09155413138023505,-0.5798428320745188
1539732875866677,2.532997634851654,-0.2746623941404778,-0.09155413138023505
1539732875882664,3.2654306858930795,-0.5188067444876197,0.3967345693140487
1539732875898651,3.814755474174035,-0.6408789196611906,0.7019150072480898
1539732875914638,4.364080262455218,-0.6408789196611906,1.0070954451819034
1539732875930625,4.547188525215461,-0.33569848172737693,1.2512397955290453
1539732875946612,4.60822461280236,-0.15259021896690683,1.1902037079423735
1539732875962599,4.547188525215461,-0.03051804379333589,0.7019150072480898
1539732875978586,4.303044174868319,0.15259021896690683,0.213626306553806
1539732875994573,3.814755474174035,0.45777065690094787,-0.15259021896690683
1539732876010560,3.0823224231326094,1.0070954451819034,-0.5188067444876197
1539732876026547,2.288853284504512,1.5564202334630863,-0.9460593575952316
1539732876042533,1.3733119707026162,1.8005645838102282,-1.3122758831159445
1539732876058520,0.5188067444876197,2.105745021744042,-1.5564202334630863
1539732876074507,-0.213626306553806,2.410925459678083,-1.8616006713969
1539732876090494,-0.8850232700083325,2.3498893720911838,-2.227817196917613
1539732876106475,-1.4343480582895154,2.105745021744042,-2.4719615472647547
1539732876122462,-1.6174563210497581,1.739528496223329,-2.4719615472647547
1539732876138449,-1.3122758831159445,1.1902037079423735,-2.105745021744042
1539732876154436,-0.8850232700083325,0.8239871824216607,-1.6174563210497581
1539732876170423,-0.33569848172737693,0.45777065690094787,-1.0681315327688026
1539732876186410,0.33569848172737693,-0.03051804379333589,-0.7629510948347615
1539732876202397,1.1902037079423735,-0.6408789196611906,-0.3967345693140487
1539732876218384,2.105745021744042,-1.1902037079423735,-0.15259021896690683
1539732876234371,3.0212863355459376,-1.4953841458761872,0.03051804379333589
1539732876250358,3.814755474174035,-1.739528496223329,0.09155413138023505
1539732876266345,4.42511635004189,-1.6784924086366573,0.2746623941404778
1539732876282332,4.791332875562603,-1.3733119707026162,0.5798428320745188
1539732876298318,4.669260700389032,-1.1291676203554744,0.8850232700083325
1539732876314305,4.364080262455218,-1.0681315327688026,1.0681315327688026
1539732876330292,4.058899824521177,-0.7019150072480898,1.0681315327688026
1539732876346279,3.3875028610666504,-0.3967345693140487,1.3122758831159445
1539732876362266,2.227817196917613,-0.2746623941404778,1.0070954451819034
1539732876378253,1.0070954451819034,-0.45777065690094787,0.5188067444876197
1539732876394240,-0.03051804379333589,-0.5798428320745188,-0.15259021896690683
1539732876410227,-1.1291676203554744,-0.7019150072480898,-0.8850232700083325
1539732876426208,-1.983672846570471,-0.8239871824216607,-1.2512397955290453
1539732876442195,-2.5940337224383256,-0.45777065690094787,-1.3122758831159445
1539732876458182,-2.8992141603723667,0.2746623941404778,-1.1291676203554744
1539732876474169,-2.8381780727854675,0.33569848172737693,-1.9226367589837992
1539732876490156,-2.7161058976118966,0.213626306553806,-3.0212863355459376
1539732876506143,-2.7161058976118966,0.5188067444876197,-3.2043945983061803
1539732876522130,-2.9602502479590385,0.8239871824216607,-2.8992141603723667
1539732876538117,-3.0823224231326094,1.0070954451819034,-2.5940337224383256
1539732876554103,-2.5940337224383256,1.4343480582895154,-2.288853284504512
1539732876570090,-1.8005645838102282,1.8616006713969,-1.9226367589837992
1539732876586077,-0.7629510948347615,2.105745021744042,-1.8616006713969
1539732876602064,0.15259021896690683,1.9226367589837992,-1.9226367589837992
1539732876618051,0.09155413138023505,1.4953841458761872,-2.227817196917613
1539732876634038,0.33569848172737693,1.2512397955290453,-2.105745021744042
1539732876650025,1.0681315327688026,1.3733119707026162,-1.8616006713969
1539732876666012,1.6174563210497581,1.3733119707026162,-1.3733119707026162
1539732876681999,2.04470893415737,0.9460593575952316,-1.1902037079423735
1539732876697986,2.532997634851654,0.5798428320745188,-0.9460593575952316
1539732876713973,1.8616006713969,0.3967345693140487,-0.3967345693140487
1539732876729960,0.45777065690094787,0.3967345693140487,0.5188067444876197
1539732876745910,-0.03051804379333589,0.09155413138023505,0.7019150072480898
1539732876761897,0.213626306553806,-0.2746623941404778,0.2746623941404778
1539732876777884,0.09155413138023505,-0.5188067444876197,0.2746623941404778
1539732876793871,-0.8850232700083325,-0.33569848172737693,0.45777065690094787
1539732876809858,-2.288853284504512,-0.213626306553806,0.15259021896690683
1539732876825845,-3.0823224231326094,0.03051804379333589,-0.45777065690094787
1539732876841832,-2.655069810025225,0.6408789196611906,-0.8239871824216607
1539732876857819,-1.6174563210497581,1.3122758831159445,-0.9460593575952316
1539732876873806,-0.6408789196611906,2.166781109330941,-1.1291676203554744
1539732876889793,0.15259021896690683,2.532997634851654,-1.739528496223329
1539732876905779,0.8239871824216607,2.7771419851987957,-2.3498893720911838
1539732876921766,1.4343480582895154,3.0823224231326094,-2.4719615472647547
1539732876937753,1.983672846570471,3.1433585107195086,-2.227817196917613
1539732876953740,1.983672846570471,3.0823224231326094,-1.9226367589837992
1539732876969727,1.4953841458761872,2.5940337224383256,-1.8005645838102282
1539732876985714,1.2512397955290453,2.04470893415737,-1.4953841458761872
1539732877001701,0.7019150072480898,1.8616006713969,-0.8239871824216607
1539732877017688,-0.213626306553806,1.3122758831159445,-0.33569848172737693
1539732877033675,-1.4343480582895154,0.7019150072480898,-0.3967345693140487
1539732877049662,-2.227817196917613,0.09155413138023505,-0.5798428320745188
1539732877065612,-2.410925459678083,-0.3967345693140487,-0.2746623941404778
1539732877081599,-2.410925459678083,-0.15259021896690683,0.45777065690094787
1539732877097585,-2.532997634851654,0.03051804379333589,0.8239871824216607
1539732877113572,-2.9602502479590385,0.213626306553806,0.9460593575952316
1539732877129558,-3.3264667734797513,0.15259021896690683,1.2512397955290453
1539732877145545,-3.5095750362402214,0.2746623941404778,1.6174563210497581
1539732877161531,-3.570611123826893,0.2746623941404778,1.8005645838102282
1539732877177518,-3.570611123826893,0.2746623941404778,1.6174563210497581
1539732877193504,-3.570611123826893,0.2746623941404778,1.3733119707026162
1539732877209490,-3.570611123826893,0.33569848172737693,0.9460593575952316
1539732877225477,-3.5095750362402214,0.33569848172737693,0.45777065690094787
1539732877241463,-3.0823224231326094,0.213626306553806,-0.15259021896690683
1539732877257450,-2.3498893720911838,0.03051804379333589,-0.8850232700083325
1539732877273436,-1.2512397955290453,0.213626306553806,-1.4343480582895154
1539732877289423,-0.15259021896690683,1.1291676203554744,-1.4953841458761872
1539732877305409,0.6408789196611906,2.166781109330941,-0.8850232700083325
1539732877321395,1.1902037079423735,2.7161058976118966,-0.5798428320745188
1539732877337382,1.8616006713969,3.2043945983061803,-0.3967345693140487
1539732877353368,1.9226367589837992,3.7537193865873633,-0.03051804379333589
1539732877369355,1.8005645838102282,3.997863736934505,0.2746623941404778
1539732877385345,1.6174563210497581,4.058899824521177,0.45777065690094787
1539732877401332,1.0681315327688026,4.180971999694748,0.7629510948347615
1539732877417318,0.15259021896690683,4.303044174868319,0.8850232700083325
1539732877433304,-0.8850232700083325,4.119935912108076,0.45777065690094787
1539732877449291,-1.6174563210497581,3.875791561760934,-0.213626306553806
1539732877465277,-1.8616006713969,3.814755474174035,-0.33569848172737693
1539732877481264,-1.8005645838102282,3.936827649347606,-0.03051804379333589
1539732877497250,-1.3122758831159445,3.6316472114137923,-0.09155413138023505
1539732877513237,-0.8850232700083325,3.0212863355459376,-0.8239871824216607
1539732877529223,0.213626306553806,2.3498893720911838,-1.4953841458761872
1539732877545210,1.5564202334630863,2.7771419851987957,-1.4953841458761872
1539732877561196,2.5940337224383256,3.3264667734797513,-0.8850232700083325
1539732877577182,3.3264667734797513,3.875791561760934,-0.2746623941404778
1539732877593169,4.119935912108076,4.242008087281647,0.09155413138023505
1539732877609155,4.730296787975931,4.242008087281647,0.7629510948347615
1539732877625142,5.279621576256886,3.814755474174035,1.0070954451819034
1539732877641128,6.012054627298312,3.5095750362402214,1.0070954451819034
1539732877657115,6.622415503166167,3.692683299000464,1.4343480582895154
1539732877673101,6.9886320286868795,3.936827649347606,1.983672846570471
1539732877689087,6.9886320286868795,4.180971999694748,1.8616006713969
1539732877705047,6.805523765926637,3.3875028610666504,0.8239871824216607
1539732877721034,7.17174029144735,2.8381780727854675,-0.8239871824216607
1539732877737020,7.721065079728305,2.4719615472647547,-1.739528496223329
1539732877753007,8.148317692835917,2.655069810025225,-1.6174563210497581
1539732877768993,8.51453421835663,3.5095750362402214,-1.4953841458761872
1539732877784979,8.575570305943302,3.936827649347606,-1.5564202334630863
1539732877800966,8.148317692835917,4.364080262455218,-2.04470893415737
1539732877816952,8.209353780422589,4.303044174868319,-2.410925459678083
1539732877832939,8.45349813076973,4.852368963149502,-2.166781109330941
1539732877848925,8.575570305943302,5.2185854886702145,-1.6784924086366573
1539732877864912,8.941786831464015,5.95101853971164,-0.8850232700083325
1539732877880898,7.598992904554734,6.561379415579495,-0.5798428320745188
1539732877896885,4.60822461280236,5.523765926604028,-1.6174563210497581
1539732877912871,3.0823224231326094,5.096513313496644,-2.532997634851654
1539732877928857,2.5940337224383256,5.706874189364498,-3.2654306858930795
1539732877944844,-0.03051804379333589,5.76791027695117,-6.134126802471883
1539732877960830,-4.974441138323073,5.279621576256886,-10.406652933546866
1539732877976817,-9.796292057679011,6.134126802471883,-13.214312962538997
1539732877992803,-13.153276874952326,8.209353780422589,-13.397421225299468
1539732878008790,-14.618142977035177,8.697642481116873,-12.481879911497572
1539732878024749,-14.312962539101136,9.369039444571627,-12.298771648737329
1539732878040736,-12.970168612191856,8.392462043183059,-12.23773556115043
1539732878056722,-10.528725108720437,5.76791027695117,-11.627374685282575
1539732878072709,-7.049668116273779,2.04470893415737,-9.73525597009234
1539732878088695,-4.119935912108076,-0.8850232700083325,-6.805523765926637
1539732878104682,-1.3733119707026162,-3.0212863355459376,-3.875791561760934
1539732878120668,1.4953841458761872,-4.364080262455218,-1.3733119707026162
1539732878136654,4.119935912108076,-4.669260700389032,0.6408789196611906
1539732878152641,3.570611123826893,-5.157549401083315,1.8005645838102282
1539732878168627,1.2512397955290453,-7.354848554207592,2.532997634851654
1539732878184614,-1.3733119707026162,-9.246967269398056,3.0212863355459376
1539732878200600,-4.119935912108076,-10.955977721828049,3.570611123826893
1539732878216587,-6.683451590753066,-12.359807736324,2.8992141603723667
1539732878232573,-9.308003356984727,-13.58052948805971,0.213626306553806
1539732878248560,-12.542915999084471,-14.618142977035177,-2.9602502479590385
1539732878264546,-15.777828641183987,-14.679179064621849,-4.669260700389032
1539732878280532,-18.158236057068734,-13.58052948805971,-5.096513313496644
1539732878296519,-19.80621042191183,-12.054627298390187,-4.9134050507361735
1539732878312505,-21.51522087434182,-10.040436408026153,-3.997863736934505
1539732878328492,-22.67490653849086,-7.904173342488775,-1.6174563210497581
1539732878344513,-22.980086976424673,-6.073090714885211,1.8005645838102282
1539732878360499,-22.61387045090396,-4.669260700389032,5.2185854886702145
1539732878376485,-22.064545662623004,-0.6408789196611906,9.002822919050914
1539732878392472,-20.843823910887295,3.0823224231326094,12.115663385976859
1539732878408458,-19.9893186846723,4.974441138323073,11.627374685282575
1539732878424445,-20.294499122606112,3.997863736934505,6.9886320286868795
1539732878440431,-20.11139085984587,1.6784924086366573,0.9460593575952316
1539732878456418,-18.70756084534969,-0.6408789196611906,-5.0354772259097444
1539732878472404,-17.853055619134693,-1.983672846570471,-10.650797283894008
1539732878488391,-17.79201953154802,-1.5564202334630863,-14.435034714274707
1539732878504377,-17.730983443961122,-0.03051804379333589,-15.228503852903032
1539732878520363,-17.120622568093268,1.9226367589837992,-13.45845731288614
1539732878536350,-15.533684290836845,3.1433585107195086,-10.406652933546866
1539732878552336,-12.909132524605184,2.3498893720911838,-7.4158846417944915
1539732878568323,-10.162508583199724,1.4953841458761872,-4.486152437628789
1539732878584309,-8.45349813076973,1.3122758831159445,-0.2746623941404778
1539732878600296,-7.476920729381163,1.1291676203554744,5.3406576638437855
1539732878616282,-6.8665598535133086,0.03051804379333589,9.185931181811156
1539732878632269,-6.195162890058782,-2.4719615472647547,10.89494163424115
1539732878648255,-5.462729839017356,-4.730296787975931,11.505302510109004
1539732878664215,-3.875791561760934,-7.782101167315204,11.07804989700162
1539732878680201,-1.6174563210497581,-10.833905546654478,8.087281605249018
1539732878696188,0.8850232700083325,-13.824673838406852,3.5095750362402214
1539732878712174,3.0823224231326094,-14.068818188753994,0.15259021896690683
1539732878728160,5.828946364538069,-12.054627298390187,-0.09155413138023505
1539732878744147,9.063859006637585,-9.185931181811156,0.5798428320745188
1539732878760133,11.688410772869474,-6.195162890058782,0.45777065690094787
1539732878776120,13.64156557564661,-4.119935912108076,-0.03051804379333589
1539732878792106,14.862287327382319,-2.5940337224383256,-0.8239871824216607
1539732878808093,15.533684290836845,-1.1291676203554744,-1.9226367589837992
1539732878824079,15.716792553597315,0.5798428320745188,-2.7771419851987957
1539732878840066,15.350576028076603,2.166781109330941,-3.2043945983061803
1539732878856052,14.740215152208748,2.532997634851654,-4.486152437628789
1539732878872038,13.946746013580423,2.288853284504512,-6.561379415579495
1539732878888025,13.153276874952326,1.6784924086366573,-8.209353780422589
1539732878904011,12.23773556115043,1.1291676203554744,-8.880750743877343
1539732878919998,11.749446860456146,0.15259021896690683,-9.55214770733187
1539732878935984,11.627374685282575,-0.5188067444876197,-10.162508583199724
1539732878951971,11.505302510109004,-1.0681315327688026,-10.406652933546866
1539732878967957,11.261158159761862,-1.4343480582895154,-10.406652933546866
1539732878983917,10.89494163424115,-1.9226367589837992,-10.711833371480907
1539732878999903,10.772869459067579,-1.983672846570471,-10.833905546654478
1539732879015890,10.711833371480907,-1.3122758831159445,-10.162508583199724
1539732879031876,10.833905546654478,-0.6408789196611906,-9.063859006637585
1539732879047863,11.139085984588291,0.33569848172737693,-8.270389868009488
1539732879063849,11.749446860456146,0.9460593575952316,-7.904173342488775
1539732879079836,13.092240787365427,1.4953841458761872,-7.721065079728305
1539732879095822,14.007782101167322,2.410925459678083,-7.11070420386045
1539732879111808,14.679179064621849,3.2654306858930795,-6.073090714885211
1539732879127795,15.228503852903032,4.669260700389032,-4.791332875562603
1539732879143781,15.411612115663274,5.584802014190927,-2.7771419851987957
1539732879159768,14.92332341496899,5.523765926604028,-1.4343480582895154
1539732879175754,13.885709925993751,4.60822461280236,-0.9460593575952316
1539732879191741,13.153276874952326,2.655069810025225,0.03051804379333589
1539732879207727,12.970168612191856,-0.3967345693140487,1.4953841458761872
1539732879223713,14.312962539101136,-5.828946364538069,5.096513313496644
1539732879239700,22.125581750209676,-8.6366063935302,17.059586480506596
1539732879255686,24.994277866788707,-3.692683299000464,30.60959792477297
1539732879271673,22.79697871366443,1.4343480582895154,42.45059891660935
1539732879287659,14.251926451514464,-6.439307240405924,51.97222858014766
1539732879303650,11.810482948043045,-17.303730830853738,53.37605859464384
1539732879319636,14.618142977035177,-18.402380407415876,48.73731593804814
1539732879335622,20.11139085984587,-13.64156557564661,42.99992370489031
1539732879351609,25.42153047989609,-9.124895094224485,39.154650186922936
1539732879367595,30.30441748683893,-2.105745021744042,39.64293888761722
1539732879383582,35.37041275654224,6.012054627298312,44.7089341573203
1539732879399568,40.9857328145265,13.275349050125897,50.20218204013099
1539732879415555,46.723125047684334,14.251926451514464,56.61097123674335
1539732879431541,48.06591897459339,14.98435950255589,60.02899214160334
1539732879447528,46.47898069733719,17.975127794308264,56.67200732433048
1539732879463514,42.14541847867531,17.914091706721592,47.08934157320505
1539732879479500,35.79766536964962,16.1440451667047,33.4172579537651
1539732879495487,29.38887617303726,11.07804989700162,20.23346303501944
1539732879511473,23.407339589532285,5.523765926604028,10.589761196307336
1539732879527460,16.571297779812312,2.288853284504512,5.828946364538069
1539732879543446,7.843137254901876,1.2512397955290453,4.242008087281647
1539732879559433,-2.105745021744042,-0.5188067444876197,2.8381780727854675
1539732879575419,-11.871519035629717,-3.875791561760934,-0.33569848172737693
1539732879591405,-20.660715648126825,-5.645838101777599,-4.974441138323073
1539732879607392,-29.14473182269012,-6.927595941100208,-10.833905546654478
1539732879623352,-37.20149538414603,-9.979400320439481,-17.54787518120088
1539732879639338,-42.57267109178315,-12.4208438239109,-23.651483939879427
1539732879655324,-43.48821240558482,-12.970168612191856,-27.435721370260126
1539732879671310,-39.94811932555126,-10.833905546654478,-28.290226596475122
1539732879687296,-33.78347447928604,-6.256198977645454,-27.435721370260126
1539732879703282,-27.069504844739413,0.15259021896690683,-25.543602655069662
1539732879719267,-20.843823910887295,5.462729839017356,-23.651483939879427
1539732879735253,-15.899900816357558,7.843137254901876,-22.79697871366443
1539732879751239,-14.312962539101136,10.467689021133765,-22.79697871366443
1539732879767225,-15.350576028076603,11.627374685282575,-23.102159151598244
1539732879783211,-17.54787518120088,11.07804989700162,-23.285267414358714
1539732879799197,-19.623102159151586,10.223544670786623,-22.8580148012511
1539732879815183,-19.9893186846723,8.087281605249018,-21.57625696192872
1539732879831169,-19.256885633630873,7.598992904554734,-20.11139085984587
1539732879847155,-18.097199969481835,7.354848554207592,-18.76859693293659
1539732879863141,-16.815442130159454,5.828946364538069,-18.280308232242305
1539732879879127,-16.02197299153113,5.096513313496644,-19.195849546043974
1539732879895113,-15.045395590142562,4.486152437628789,-20.965896086060866
1539732879911099,-13.58052948805971,4.730296787975931,-22.61387045090396
1539732879927085,-10.955977721828049,5.157549401083315,-23.651483939879427
1539732879943084,-6.9886320286868795,5.76791027695117,-23.95666437781324
1539732879959070,-3.2043945983061803,8.026245517662346,-23.346303501945386
1539732879975056,0.03051804379333589,9.185931181811156,-20.782787823300396
1539732879991042,2.4719615472647547,7.660028992141633,-16.44922560463874
1539732880007028,4.303044174868319,4.058899824521177,-11.07804989700162
1539732880023014,5.828946364538069,0.33569848172737693,-5.523765926604028
1539732880039000,7.904173342488775,-2.227817196917613,-1.1291676203554744
1539732880054986,5.462729839017356,-2.5940337224383256,1.3122758831159445
1539732880070972,1.3733119707026162,-5.401693751430457,1.4343480582895154
1539732880086958,-1.739528496223329,-9.55214770733187,-0.5798428320745188
1539732880102944,-2.410925459678083,-11.810482948043045,-2.410925459678083
1539732880118930,-1.5564202334630863,-11.627374685282575,-2.105745021744042
1539732880134916,-0.9460593575952316,-9.796292057679011,-0.03051804379333589
1539732880150902,-0.7629510948347615,-7.2938124666209205,2.166781109330941
1539732880166888,-0.7629510948347615,-5.462729839017356,3.2043945983061803
1539732880182874,-0.7019150072480898,-3.692683299000464,3.1433585107195086
1539732880198860,-1.0681315327688026,-1.0681315327688026,2.288853284504512
1539732880214846,-1.3122758831159445,0.6408789196611906,0.7019150072480898
1539732880230832,-1.3122758831159445,1.3122758831159445,-1.1291676203554744
1539732880246818,-1.4953841458761872,2.5940337224383256,-2.288853284504512
1539732880262786,-1.8005645838102282,3.1433585107195086,-2.7161058976118966
1539732880278772,-2.288853284504512,3.0823224231326094,-3.570611123826893
1539732880294758,-2.8381780727854675,2.227817196917613,-4.791332875562603
1539732880310744,-3.4485389486533222,1.3122758831159445,-5.523765926604028
1539732880326730,-3.814755474174035,0.9460593575952316,-5.76791027695117
1539732880342716,-3.570611123826893,0.7019150072480898,-5.401693751430457
1539732880358702,-2.8381780727854675,0.33569848172737693,-4.730296787975931
1539732880374688,-1.8005645838102282,-0.15259021896690683,-3.997863736934505
1539732880390674,-0.5798428320745188,-0.15259021896690683,-3.3264667734797513
1539732880406660,0.45777065690094787,0.7629510948347615,-2.410925459678083
1539732880422646,1.1902037079423735,1.1902037079423735,-1.5564202334630863
1539732880438632,1.2512397955290453,1.2512397955290453,-1.6174563210497581
1539732880454618,0.8239871824216607,1.1902037079423735,-1.739528496223329
1539732880470604,0.45777065690094787,0.8239871824216607,-1.6174563210497581
1539732880486590,-0.213626306553806,0.5188067444876197,-1.5564202334630863
1539732880502576,-1.2512397955290453,0.15259021896690683,-1.5564202334630863
1539732880518562,-2.7771419851987957,-0.09155413138023505,-1.6174563210497581
1539732880534548,-3.936827649347606,-1.1291676203554744,-2.288853284504512
1539732880550534,-4.180971999694748,-2.655069810025225,-3.7537193865873633
1539732880566520,-4.60822461280236,-4.058899824521177,-5.95101853971164
1539732880582519,-4.852368963149502,-5.523765926604028,-8.6366063935302
1539732880598505,-3.4485389486533222,-5.2185854886702145,-10.101472495613052
1539732880614491,-0.5188067444876197,-3.5095750362402214,-9.002822919050914
1539732880630477,2.8381780727854675,-1.5564202334630863,-6.500343327992596
1539732880646463,5.584802014190927,0.09155413138023505,-3.692683299000464
1539732880662449,6.378271152819025,0.9460593575952316,-1.4953841458761872
1539732880678435,5.584802014190927,0.7629510948347615,-0.213626306553806
1539732880694421,4.364080262455218,0.09155413138023505,0.5798428320745188
1539732880710407,3.0823224231326094,-0.5798428320745188,1.3122758831159445
1539732880726393,1.6174563210497581,-1.0070954451819034,2.04470893415737
1539732880742379,0.09155413138023505,-1.5564202334630863,2.3498893720911838
1539732880758365,-1.5564202334630863,-1.8616006713969,1.9226367589837992
1539732880774351,-3.3264667734797513,-2.3498893720911838,1.0681315327688026
1539732880790337,-4.42511635004189,-2.3498893720911838,0.6408789196611906
1539732880806323,-4.486152437628789,-1.8616006713969,0.5798428320745188
1539732880822309,-3.692683299000464,-1.2512397955290453,0.5188067444876197
1539732880838295,-2.4719615472647547,-0.5798428320745188,0.6408789196611906
1539732880854281,-1.2512397955290453,0.15259021896690683,0.8850232700083325
1539732880870267,0.09155413138023505,1.0681315327688026,1.0681315327688026
1539732880886253,1.2512397955290453,2.3498893720911838,1.3122758831159445
1539732880902252,1.6784924086366573,3.2654306858930795,1.3733119707026162
1539732880918238,1.3122758831159445,3.570611123826893,0.8850232700083325
1539732880934224,0.7019150072480898,2.9602502479590385,-0.09155413138023505
1539732880950210,0.15259021896690683,2.410925459678083,-1.0681315327688026
1539732880966196,-0.33569848172737693,1.983672846570471,-1.6174563210497581
1539732880982182,-0.9460593575952316,1.739528496223329,-1.6784924086366573
1539732880998168,-2.166781109330941,1.4343480582895154,-1.5564202334630863
1539732881014154,-3.0823224231326094,1.0070954451819034,-1.4953841458761872
1539732881030140,-3.5095750362402214,0.5188067444876197,-1.4343480582895154
1539732881046126,-3.2654306858930795,0.15259021896690683,-1.3122758831159445
1539732881062111,-2.8381780727854675,0.03051804379333589,-1.1902037079423735
1539732881078097,-2.166781109330941,0.15259021896690683,-1.0681315327688026
1539732881094083,-1.3122758831159445,0.2746623941404778,-0.8850232700083325
1539732881110069,-0.5188067444876197,0.2746623941404778,-0.7019150072480898
1539732881126055,0.33569848172737693,0.2746623941404778,-0.3967345693140487
1539732881142041,0.9460593575952316,0.33569848172737693,-0.15259021896690683
1539732881158027,1.3122758831159445,0.33569848172737693,-0.09155413138023505
1539732881174013,1.3733119707026162,0.2746623941404778,-0.2746623941404778
1539732881189999,1.1902037079423735,0.15259021896690683,-0.45777065690094787
1539732881205985,1.1291676203554744,-0.213626306553806,-0.3967345693140487
1539732881221954,0.9460593575952316,-0.45777065690094787,-0.2746623941404778
1539732881237940,0.5798428320745188,-0.33569848172737693,-0.15259021896690683
1539732881253926,-0.2746623941404778,-0.45777065690094787,-0.213626306553806
1539732881269912,-0.9460593575952316,-0.6408789196611906,-0.5188067444876197
1539732881285898,-1.4343480582895154,-0.8239871824216607,-0.8850232700083325
1539732881301884,-1.6174563210497581,-0.7019150072480898,-1.0070954451819034
1539732881317870,-1.8005645838102282,-0.33569848172737693,-0.8239871824216607
1539732881333856,-1.8616006713969,0.33569848172737693,-0.33569848172737693
1539732881349842,-1.6174563210497581,0.3967345693140487,0.03051804379333589
1539732881365828,-1.3733119707026162,0.15259021896690683,-0.6408789196611906
1539732881381814,-1.1902037079423735,0.09155413138023505,-1.3733119707026162
1539732881397800,-1.0681315327688026,0.09155413138023505,-1.6784924086366573
1539732881413786,-0.7629510948347615,0.213626306553806,-1.8005645838102282
1539732881429772,-0.5188067444876197,0.45777065690094787,-1.6174563210497581
1539732881445757,-0.33569848172737693,0.45777065690094787,-1.4343480582895154
1539732881461743,-0.15259021896690683,0.5798428320745188,-1.4343480582895154
1539732881477729,-0.09155413138023505,0.5188067444876197,-1.4953841458761872
1539732881493715,-0.15259021896690683,0.5188067444876197,-1.4953841458761872
1539732881509701,-0.03051804379333589,0.45777065690094787,-1.4343480582895154
1539732881525687,0.09155413138023505,0.45777065690094787,-1.2512397955290453
1539732881541656,0.09155413138023505,0.3967345693140487,-1.1291676203554744
1539732881557642,0.03051804379333589,0.3967345693140487,-0.9460593575952316
1539732881573628,-0.15259021896690683,0.5188067444876197,-0.7629510948347615
1539732881589614,-0.213626306553806,0.3967345693140487,-0.5798428320745188
1539732881605600,-0.5188067444876197,0.15259021896690683,-0.8850232700083325
1539732881621586,-0.7019150072480898,-0.09155413138023505,-1.0070954451819034
1539732881637572,-0.6408789196611906,-0.15259021896690683,-1.0681315327688026
1539732881653558,-0.5188067444876197,-0.09155413138023505,-0.8850232700083325
1539732881669544,-0.45777065690094787,0.03051804379333589,-0.6408789196611906
1539732881685530,-0.45777065690094787,0.09155413138023505,-0.5798428320745188
1539732881701516,-0.3967345693140487,0.03051804379333589,-0.7019150072480898
1539732881717502,-0.2746623941404778,0.15259021896690683,-0.6408789196611906
1539732881733488,-0.15259021896690683,0.2746623941404778,-0.7019150072480898
1539732881749474,-0.15259021896690683,0.2746623941404778,-0.8850232700083325
1539732881765460,-0.2746623941404778,0.45777065690094787,-1.0681315327688026
1539732881781446,-0.2746623941404778,0.5798428320745188,-1.1902037079423735
1539732881797432,-0.213626306553806,0.8239871824216607,-1.0681315327688026
1539732881813418,-0.2746623941404778,0.8239871824216607,-0.9460593575952316
1539732881829404,-0.2746623941404778,0.9460593575952316,-0.8239871824216607
1539732881845389,-0.15259021896690683,1.1291676203554744,-0.7629510948347615
1539732881861389,-0.15259021896690683,1.1291676203554744,-0.7019150072480898
1539732881877375,-0.2746623941404778,1.1902037079423735,-0.7019150072480898
1539732881893361,-0.2746623941404778,1.2512397955290453,-0.5798428320745188
1539732881909347,0.09155413138023505,1.2512397955290453,-0.45777065690094787
1539732881925333,0.2746623941404778,1.4343480582895154,-0.45777065690094787
1539732881941319,0.213626306553806,1.1291676203554744,-0.45777065690094787
1539732881957305,0.33569848172737693,0.8239871824216607,-0.5798428320745188
1539732881973291,0.5798428320745188,0.7629510948347615,-0.45777065690094787
1539732881989277,0.7019150072480898,0.6408789196611906,-0.09155413138023505
1539732882005262,0.7629510948347615,0.5188067444876197,0.03051804379333589
1539732882021248,0.7629510948347615,0.3967345693140487,-0.03051804379333589
1539732882037234,0.7629510948347615,0.2746623941404778,-0.03051804379333589
1539732882053220,0.7019150072480898,0.213626306553806,-0.09155413138023505
1539732882069206,0.6408789196611906,0.213626306553806,-0.15259021896690683
1539732882085192,0.7019150072480898,0.15259021896690683,-0.09155413138023505
1539732882101178,0.6408789196611906,0.09155413138023505,-0.15259021896690683
1539732882117164,0.6408789196611906,0.15259021896690683,-0.213626306553806
1539732882133150,0.5798428320745188,0.15259021896690683,-0.33569848172737693
1539732882149136,0.5188067444876197,0.15259021896690683,-0.3967345693140487
1539732882165122,0.6408789196611906,0.213626306553806,-0.3967345693140487
1539732882181091,0.5188067444876197,0.33569848172737693,-0.5798428320745188
1539732882197077,0.45777065690094787,0.3967345693140487,-0.5798428320745188
1539732882213063,0.5798428320745188,0.5798428320745188,-0.45777065690094787
1539732882229049,0.5798428320745188,0.7019150072480898,-0.3967345693140487
1539732882245035,0.5188067444876197,0.6408789196611906,-0.6408789196611906
1539732882261021,0.5798428320745188,0.7629510948347615,-0.8850232700083325
1539732882277007,0.7019150072480898,0.8850232700083325,-0.9460593575952316
1539732882292993,0.5798428320745188,0.9460593575952316,-0.9460593575952316
1539732882308979,0.33569848172737693,0.7019150072480898,-1.0070954451819034
1539732882324965,0.3967345693140487,0.5188067444876197,-1.0681315327688026
1539732882340951,0.33569848172737693,0.5798428320745188,-0.9460593575952316
1539732882356937,0.15259021896690683,0.45777065690094787,-0.6408789196611906
1539732882372923,0.15259021896690683,0.45777065690094787,-0.5188067444876197
1539732882388908,0.2746623941404778,0.3967345693140487,-0.2746623941404778
1539732882404894,0.33569848172737693,0.2746623941404778,-0.213626306553806
1539732882420880,0.3967345693140487,0.213626306553806,-0.213626306553806
1539732882436866,0.45777065690094787,0.213626306553806,-0.33569848172737693
1539732882452852,0.6408789196611906,0.2746623941404778,-0.3967345693140487
1539732882468838,0.6408789196611906,0.33569848172737693,-0.3967345693140487
1539732882484824,0.5798428320745188,0.3967345693140487,-0.45777065690094787
1539732882500824,0.5188067444876197,0.45777065690094787,-0.5188067444876197
1539732882516810,0.5798428320745188,0.6408789196611906,-0.5798428320745188
1539732882532796,0.45777065690094787,0.8239871824216607,-0.7019150072480898
1539732882548781,0.15259021896690683,0.7629510948347615,-0.8850232700083325
1539732882564767,0.09155413138023505,0.8239871824216607,-0.9460593575952316
1539732882580753,0.03051804379333589,1.0070954451819034,-0.9460593575952316
1539732882596739,-0.09155413138023505,1.0070954451819034,-0.9460593575952316
1539732882612725,-0.09155413138023505,1.0681315327688026,-1.0070954451819034
1539732882628711,-0.15259021896690683,0.8850232700083325,-1.0681315327688026
1539732882644697,-0.2746623941404778,0.9460593575952316,-1.0070954451819034
1539732882660683,-0.213626306553806,0.9460593575952316,-0.9460593575952316
1539732882676669,0.03051804379333589,0.9460593575952316,-0.8850232700083325
1539732882692655,0.09155413138023505,1.0070954451819034,-0.8239871824216607
1539732882708641,0.09155413138023505,1.0070954451819034,-0.8239871824216607
1539732882724627,0.15259021896690683,1.0070954451819034,-0.8850232700083325
1539732882740613,0.213626306553806,1.1291676203554744,-0.8850232700083325
1539732882756599,0.213626306553806,1.0681315327688026,-0.7629510948347615
1539732882772585,0.03051804379333589,0.8239871824216607,-0.7629510948347615
1539732882788571,-0.03051804379333589,0.6408789196611906,-0.8239871824216607
1539732882804557,0.09155413138023505,0.7019150072480898,-0.6408789196611906
1539732882820556,0.09155413138023505,0.6408789196611906,-0.3967345693140487
1539732882836542,0.09155413138023505,0.6408789196611906,-0.2746623941404778
1539732882852528,0.03051804379333589,0.7629510948347615,-0.33569848172737693
1539732882868514,0.15259021896690683,0.7629510948347615,-0.3967345693140487
1539732882884500,0.15259021896690683,0.8850232700083325,-0.5188067444876197
1539732882900486,0.15259021896690683,0.8850232700083325,-0.7019150072480898
1539732882916472,0.213626306553806,0.8239871824216607,-0.9460593575952316
1539732882932458,0.33569848172737693,0.9460593575952316,-0.9460593575952316
1539732882948444,0.3967345693140487,1.0681315327688026,-0.8239871824216607
1539732882964430,0.33569848172737693,1.1291676203554744,-0.8239871824216607
1539732882980416,0.3967345693140487,1.0681315327688026,-0.8850232700083325
1539732882996402,0.3967345693140487,0.9460593575952316,-0.9460593575952316
1539732883012388,0.45777065690094787,0.8239871824216607,-0.8850232700083325
1539732883028374,0.3967345693140487,0.5188067444876197,-1.3122758831159445
1539732883044360,0.15259021896690683,0.7629510948347615,-1.3122758831159445
1539732883060346,0.33569848172737693,0.7019150072480898,-0.7629510948347615
1539732883076332,0.5798428320745188,1.0070954451819034,-0.6408789196611906
1539732883092318,0.45777065690094787,0.7629510948347615,-0.7629510948347615
1539732883108304,0.2746623941404778,0.45777065690094787,-0.9460593575952316
1539732883124290,0.2746623941404778,0.33569848172737693,-1.1902037079423735
1539732883140258,0.3967345693140487,0.45777065690094787,-0.9460593575952316
1539732883156244,0.5798428320745188,0.5188067444876197,-0.7019150072480898
1539732883172230,0.45777065690094787,0.5798428320745188,-0.7019150072480898
1539732883188216,0.33569848172737693,0.2746623941404778,-0.8850232700083325
1539732883204202,0.3967345693140487,0.09155413138023505,-1.0070954451819034
1539732883220188,0.5188067444876197,0.09155413138023505,-1.1291676203554744
1539732883236174,0.45777065690094787,0.09155413138023505,-1.0070954451819034
1539732883252160,0.33569848172737693,0.15259021896690683,-0.8239871824216607
1539732883268146,0.3967345693140487,0.03051804379333589,-0.8850232700083325
1539732883284132,0.5188067444876197,0.03051804379333589,-0.8850232700083325
1539732883300118,0.5188067444876197,-0.03051804379333589,-0.8239871824216607
1539732883316104,0.3967345693140487,0.03051804379333589,-0.7019150072480898
1539732883332090,0.3967345693140487,0.15259021896690683,-0.7019150072480898
1539732883348076,0.33569848172737693,0.09155413138023505,-0.7629510948347615
1539732883364062,0.33569848172737693,0.03051804379333589,-0.8239871824216607
1539732883380048,0.2746623941404778,-0.03051804379333589,-0.9460593575952316
1539732883396034,0.33569848172737693,-0.09155413138023505,-1.0070954451819034
1539732883412020,0.45777065690094787,-0.03051804379333589,-0.8850232700083325
1539732883428006,0.33569848172737693,-0.03051804379333589,-0.7019150072480898
1539732883443992,0.213626306553806,-0.09155413138023505,-0.8239871824216607
1539732883459991,0.213626306553806,-0.33569848172737693,-1.1291676203554744
1539732883475977,0.15259021896690683,-0.3967345693140487,-1.2512397955290453
1539732883491963,0.213626306553806,-0.3967345693140487,-1.2512397955290453
1539732883507949,0.213626306553806,-0.7629510948347615,-1.4343480582895154
1539732883523935,0.03051804379333589,-0.8850232700083325,-1.6784924086366573
1539732883539921,-0.03051804379333589,-0.6408789196611906,-1.739528496223329
1539732883555907,-0.03051804379333589,-0.45777065690094787,-1.4953841458761872
1539732883571893,0.09155413138023505,-0.09155413138023505,-1.3733119707026162
1539732883587879,0.15259021896690683,-0.03051804379333589,-1.2512397955290453
1539732883603865,0.213626306553806,0.15259021896690683,-1.0681315327688026
1539732883619851,0.3967345693140487,0.213626306553806,-0.7629510948347615
1539732883635837,0.5188067444876197,0.3967345693140487,-0.3967345693140487
1539732883651823,0.5798428320745188,0.6408789196611906,-0.213626306553806
1539732883667809,0.45777065690094787,0.6408789196611906,-0.213626306553806
1539732883683795,0.33569848172737693,0.7629510948347615,-0.33569848172737693
1539732883699781,0.33569848172737693,0.7629510948347615,-0.3967345693140487
1539732883715767,0.213626306553806,0.8239871824216607,-0.2746623941404778
1539732883731752,0.09155413138023505,0.7019150072480898,-0.33569848172737693
1539732883747738,0.03051804379333589,0.7019150072480898,-0.45777065690094787
1539732883763724,0.03051804379333589,0.5798428320745188,-0.5798428320745188
1539732883779693,0.09155413138023505,0.45777065690094787,-0.5188067444876197
1539732883795679,0.15259021896690683,0.5188067444876197,-0.45777065690094787
1539732883811665,0.33569848172737693,0.6408789196611906,-0.2746623941404778
1539732883827651,0.45777065690094787,0.7629510948347615,-0.213626306553806
1539732883843637,0.5188067444876197,0.6408789196611906,-0.2746623941404778
1539732883859623,0.7019150072480898,0.5798428320745188,-0.45777065690094787
1539732883875609,0.8239871824216607,0.7019150072480898,-0.45777065690094787
1539732883891595,0.8850232700083325,0.5798428320745188,-0.213626306553806
1539732883907581,0.9460593575952316,0.6408789196611906,-0.15259021896690683
1539732883923567,0.7629510948347615,0.5798428320745188,-0.15259021896690683
1539732883939553,0.45777065690094787,0.3967345693140487,-0.2746623941404778
1539732883955539,0.213626306553806,0.5188067444876197,-0.45777065690094787
1539732883971525,0.15259021896690683,0.3967345693140487,-0.45777065690094787
1539732883987511,0.09155413138023505,0.5188067444876197,-0.3967345693140487
1539732884003497,0.03051804379333589,0.6408789196611906,-0.45777065690094787
1539732884019483,-0.03051804379333589,0.7019150072480898,-0.6408789196611906
1539732884035469,-0.03051804379333589,0.8239871824216607,-0.7629510948347615
1539732884051455,0.15259021896690683,0.7629510948347615,-0.8850232700083325
1539732884067441,0.33569848172737693,1.0070954451819034,-0.8850232700083325
1539732884083427,0.45777065690094787,1.0681315327688026,-0.8239871824216607
1539732884099426,0.5798428320745188,1.1291676203554744,-0.8239871824216607
1539732884115412,0.45777065690094787,1.1291676203554744,-0.8850232700083325
1539732884131398,0.33569848172737693,0.8850232700083325,-1.0070954451819034
1539732884147384,0.2746623941404778,0.8239871824216607,-1.1291676203554744
1539732884163370,0.213626306553806,0.7629510948347615,-1.0070954451819034
1539732884179356,0.213626306553806,0.6408789196611906,-0.6408789196611906
1539732884195342,0.15259021896690683,0.6408789196611906,-0.45777065690094787
1539732884211328,-0.09155413138023505,0.3967345693140487,-0.5798428320745188
1539732884227314,-0.213626306553806,0.33569848172737693,-0.7629510948347615
1539732884243300,-0.213626306553806,0.2746623941404778,-0.8850232700083325
1539732884259286,-0.213626306553806,0.213626306553806,-0.8850232700083325
1539732884275272,-0.15259021896690683,0.33569848172737693,-0.8850232700083325
1539732884291257,0.03051804379333589,0.5188067444876197,-0.8239871824216607
1539732884307243,0.2746623941404778,0.7019150072480898,-0.7019150072480898
1539732884323229,0.3967345693140487,0.5798428320745188,-0.7019150072480898
1539732884339215,0.5798428320745188,0.45777065690094787,-0.8850232700083325
1539732884355201,0.6408789196611906,0.5188067444876197,-0.8239871824216607
1539732884371187,0.5798428320745188,0.5188067444876197,-0.7019150072480898
1539732884387173,0.3967345693140487,0.3967345693140487,-0.6408789196611906
1539732884403159,0.33569848172737693,0.2746623941404778,-0.6408789196611906
1539732884419128,0.213626306553806,0.213626306553806,-0.6408789196611906
1539732884435114,0.09155413138023505,0.213626306553806,-0.5798428320745188
1539732884451100,-0.03051804379333589,0.213626306553806,-0.6408789196611906
1539732884467086,-0.15259021896690683,0.33569848172737693,-0.7629510948347615
1539732884483072,-0.33569848172737693,0.2746623941404778,-0.9460593575952316
1539732884499058,-0.33569848172737693,0.45777065690094787,-1.1902037079423735
1539732884515044,-0.33569848172737693,0.5188067444876197,-1.3733119707026162
1539732884531030,-0.2746623941404778,0.7019150072480898,-1.5564202334630863
1539732884547016,-0.15259021896690683,0.7629510948347615,-1.4953841458761872
1539732884563002,0.03051804379333589,0.8850232700083325,-1.4343480582895154
1539732884578988,0.213626306553806,0.8850232700083325,-1.3122758831159445
1539732884594974,0.2746623941404778,0.6408789196611906,-1.2512397955290453
1539732884610960,0.2746623941404778,0.45777065690094787,-1.3122758831159445
1539732884626946,0.2746623941404778,0.33569848172737693,-1.2512397955290453
1539732884642932,0.2746623941404778,0.3967345693140487,-0.9460593575952316
1539732884658918,0.2746623941404778,0.33569848172737693,-0.7019150072480898
1539732884674903,0.15259021896690683,-0.03051804379333589,-0.7019150072480898
1539732884690889,-0.03051804379333589,-0.2746623941404778,-0.7629510948347615
1539732884706875,0.03051804379333589,-0.2746623941404778,-0.7019150072480898
1539732884722861,0.15259021896690683,-0.213626306553806,-0.6408789196611906
1539732884738861,0.213626306553806,-0.15259021896690683,-0.5798428320745188
1539732884754847,0.2746623941404778,-0.03051804379333589,-0.5188067444876197
1539732884770833,0.33569848172737693,-0.09155413138023505,-0.5798428320745188
1539732884786819,0.2746623941404778,-0.09155413138023505,-0.7019150072480898
1539732884802805,0.2746623941404778,-0.03051804379333589,-0.8850232700083325
1539732884818791,0.33569848172737693,0.15259021896690683,-1.0070954451819034
1539732884834777,0.213626306553806,0.2746623941404778,-0.9460593575952316
1539732884850762,0.03051804379333589,0.2746623941404778,-1.0681315327688026
1539732884866748,-0.15259021896690683,0.33569848172737693,-1.3733119707026162
1539732884882734,-0.15259021896690683,0.3967345693140487,-1.4953841458761872
1539732884898720,-0.15259021896690683,0.3967345693140487,-1.5564202334630863
1539732884914706,-0.15259021896690683,0.3967345693140487,-1.4953841458761872
1539732884930692,-0.15259021896690683,0.45777065690094787,-1.3733119707026162
1539732884946678,-0.03051804379333589,0.5188067444876197,-1.2512397955290453
1539732884962664,0.03051804379333589,0.6408789196611906,-1.1902037079423735
1539732884978650,0.03051804379333589,0.45777065690094787,-1.2512397955290453
1539732884994636,0.03051804379333589,0.45777065690094787,-1.2512397955290453
1539732885010622,0.09155413138023505,0.5188067444876197,-1.1291676203554744
1539732885026608,0.15259021896690683,0.5188067444876197,-1.0070954451819034
1539732885042594,0.2746623941404778,0.5188067444876197,-0.8239871824216607
1539732885058563,0.03051804379333589,0.33569848172737693,-0.7629510948347615
1539732885074549,-0.03051804379333589,0.213626306553806,-0.8850232700083325
1539732885090535,0.03051804379333589,0.213626306553806,-0.9460593575952316
1539732885106521,0.09155413138023505,0.2746623941404778,-0.7019150072480898
1539732885122507,0.03051804379333589,0.2746623941404778,-0.45777065690094787
1539732885138493,-0.03051804379333589,0.09155413138023505,-0.6408789196611906
1539732885154479,-0.03051804379333589,0.03051804379333589,-0.7629510948347615
1539732885170465,0.15259021896690683,0.09155413138023505,-0.5798428320745188
1539732885186451,0.3967345693140487,0.09155413138023505,-0.45777065690094787
1539732885202437,0.45777065690094787,0.2746623941404778,-0.5188067444876197
1539732885218423,0.5188067444876197,0.33569848172737693,-0.5188067444876197
1539732885234408,0.5188067444876197,0.3967345693140487,-0.45777065690094787
1539732885250394,0.5188067444876197,0.5188067444876197,-0.5188067444876197
1539732885266380,0.5798428320745188,0.3967345693140487,-0.7629510948347615
1539732885282366,0.5798428320745188,0.5188067444876197,-0.8239871824216607
1539732885298352,0.5798428320745188,0.5798428320745188,-0.7629510948347615
1539732885314338,0.45777065690094787,0.7019150072480898,-0.8239871824216607
1539732885330324,0.33569848172737693,0.8239871824216607,-0.8239871824216607
1539732885346310,0.2746623941404778,0.8239871824216607,-0.8239871824216607
1539732885362296,0.2746623941404778,0.8850232700083325,-0.8239871824216607
1539732885378296,0.15259021896690683,0.8239871824216607,-0.9460593575952316
1539732885394281,0.213626306553806,0.7019150072480898,-0.9460593575952316
1539732885410267,0.213626306553806,0.7019150072480898,-0.8239871824216607
1539732885426253,0.213626306553806,0.8239871824216607,-0.7629510948347615
1539732885442239,0.2746623941404778,0.7019150072480898,-0.6408789196611906
1539732885458225,0.33569848172737693,0.7019150072480898,-0.5798428320745188
1539732885474211,0.45777065690094787,0.6408789196611906,-0.3967345693140487
1539732885490197,0.3967345693140487,-0.15259021896690683,-1.0681315327688026
1539732885506183,-0.2746623941404778,0.3967345693140487,-1.4343480582895154
1539732885522169,0.2746623941404778,0.5798428320745188,-0.5188067444876197
1539732885538155,0.7019150072480898,1.0681315327688026,-0.2746623941404778
1539732885554141,0.3967345693140487,0.8850232700083325,-0.5798428320745188
1539732885570127,0.09155413138023505,0.7629510948347615,-1.0681315327688026
1539732885586113,0.09155413138023505,0.7019150072480898,-1.1291676203554744
1539732885602099,0.2746623941404778,0.5188067444876197,-0.7019150072480898
1539732885618085,0.2746623941404778,0.6408789196611906,-0.7629510948347615
1539732885634071,0.213626306553806,0.5188067444876197,-0.7629510948347615
1539732885650057,0.2746623941404778,0.5798428320745188,-0.7629510948347615
1539732885666043,0.2746623941404778,0.6408789196611906,-0.6408789196611906
1539732885682029,0.3967345693140487,0.7629510948347615,-0.6408789196611906
1539732885697998,0.3967345693140487,0.7629510948347615,-0.6408789196611906
1539732885713984,0.2746623941404778,0.8239871824216607,-0.7629510948347615
1539732885729970,0.33569848172737693,0.8239871824216607,-0.9460593575952316
1539732885745956,0.45777065690094787,0.8850232700083325,-0.9460593575952316
1539732885761942,0.45777065690094787,1.0070954451819034,-0.8850232700083325
1539732885777928,0.3967345693140487,0.9460593575952316,-0.8850232700083325
1539732885793913,0.33569848172737693,0.8850232700083325,-1.0070954451819034
1539732885809899,0.2746623941404778,0.8239871824216607,-1.0070954451819034
1539732885825885,0.213626306553806,0.7629510948347615,-0.9460593575952316
1539732885841871,0.213626306553806,0.6408789196611906,-0.8850232700083325
1539732885857857,0.15259021896690683,0.3967345693140487,-0.8239871824216607
1539732885873843,0.15259021896690683,0.15259021896690683,-0.8239871824216607
1539732885889829,0.15259021896690683,0.09155413138023505,-0.7629510948347615
1539732885905815,0.3967345693140487,-0.09155413138023505,-0.3967345693140487
1539732885921801,0.5188067444876197,-0.2746623941404778,-0.2746623941404778
1539732885937787,0.5798428320745188,-0.213626306553806,-0.15259021896690683
1539732885953773,0.7629510948347615,-0.45777065690094787,-0.213626306553806
1539732885969759,0.8850232700083325,-0.2746623941404778,-0.15259021896690683
1539732885985745,0.8850232700083325,-0.2746623941404778,0.03051804379333589
1539732886001731,1.0070954451819034,-0.33569848172737693,-0.09155413138023505
1539732886017730,0.8850232700083325,-0.2746623941404778,-0.3967345693140487
1539732886033716,0.8850232700083325,-0.09155413138023505,-0.213626306553806
1539732886049702,0.7629510948347615,0.09155413138023505,-0.15259021896690683
1539732886065688,0.7019150072480898,0.15259021896690683,-0.3967345693140487
1539732886081674,0.45777065690094787,0.09155413138023505,-0.6408789196611906
1539732886097660,0.3967345693140487,0.15259021896690683,-0.7629510948347615
1539732886113646,0.213626306553806,0.2746623941404778,-0.8850232700083325
1539732886129632,0.213626306553806,0.5188067444876197,-0.7629510948347615
1539732886145618,0.213626306553806,0.6408789196611906,-0.7629510948347615
1539732886161604,0.15259021896690683,0.6408789196611906,-0.8239871824216607
1539732886177590,0.15259021896690683,0.5798428320745188,-0.8850232700083325
1539732886193576,0.2746623941404778,0.5798428320745188,-0.8850232700083325
1539732886209562,0.33569848172737693,0.7019150072480898,-0.8850232700083325
1539732886225548,0.33569848172737693,0.7629510948347615,-0.8850232700083325
1539732886241534,0.2746623941404778,0.7019150072480898,-0.8850232700083325
1539732886257520,0.213626306553806,0.7019150072480898,-0.9460593575952316
1539732886273506,0.33569848172737693,0.7019150072480898,-0.8850232700083325
1539732886289492,0.2746623941404778,0.7019150072480898,-0.8239871824216607
1539732886305478,0.33569848172737693,0.7019150072480898,-0.7019150072480898
1539732886321464,0.2746623941404778,0.7019150072480898,-0.6408789196611906
1539732886337432,0.15259021896690683,0.5798428320745188,-0.7019150072480898
1539732886353418,0.09155413138023505,0.5798428320745188,-0.8239871824216607
1539732886369404,0.09155413138023505,0.6408789196611906,-0.9460593575952316
1539732886385390,0.09155413138023505,0.5798428320745188,-1.0070954451819034
1539732886401376,0.15259021896690683,0.7019150072480898,-0.9460593575952316
1539732886417362,0.213626306553806,0.7629510948347615,-0.8239871824216607
1539732886433348,0.15259021896690683,0.7019150072480898,-0.8850232700083325
1539732886449334,0.03051804379333589,0.5188067444876197,-0.8850232700083325
1539732886465320,0.15259021896690683,0.5188067444876197,-0.8850232700083325
1539732886481306,0.33569848172737693,0.5188067444876197,-0.8239871824216607
1539732886497292,0.2746623941404778,0.5188067444876197,-0.6408789196611906
1539732886513278,0.213626306553806,0.33569848172737693,-0.7019150072480898
1539732886529264,0.213626306553806,0.2746623941404778,-0.8239871824216607
1539732886545250,0.15259021896690683,0.213626306553806,-0.8239871824216607
1539732886561236,0.15259021896690683,0.213626306553806,-0.7019150072480898
1539732886577222,0.213626306553806,0.2746623941404778,-0.6408789196611906
1539732886593208,0.15259021896690683,0.3967345693140487,-0.6408789196611906
1539732886609194,0.15259021896690683,0.3967345693140487,-0.7019150072480898
1539732886625180,0.15259021896690683,0.3967345693140487,-0.7629510948347615
1539732886641166,0.2746623941404778,0.33569848172737693,-0.7629510948347615
1539732886657165,0.45777065690094787,0.3967345693140487,-0.7019150072480898
1539732886673151,0.5798428320745188,0.45777065690094787,-0.5188067444876197
1539732886689137,0.2746623941404778,0.45777065690094787,-0.5798428320745188
1539732886705123,0.15259021896690683,0.213626306553806,-0.6408789196611906
1539732886721109,0.33569848172737693,0.2746623941404778,-0.5188067444876197
1539732886737095,0.5188067444876197,0.3967345693140487,-0.3967345693140487
1539732886753081,0.5798428320745188,0.2746623941404778,-0.5188067444876197
1539732886769067,0.45777065690094787,0.213626306553806,-0.6408789196611906
1539732886785053,0.2746623941404778,0.2746623941404778,-0.7019150072480898
1539732886801039,0.33569848172737693,0.3967345693140487,-0.7629510948347615
1539732886817025,0.3967345693140487,0.3967345693140487,-0.8850232700083325
1539732886833011,0.3967345693140487,0.5188067444876197,-1.0681315327688026
1539732886848997,0.5188067444876197,0.7019150072480898,-1.0681315327688026
1539732886864983,0.5798428320745188,0.8239871824216607,-1.0681315327688026
1539732886880969,0.6408789196611906,0.9460593575952316,-1.1902037079423735
1539732886896955,0.5188067444876197,0.8850232700083325,-1.3733119707026162
1539732886912941,0.5188067444876197,0.7629510948347615,-1.4343480582895154
1539732886928927,0.6408789196611906,0.8239871824216607,-1.4953841458761872
1539732886944913,0.7629510948347615,0.7629510948347615,-1.2512397955290453
1539732886960899,0.6408789196611906,0.6408789196611906,-1.1291676203554744
1539732886976867,0.3967345693140487,0.5188067444876197,-1.1902037079423735
1539732886992853,0.33569848172737693,0.2746623941404778,-1.3733119707026162
1539732887008839,0.213626306553806,0.09155413138023505,-1.3733119707026162
1539732887024825,0.03051804379333589,-0.03051804379333589,-1.3122758831159445
1539732887040811,-0.09155413138023505,-0.09155413138023505,-1.3122758831159445
1539732887056797,-0.213626306553806,-0.213626306553806,-1.3122758831159445
1539732887072783,-0.2746623941404778,-0.3967345693140487,-1.1902037079423735
1539732887088769,-0.03051804379333589,-0.8239871824216607,-1.0070954451819034
1539732887104755,0.2746623941404778,-1.0070954451819034,-0.7019150072480898
1539732887120741,0.5188067444876197,-1.0070954451819034,-0.5188067444876197
1539732887136727,0.5188067444876197,-1.0070954451819034,-0.5798428320745188
1539732887152713,0.5798428320745188,-1.0681315327688026,-0.7629510948347615
1539732887168699,0.6408789196611906,-0.8239871824216607,-0.8850232700083325
1539732887184685,0.7019150072480898,-0.7019150072480898,-0.9460593575952316
1539732887200671,0.8239871824216607,-0.5798428320745188,-1.1291676203554744
1539732887216657,0.8850232700083325,-0.45777065690094787,-1.2512397955290453
1539732887232643,0.8239871824216607,-0.33569848172737693,-1.3122758831159445
1539732887248629,0.8239871824216607,-0.2746623941404778,-1.2512397955290453
1539732887264615,0.7019150072480898,-0.15259021896690683,-1.1291676203554744
1539732887280601,0.5188067444876197,-0.09155413138023505,-1.0070954451819034
1539732887296600,0.213626306553806,-0.03051804379333589,-0.9460593575952316
1539732887312586,0.03051804379333589,-0.15259021896690683,-0.9460593575952316
1539732887328572,-0.2746623941404778,-0.15259021896690683,-1.0681315327688026
1539732887344558,-0.5188067444876197,-0.03051804379333589,-1.1902037079423735
1539732887360544,-0.5798428320745188,0.09155413138023505,-1.3122758831159445
1539732887376530,-0.6408789196611906,0.15259021896690683,-1.6174563210497581
1539732887392516,-0.7019150072480898,0.33569848172737693,-1.739528496223329
1539732887408502,-0.5798428320745188,0.45777065690094787,-1.6784924086366573
1539732887424488,-0.45777065690094787,0.5798428320745188,-1.5564202334630863
1539732887440474,-0.45777065690094787,0.7629510948347615,-1.4953841458761872
1539732887456460,-0.3967345693140487,0.5798428320745188,-1.5564202334630863
1539732887472446,-0.2746623941404778,0.45777065690094787,-1.5564202334630863
1539732887488432,-0.15259021896690683,0.45777065690094787,-1.4343480582895154
1539732887504418,0.03051804379333589,0.5188067444876197,-1.2512397955290453
1539732887520403,0.2746623941404778,0.45777065690094787,-1.0681315327688026
1539732887536389,0.5188067444876197,0.33569848172737693,-0.9460593575952316
1539732887552375,0.6408789196611906,0.09155413138023505,-0.8239871824216607
1539732887568361,0.8850232700083325,-0.09155413138023505,-0.7629510948347615
1539732887584347,0.9460593575952316,-0.09155413138023505,-0.5188067444876197
1539732887600333,0.8239871824216607,-0.03051804379333589,-0.5798428320745188
1539732887616302,0.6408789196611906,-0.213626306553806,-0.6408789196611906
1539732887632288,0.5798428320745188,-0.03051804379333589,-0.7019150072480898
1539732887648274,0.3967345693140487,0.09155413138023505,-0.6408789196611906
1539732887664260,0.33569848172737693,0.15259021896690683,-0.7629510948347615
1539732887680246,0.213626306553806,0.2746623941404778,-0.7629510948347615
1539732887696232,0.15259021896690683,0.2746623941404778,-0.7629510948347615
1539732887712218,0.09155413138023505,0.5188067444876197,-0.7629510948347615
1539732887728204,0.03051804379333589,0.45777065690094787,-0.7629510948347615
1539732887744190,0.09155413138023505,0.6408789196611906,-0.8239871824216607
1539732887760176,0.15259021896690683,0.8239871824216607,-0.8850232700083325
1539732887776162,0.213626306553806,0.9460593575952316,-0.9460593575952316
1539732887792148,0.213626306553806,0.9460593575952316,-1.0070954451819034
1539732887808134,0.2746623941404778,1.0070954451819034,-1.1291676203554744
1539732887824120,0.2746623941404778,1.0681315327688026,-1.2512397955290453
1539732887840106,0.3967345693140487,1.2512397955290453,-1.1291676203554744
1539732887856092,0.5188067444876197,1.4343480582895154,-0.9460593575952316
1539732887872078,0.3967345693140487,1.4343480582895154,-0.9460593575952316
1539732887888064,0.15259021896690683,1.3122758831159445,-1.1291676203554744
1539732887904049,-0.09155413138023505,1.2512397955290453,-1.3122758831159445
1539732887920035,-0.03051804379333589,1.1902037079423735,-1.3122758831159445
1539732887936035,0.03051804379333589,1.1291676203554744,-1.0070954451819034
1539732887952021,0.09155413138023505,1.1902037079423735,-0.7629510948347615
1539732887968007,0.15259021896690683,1.1902037079423735,-0.5188067444876197
1539732887983993,0.03051804379333589,1.1291676203554744,-0.45777065690094787
1539732887999979,0.03051804379333589,0.9460593575952316,-0.45777065690094787
1539732888015965,0.213626306553806,0.9460593575952316,-0.5188067444876197
1539732888031951,0.3967345693140487,0.8239871824216607,-0.45777065690094787
1539732888047937,0.45777065690094787,0.8239871824216607,-0.3967345693140487
1539732888063923,0.5798428320745188,0.7629510948347615,-0.33569848172737693
1539732888079908,0.6408789196611906,0.7629510948347615,-0.33569848172737693
1539732888095894,0.7019150072480898,0.8239871824216607,-0.33569848172737693
1539732888111880,0.7019150072480898,0.8239871824216607,-0.3967345693140487
1539732888127866,0.6408789196611906,0.8239871824216607,-0.45777065690094787
1539732888143852,0.5188067444876197,0.8850232700083325,-0.5188067444876197
1539732888159838,0.45777065690094787,0.8850232700083325,-0.6408789196611906
1539732888175824,0.2746623941404778,0.8850232700083325,-0.8239871824216607
1539732888191810,0.33569848172737693,0.7629510948347615,-0.7019150072480898
1539732888207796,0.3967345693140487,0.9460593575952316,-0.5798428320745188
1539732888223782,0.3967345693140487,0.9460593575952316,-0.5798428320745188
1539732888239768,0.3967345693140487,0.9460593575952316,-0.6408789196611906
1539732888255737,0.2746623941404778,0.9460593575952316,-0.6408789196611906
1539732888271723,0.09155413138023505,0.8850232700083325,-0.6408789196611906
1539732888287709,0.09155413138023505,0.7629510948347615,-0.7629510948347615
1539732888303695,0.15259021896690683,0.6408789196611906,-0.7019150072480898
1539732888319681,0.213626306553806,0.7019150072480898,-0.3967345693140487
1539732888335667,0.213626306553806,0.6408789196611906,-0.213626306553806
1539732888351653,0.213626306553806,0.5798428320745188,-0.3967345693140487
1539732888367639,0.2746623941404778,0.3967345693140487,-0.45777065690094787
1539732888383625,0.45777065690094787,0.45777065690094787,-0.45777065690094787
1539732888399611,0.5188067444876197,0.45777065690094787,-0.3967345693140487
1539732888415597,0.5188067444876197,0.5798428320745188,-0.3967345693140487
1539732888431583,0.5188067444876197,0.8239871824216607,-0.3967345693140487
1539732888447569,0.45777065690094787,0.7629510948347615,-0.5188067444876197
1539732888463554,0.5188067444876197,0.6408789196611906,-0.6408789196611906
1539732888479540,0.5188067444876197,0.5798428320745188,-0.8850232700083325
1539732888495526,0.45777065690094787,0.7629510948347615,-0.8850232700083325
1539732888511512,0.5798428320745188,0.9460593575952316,-0.7019150072480898
1539732888527498,0.3967345693140487,1.0070954451819034,-0.8239871824216607
1539732888543484,0.09155413138023505,0.8239871824216607,-1.0070954451819034
1539732888559470,-0.15259021896690683,0.9460593575952316,-1.2512397955290453
1539732888575470,-0.213626306553806,0.9460593575952316,-1.3122758831159445
1539732888591456,-0.33569848172737693,1.0681315327688026,-1.4343480582895154
1539732888607442,-0.33569848172737693,1.0070954451819034,-1.4343480582895154
1539732888623427,-0.33569848172737693,0.9460593575952316,-1.4343480582895154
1539732888639413,-0.2746623941404778,0.8850232700083325,-1.3733119707026162
1539732888655399,-0.15259021896690683,0.7019150072480898,-1.3122758831159445
1539732888671385,-0.09155413138023505,0.6408789196611906,-1.1291676203554744
1539732888687371,0.03051804379333589,0.45777065690094787,-0.9460593575952316
1539732888703357,0.15259021896690683,0.3967345693140487,-0.8850232700083325
1539732888719343,0.15259021896690683,0.213626306553806,-0.8239871824216607
1539732888735329,0.09155413138023505,0.09155413138023505,-0.8850232700083325
1539732888751315,0.03051804379333589,-0.09155413138023505,-0.8850232700083325
1539732888767301,0.15259021896690683,-0.09155413138023505,-0.8850232700083325
1539732888783287,0.09155413138023505,-0.09155413138023505,-0.8239871824216607
1539732888799273,0.09155413138023505,-0.09155413138023505,-0.7629510948347615
1539732888815259,-0.03051804379333589,-0.09155413138023505,-0.8239871824216607
1539732888831245,-0.03051804379333589,-0.09155413138023505,-0.8850232700083325
1539732888847231,-0.03051804379333589,-0.03051804379333589,-0.8850232700083325
1539732888863217,0.03051804379333589,-0.03051804379333589,-0.8239871824216607
1539732888879203,0.213626306553806,0.15259021896690683,-0.7629510948347615
1539732888895172,0.2746623941404778,0.213626306553806,-0.7019150072480898
1539732888911158,0.213626306553806,0.2746623941404778,-0.6408789196611906
1539732888927144,0.09155413138023505,0.15259021896690683,-0.7629510948347615
1539732888943130,0.15259021896690683,0.09155413138023505,-0.8850232700083325
1539732888959116,0.213626306553806,0.15259021896690683,-0.7019150072480898
1539732888975102,0.213626306553806,0.09155413138023505,-0.6408789196611906
1539732888991088,0.15259021896690683,0.03051804379333589,-0.6408789196611906
1539732889007074,0.15259021896690683,0.03051804379333589,-0.6408789196611906
1539732889023059,0.15259021896690683,0.15259021896690683,-0.7019150072480898
1539732889039045,0.15259021896690683,0.213626306553806,-0.7019150072480898
1539732889055031,0.09155413138023505,0.2746623941404778,-0.8239871824216607
1539732889071017,-0.03051804379333589,0.45777065690094787,-0.9460593575952316
1539732889087003,0.09155413138023505,0.6408789196611906,-1.0070954451819034
1539732889102989,0.15259021896690683,0.7629510948347615,-1.1291676203554744
1539732889118975,0.15259021896690683,0.8850232700083325,-1.3122758831159445
1539732889134961,0.15259021896690683,1.0681315327688026,-1.4343480582895154
1539732889150947,0.213626306553806,1.0681315327688026,-1.3733119707026162
1539732889166933,0.33569848172737693,1.1902037079423735,-1.3122758831159445
1539732889182919,0.33569848172737693,1.2512397955290453,-1.1902037079423735
1539732889198905,0.2746623941404778,1.1902037079423735,-1.3733119707026162
1539732889214904,0.09155413138023505,1.0070954451819034,-1.4343480582895154
1539732889230890,-0.03051804379333589,0.8239871824216607,-1.3733119707026162
1539732889246876,-0.03051804379333589,0.8239871824216607,-1.0070954451819034
1539732889262862,-0.03051804379333589,0.7019150072480898,-0.7629510948347615
1539732889278848,-0.213626306553806,0.45777065690094787,-0.7019150072480898
1539732889294834,-0.2746623941404778,0.2746623941404778,-0.7629510948347615
1539732889310820,-0.213626306553806,0.15259021896690683,-0.7019150072480898
1539732889326806,-0.15259021896690683,0.09155413138023505,-0.5798428320745188
1539732889342792,0.03051804379333589,0.213626306553806,-0.5798428320745188
1539732889358778,0.15259021896690683,0.33569848172737693,-0.6408789196611906
1539732889374764,0.33569848172737693,0.5188067444876197,-0.6408789196611906
1539732889390750,0.33569848172737693,0.45777065690094787,-0.8239871824216607
1539732889406736,0.3967345693140487,0.5798428320745188,-1.1291676203554744
1539732889422722,0.5188067444876197,0.7019150072480898,-1.1902037079423735
1539732889438708,0.5798428320745188,0.7629510948347615,-1.2512397955290453
1539732889454694,0.45777065690094787,0.8850232700083325,-1.2512397955290453
1539732889470680,0.33569848172737693,0.8850232700083325,-1.4343480582895154
1539732889486666,0.15259021896690683,0.8850232700083325,-1.6174563210497581
1539732889502652,-0.03051804379333589,0.8850232700083325,-1.6784924086366573
1539732889518638,-0.2746623941404778,0.8850232700083325,-1.8005645838102282
1539732889534637,-0.3967345693140487,0.8239871824216607,-1.9226367589837992
1539732889550623,-0.5188067444876197,0.8239871824216607,-1.9226367589837992
1539732889566609,-0.6408789196611906,0.6408789196611906,-1.8005645838102282
1539732889582595,-0.7019150072480898,0.3967345693140487,-1.8616006713969
1539732889598581,-0.6408789196611906,0.15259021896690683,-1.8616006713969
1539732889614567,-0.3967345693140487,0.03051804379333589,-1.6174563210497581
1539732889630553,-0.2746623941404778,-0.213626306553806,-1.3733119707026162
1539732889646539,0.03051804379333589,-0.5188067444876197,-1.1902037079423735
1539732889662525,0.213626306553806,-0.7019150072480898,-0.8850232700083325
1539732889678511,0.2746623941404778,-0.9460593575952316,-0.7629510948347615
1539732889694497,0.3967345693140487,-1.2512397955290453,-0.8239871824216607
1539732889710483,0.7629510948347615,-1.1902037079423735,-0.6408789196611906
1539732889726469,0.9460593575952316,-1.1291676203554744,-0.15259021896690683
1539732889742455,0.9460593575952316,-1.1902037079423735,0.03051804379333589
1539732889758441,1.0070954451819034,-1.3122758831159445,-0.09155413138023505
1539732889774427,0.9460593575952316,-1.1902037079423735,-0.15259021896690683
1539732889790413,0.8239871824216607,-1.0070954451819034,-0.213626306553806
1539732889806398,0.5188067444876197,-0.8239871824216607,-0.33569848172737693
1539732889822384,0.3967345693140487,-0.5798428320745188,-0.5188067444876197
1539732889838370,0.33569848172737693,-0.2746623941404778,-0.7019150072480898
1539732889854339,0.03051804379333589,-0.15259021896690683,-0.9460593575952316
1539732889870325,-0.09155413138023505,-0.03051804379333589,-1.1902037079423735
1539732889886311,-0.09155413138023505,0.15259021896690683,-1.3122758831159445
1539732889902297,-0.09155413138023505,0.33569848172737693,-1.3122758831159445
1539732889918283,-0.15259021896690683,0.3967345693140487,-1.3122758831159445
1539732889934269,-0.15259021896690683,0.5188067444876197,-1.4953841458761872
1539732889950255,-0.09155413138023505,0.5798428320745188,-1.5564202334630863
1539732889966241,0.03051804379333589,0.7019150072480898,-1.5564202334630863
1539732889982227,0.03051804379333589,0.7629510948347615,-1.4953841458761872
1539732889998213,0.09155413138023505,0.8850232700083325,-1.3733119707026162
1539732890014199,0.09155413138023505,0.8850232700083325,-1.4343480582895154
1539732890030185,-0.03051804379333589,0.9460593575952316,-1.4343480582895154
1539732890046171,-0.15259021896690683,0.8850232700083325,-1.5564202334630863
1539732890062157,-0.213626306553806,0.7629510948347615,-1.6174563210497581
1539732890078143,-0.09155413138023505,0.8239871824216607,-1.5564202334630863
1539732890094129,-0.15259021896690683,0.7629510948347615,-1.4953841458761872
1539732890110115,-0.09155413138023505,0.7019150072480898,-1.4953841458761872
1539732890126101,-0.03051804379333589,0.6408789196611906,-1.4343480582895154
1539732890142087,-0.03051804379333589,0.6408789196611906,-1.3122758831159445
1539732890158073,0.03051804379333589,0.45777065690094787,-1.2512397955290453
1539732890174072,0.09155413138023505,0.3967345693140487,-1.1902037079423735
1539732890190058,0.15259021896690683,0.2746623941404778,-1.0070954451819034
1539732890206044,0.213626306553806,0.09155413138023505,-0.7019150072480898
1539732890222030,0.15259021896690683,-0.03051804379333589,-0.5188067444876197
1539732890238016,0.15259021896690683,-0.213626306553806,-0.5798428320745188
1539732890254002,0.213626306553806,-0.2746623941404778,-0.5188067444876197
1539732890269988,0.213626306553806,-0.15259021896690683,-0.3967345693140487
1539732890285974,0.03051804379333589,-0.03051804379333589,-0.3967345693140487
1539732890301960,0.03051804379333589,0.03051804379333589,-0.5188067444876197
1539732890317946,0.15259021896690683,0.15259021896690683,-0.6408789196611906
1539732890333932,0.03051804379333589,0.15259021896690683,-0.8850232700083325
1539732890349918,0.03051804379333589,0.03051804379333589,-1.1291676203554744
1539732890365903,0.15259021896690683,0.15259021896690683,-1.0681315327688026
1539732890381889,0.2746623941404778,0.213626306553806,-0.8850232700083325
1539732890397875,0.2746623941404778,0.2746623941404778,-0.8239871824216607
1539732890413861,0.33569848172737693,0.2746623941404778,-0.8850232700083325
1539732890429847,0.3967345693140487,0.09155413138023505,-0.8850232700083325
1539732890445833,0.45777065690094787,0.09155413138023505,-0.7629510948347615
1539732890461819,0.3967345693140487,0.09155413138023505,-0.5798428320745188
1539732890477805,0.3967345693140487,0.09155413138023505,-0.6408789196611906
1539732890493774,0.33569848172737693,0.03051804379333589,-0.7019150072480898
1539732890509760,0.213626306553806,0.09155413138023505,-0.7629510948347615
1539732890525746,0.09155413138023505,0.213626306553806,-0.7629510948347615
1539732890541732,0.09155413138023505,0.33569848172737693,-0.7019150072480898
1539732890557718,-0.03051804379333589,0.3967345693140487,-0.6408789196611906
1539732890573704,-0.03051804379333589,0.33569848172737693,-0.5798428320745188
1539732890589690,0.03051804379333589,0.33569848172737693,-0.5798428320745188
1539732890605676,0.09155413138023505,0.2746623941404778,-0.5188067444876197
1539732890621662,0.03051804379333589,0.213626306553806,-0.45777065690094787
1539732890637648,0.09155413138023505,0.213626306553806,-0.45777065690094787
1539732890653634,0.15259021896690683,0.15259021896690683,-0.45777065690094787
1539732890669620,0.33569848172737693,0.15259021896690683,-0.33569848172737693
1539732890685606,0.33569848172737693,0.2746623941404778,-0.2746623941404778
1539732890701592,0.213626306553806,0.2746623941404778,-0.2746623941404778
1539732890717578,0.15259021896690683,0.213626306553806,-0.3967345693140487
1539732890733564,0.2746623941404778,0.45777065690094787,-0.3967345693140487
1539732890749549,0.213626306553806,0.8239871824216607,-0.213626306553806
1539732890765535,-0.03051804379333589,1.1291676203554744,-0.45777065690094787
1539732890781521,-0.15259021896690683,1.1902037079423735,-0.8239871824216607
1539732890797507,-0.15259021896690683,1.3122758831159445,-1.0070954451819034
1539732890813507,-0.03051804379333589,1.3733119707026162,-1.0681315327688026
1539732890829493,-0.15259021896690683,1.3122758831159445,-1.1291676203554744
1539732890845479,-0.09155413138023505,1.1902037079423735,-1.1291676203554744
1539732890861465,-0.03051804379333589,1.1902037079423735,-1.0070954451819034
1539732890877451,0.03051804379333589,1.0070954451819034,-0.8239871824216607
1539732890893437,0.15259021896690683,0.8239871824216607,-0.7019150072480898
1539732890909422,0.33569848172737693,0.6408789196611906,-0.6408789196611906
1539732890925408,0.3967345693140487,0.5188067444876197,-0.5188067444876197
1539732890941394,0.45777065690094787,0.33569848172737693,-0.33569848172737693
1539732890957380,0.3967345693140487,0.2746623941404778,-0.213626306553806
1539732890973366,0.3967345693140487,0.3967345693140487,-0.2746623941404778
1539732890989352,0.3967345693140487,0.3967345693140487,-0.3967345693140487
1539732891005338,0.213626306553806,0.3967345693140487,-0.7019150072480898
1539732891021324,0.03051804379333589,0.3967345693140487,-0.9460593575952316
1539732891037310,0.03051804379333589,0.15259021896690683,-0.7629510948347615
1539732891053296,0.09155413138023505,0.5188067444876197,-0.5188067444876197
1539732891069282,0.33569848172737693,0.45777065690094787,-0.3967345693140487
1539732891085268,0.45777065690094787,0.45777065690094787,-0.45777065690094787
1539732891101254,0.213626306553806,0.33569848172737693,-0.5188067444876197
1539732891117240,-0.03051804379333589,0.213626306553806,-0.6408789196611906
1539732891133209,-0.09155413138023505,0.2746623941404778,-0.7629510948347615
1539732891149195,-0.15259021896690683,0.213626306553806,-0.8239871824216607
1539732891165181,-0.09155413138023505,0.33569848172737693,-0.5798428320745188
1539732891181167,0.03051804379333589,0.3967345693140487,-0.3967345693140487
