Timestamp (microseconds),Accel X (g),Accel Y (g),Accel Z (g)
1539732498597137,0.9789578088044557,-0.18756389715419264,-0.023743038071259548
1539732498613138,0.9795681696803236,-0.1902494850080112,-0.021667811093308842
1539732498629140,0.9833524071107043,-0.19891660944533474,-0.025574120698863112
1539732498645141,0.9853055619134814,-0.204531929503319,-0.049378194857709445
1539732498661142,0.985427634088655,-0.21857022964827966,-0.07049668116273766
1539732498677143,0.9866483558403907,-0.23541618982223245,-0.06793316548409267
1539732498693144,0.9763942931258107,-0.23675898374914173,-0.05780117494468584
1539732498709146,0.9680933852140079,-0.21747158007171752,-0.04754711223010588
1539732498725147,0.9546654459449151,-0.20672922865644328,-0.037781338216220206
1539732498741148,0.9434348058289466,-0.19501029983978047,-0.04510566872663446
1539732498757149,0.9362325474937059,-0.1854886701762415,-0.06353856717784412
1539732498773151,0.9384298466468302,-0.18915083543144906,-0.07086289768825837
1539732498789152,0.9394064240482187,-0.20685130083161685,-0.06524757763027411
1539732498805153,0.9574731059739072,-0.20270084687571543,-0.0774547951476312
1539732498821154,0.9716334782940415,-0.2083161669336997,-0.07965209430075548
1539732498837155,0.9867704280155642,-0.2217441062027925,-0.07342641336690336
1539732498853157,0.9918974593728542,-0.21979095140001537,-0.07476920729381265
1539732498869158,0.9909208819714657,-0.21979095140001537,-0.07611200122072193
1539732498885159,0.9796902418554971,-0.22308690012970178,-0.07037460898756409
1539732498901160,0.9673609521629665,-0.22247653925383393,-0.07379262989242408
1539732498917144,0.9628442816815443,-0.21808194094758537,-0.07586785687037478
1539732498933146,0.9536888685435265,-0.20843823910887327,-0.06622415503166268
1539732498949147,0.9478294041351951,-0.19757381551842546,-0.062317845426107965
1539732498965148,0.9502708476386665,-0.18439002059967935,-0.06366063935301769
1539732498981149,0.9500267032883194,-0.1817044327458608,-0.0604867627985044
1539732498997151,0.9514915693904022,-0.1890287632562755,-0.06378271152819126
1539732499013152,0.9567406729228658,-0.20257877470054186,-0.06988632028686981
1539732499029153,0.9662623025864043,-0.2066071564812697,-0.07562371252002764
1539732499045154,0.9732204165712979,-0.2108796826123447,-0.0736705577172505
1539732499061155,0.9730983443961243,-0.22149996185244536,-0.062195773250934394
1539732499077157,0.9759060044251164,-0.21600671396963467,-0.06280613412680269
1539732499093158,0.9835965514610514,-0.20477607385366614,-0.0762340733958955
1539732499109159,0.9849393453879607,-0.2112458991378654,-0.06890974288548124
1539732499125160,0.98286411841001,-0.2158846417944611,-0.057068741893644415
1539732499141162,0.9818875410086214,-0.21454184786755182,-0.05645838101777656
1539732499157163,0.9765163653009843,-0.20807202258335256,-0.055725947966735134
1539732499173164,0.9705348287174793,-0.20770580605783184,-0.053772793163958
1539732499189165,0.9695582513160907,-0.20636301213092256,-0.052063782711528006
1539732499205166,0.9655298695353629,-0.20123598077363258,-0.047913328755626594
1539732499221168,0.966628519111925,-0.21222247653925397,-0.0462043183031966
1539732499237182,0.9658960860608836,-0.21661707484550252,-0.05169756618600729
1539732499253183,0.9661402304112308,-0.22101167315175108,-0.06060883497367797
1539732499269185,0.9629663538567179,-0.2255283436331732,-0.055970092317082276
1539732499285186,0.9571068894483865,-0.23065537499046318,-0.04205386434729519
1539732499301187,0.9600366216525522,-0.22504005493247892,-0.03704890516517878
1539732499317188,0.9660181582360572,-0.22735942626077676,-0.040344853894865196
1539732499333190,0.9719996948195622,-0.22735942626077676,-0.05023270008392444
1539732499349191,0.9813992523079271,-0.21478599221789896,-0.05108720531013944
1539732499365192,0.9931181811245899,-0.19928282597085545,-0.04388494697489875
1539732499381193,0.9976348516060121,-0.201113908598459,-0.042786297398336615
1539732499397194,0.9846952010376135,-0.20770580605783184,-0.04754711223010588
1539732499413196,0.9715114061188679,-0.21734950789654395,-0.042786297398336615
1539732499429197,0.9608911268787672,-0.20514229037918685,-0.03741512169069949
1539732499445198,0.9502708476386665,-0.19964904249637616,-0.03289845120927737
1539732499461199,0.9468528267338066,-0.20086976424811187,-0.041443503471427334
1539732499477201,0.9392843518730452,-0.20782787823300541,-0.05255207141222229
1539732499493202,0.9355001144426645,-0.21771572442206466,-0.06207370107576082
1539732499509203,0.9379415579461359,-0.22394140535591678,-0.0669565880827041
1539732499525204,0.9529564354924851,-0.2158846417944611,-0.07501335164415979
1539732499541206,0.9633325703822386,-0.21441977569237824,-0.0686655985351341
1539732499557281,0.9661402304112308,-0.2200350957503625,-0.06585793850614197
1539732499573283,0.973464560921645,-0.22101167315175108,-0.07196154726482051
1539732499589285,0.9740749217975129,-0.2305333028152896,-0.07757686732280478
1539732499605286,0.9679713130388343,-0.2439612420843824,-0.08245975432974761
1539732499621288,0.9615014877546351,-0.23761348897535672,-0.09185931181811258
1539732499637290,0.9634546425574122,-0.22796978713664462,-0.0955214770733197
1539732499653291,0.96748302433814,-0.22540627145799963,-0.09185931181811258
1539732499669293,0.9741969939726864,-0.22565041580834677,-0.08148317692835905
1539732499685295,0.9806668192568857,-0.2334630350194553,-0.0820935378042269
1539732499701296,0.976882581826505,-0.2453040360112917,-0.07855344472419334
1539732499717298,0.9644312199588008,-0.24078736552986957,-0.07318226901655622
1539732499733300,0.9580834668497751,-0.2246738384069582,-0.07318226901655622
1539732499749302,0.9595483329518579,-0.20904859998474112,-0.07403677424277122
1539732499765303,0.9629663538567179,-0.19671931029221046,-0.08075074387731762
1539732499781305,0.9630884260318915,-0.19244678416113548,-0.08599984740978117
1539732499797307,0.9635767147325858,-0.19806210421911974,-0.08368047608148332
1539732499813308,0.9660181582360572,-0.19464408331425975,-0.07635614557106907
1539732499829310,0.968337529564355,-0.19085984588387905,-0.06720073243305125
1539732499845312,0.9745632104982072,-0.19537651636530118,-0.0648813611047534
1539732499861313,0.9798123140306707,-0.2057526512550547,-0.07049668116273766
1539732499877411,0.9754177157244222,-0.21820401312275894,-0.07379262989242408
1539732499893413,0.9721217669947357,-0.2179598687724118,-0.07721065079728406
1539732499909415,0.9685816739147022,-0.21136797131303897,-0.07769893949797835
1539732499925417,0.9636987869077593,-0.204531929503319,-0.07013046463721695
1539732499941419,0.9633325703822386,-0.19671931029221046,-0.06793316548409267
1539732499957421,0.96577401388571,-0.19476615548943332,-0.06817730983443981
1539732499973424,0.9690699626153965,-0.19794003204394617,-0.0686655985351341
1539732499989426,0.9693141069657436,-0.20025940337224402,-0.06878767071030767
1539732500005428,0.9671168078126193,-0.2033112077515833,-0.06170748455024011
1539732500021430,0.968337529564355,-0.20721751735713756,-0.062195773250934394
1539732500037432,0.9730983443961243,-0.20563057907988114,-0.06414892805371197
1539732500053434,0.9750514991989014,-0.21063553826199755,-0.062317845426107965
1539732500069437,0.9732204165712979,-0.2150301365682461,-0.05743495841916513
1539732500085439,0.978591592278935,-0.20843823910887327,-0.05523765926604085
1539732500101441,0.9868925001907378,-0.19269092851148262,-0.053284504463263715
1539732500117443,0.9889677271686885,-0.18841840238040763,-0.04498359655146089
1539732500133445,0.9838406958113985,-0.19378957808804476,-0.03802548256656735
1539732500149448,0.9771267261768521,-0.19830624856946688,-0.038879987792782345
1539732500165450,0.968337529564355,-0.19537651636530118,-0.046814679179064456
1539732500181452,0.9613794155794615,-0.19134813458457334,-0.04119935912108019
1539732500197540,0.9658960860608836,-0.1765774013885708,-0.03814755474174092
1539732500213542,0.9907988097962921,-0.1576562142366673,-0.04046692607003877
1539732500229544,1.0074006256198977,-0.1652246890974287,-0.030823224231326662
1539732500245546,1.0056916151674677,-0.19354543373769761,-0.030212863355458808
1539732500261549,0.9931181811245899,-0.21100175478751826,-0.04351873044937804
1539732500277551,0.9749294270237279,-0.21808194094758537,-0.05157549401083372
1539732500293553,0.9524681467917908,-0.20514229037918685,-0.049378194857709445
1539732500309555,0.9317158770122838,-0.18426794842450578,-0.04644846265354374
1539732500325557,0.9350118257419702,-0.1589990081635766,-0.04974441138323016
1539732500341560,0.9459983215075916,-0.15484855420767518,-0.04644846265354374
1539732500357562,0.9564965285725187,-0.18439002059967935,-0.041443503471427334
1539732500373564,0.9557640955214772,-0.22320897230487535,-0.05218585488670158
1539732500389566,0.9593041886015108,-0.24505989166094455,-0.08026245517662334
1539732500405568,0.9593041886015108,-0.2573891813534752,-0.08441290913252475
1539732500421570,0.9685816739147022,-0.23797970550087744,-0.08221560997940047
1539732500437573,0.9677271686884872,-0.20880445563439398,-0.06915388723582838
1539732500453575,0.9669947356374458,-0.1957427328908219,-0.04876783398184159
1539732500469577,0.9694361791409172,-0.18719768062867148,-0.050720988784618726
1539732500485579,0.9833524071107043,-0.17669947356374438,-0.07489127946898622
1539732500501581,0.9916533150225071,-0.17926298924238937,-0.08868543526359973
1539732500517669,0.98970016021973,-0.19208056763561476,-0.07391470206759765
1539732500533672,0.9799343862058443,-0.203677424277104,-0.06414892805371197
1539732500549675,0.9728542000457772,-0.20184634164950044,-0.0686655985351341
1539732500565677,0.9604028381780729,-0.19293507286182976,-0.06964217593652267
1539732500581680,0.9542992294193944,-0.18890669108110192,-0.06280613412680269
1539732500597683,0.9502708476386665,-0.1876859693293662,-0.049500267032883016
1539732500613685,0.9555199511711301,-0.17865262836652152,-0.05169756618600729
1539732500629688,0.9624780651560236,-0.1703517204547187,-0.06427100022888554
1539732500645691,0.9575951781490808,-0.1791409170672158,-0.07171740291447337
1539732500661693,0.9580834668497751,-0.19073777370870548,-0.08624399176012831
1539732500677696,0.9629663538567179,-0.19916075379568188,-0.1022354467078661
1539732500693699,0.9668726634622722,-0.20526436255436042,-0.10992599374380108
1539732500709701,0.9733424887464714,-0.20233463035019472,-0.11346608682383463
1539732500725704,0.9800564583810178,-0.19623102159151617,-0.11248950942244607
1539732500741706,0.9849393453879607,-0.19427786678873904,-0.11627374685282676
1539732500757709,0.9864042114900435,-0.1969634546425576,-0.11505302510109106
1539732500773712,0.9795681696803236,-0.20099183642328544,-0.11517509727626463
1539732500789714,0.9750514991989014,-0.20050354772259116,-0.11602960250247962
1539732500805717,0.9665064469367515,-0.18927290760662263,-0.11725032425421533
1539732500821720,0.9593041886015108,-0.18597695887693577,-0.11566338597695891
1539732500837829,0.9561303120469979,-0.18133821622034008,-0.10968184939345393
1539732500853832,0.9561303120469979,-0.17303730830853725,-0.10565346761272609
1539732500869835,0.9630884260318915,-0.1745021744106201,-0.0993057145037004
1539732500885839,0.9684596017395286,-0.1841458762493322,-0.09491111619745185
1539732500901842,0.9759060044251164,-0.1893949797817962,-0.10724040588998252
1539732500917845,0.9782253757534143,-0.20050354772259116,-0.10882734416723894
1539732500933848,0.9787136644541086,-0.20062561989776473,-0.1115129320210575
1539732500949851,0.9778591592278936,-0.19330128938735047,-0.11175707637140464
1539732500965854,0.9755397878995957,-0.1850003814755472,-0.10882734416723894
1539732500981857,0.9712672617685207,-0.1808499275196458,-0.10064850843060968
1539732500997861,0.9762722209506371,-0.17376974135957868,-0.10626382848859395
1539732501013864,0.975173571374075,-0.1757228961623558,-0.10675211718928823
1539732501029867,0.9722438391699093,-0.18756389715419264,-0.10870527199206537
1539732501045870,0.9702906843671322,-0.1923247119859619,-0.11639581902800034
1539732501061873,0.9628442816815443,-0.19891660944533474,-0.11700617990386819
1539732501077876,0.9560082398718244,-0.19830624856946688,-0.11285572594796678
1539732501093879,0.9488059815365837,-0.1858548867017622,-0.1115129320210575
1539732501109882,0.9448996719310294,-0.17376974135957868,-0.10125886930647754
1539732501125886,0.9489280537117573,-0.1619287403677423,-0.08844129091325259
1539732501141889,0.9545433737697415,-0.1602197299153123,-0.09356832227054257
1539732501157959,0.9624780651560236,-0.17291523613336368,-0.10162508583199825
1539732501173962,0.9690699626153965,-0.1919584954604412,-0.10943770504310679
1539732501189965,0.9763942931258107,-0.21026932173647683,-0.12481879911497673
1539732501205968,0.9840848401617457,-0.22272068360418107,-0.13910124361028453
1539732501221971,0.9894560158693828,-0.2251621271076525,-0.1455710688944838
1539732501237974,0.9890897993438621,-0.22406347753109035,-0.14239719233997095
1539732501253977,0.9754177157244222,-0.21905851834897394,-0.1328755626764324
1539732501269981,0.9646753643091479,-0.2083161669336997,-0.12848096437018386
1539732501285984,0.9572289616235601,-0.18976119630731692,-0.1123674372472725
1539732501301987,0.9312275883115895,-0.165712977798123,-0.07525749599450693
1539732501317990,0.9420920119020373,-0.13958953231097881,-0.06012054627298369
1539732501333993,0.9387960631723509,-0.10199130235751896,-0.06659037155718339
1539732501349996,0.9514915693904022,-0.11554131380178534,-0.05169756618600729
1539732501365999,0.948439765011063,-0.15777828641184088,-0.05389486533913157
1539732501382002,0.9967803463797971,-0.1817044327458608,-0.10382238498512253
1539732501398006,0.9832303349355307,-0.22333104448004892,-0.1123674372472725
1539732501414009,1.0119172961013199,-0.23883421072709243,-0.16241702906843658
1539732501430012,0.9671168078126193,-0.23419546807049674,-0.14239719233997095
1539732501446015,0.9722438391699093,-0.24298466468299385,-0.10247959105821325
1539732501462018,0.96919203479057,-0.20184634164950044,-0.10467689021133753
1539732501478088,0.975173571374075,-0.17901884489204223,-0.12530708781567101
1539732501494092,0.9667505912870986,-0.1893949797817962,-0.1316548409246967
1539732501510095,0.9589379720759901,-0.18243686579690221,-0.13824673838406953
1539732501526099,0.9362325474937059,-0.18719768062867148,-0.11676203555352105
1539732501542102,0.943312733653773,-0.17853055619134794,-0.10675211718928823
1539732501558106,0.9643091477836272,-0.16998550392919798,-0.1299458304722667
1539732501574110,0.9575951781490808,-0.2138094148165104,-0.22198825055313964
1539732501590113,0.9972686350804914,-0.19220263981078833,-0.1619287403677423
1539732501606117,0.9245136186770431,-0.18561074235141506,-0.1602197299153123
1539732501622120,0.8889906157015339,-0.2251621271076525,-0.0993057145037004
1539732501638124,0.9379415579461359,-0.1795071335927365,-0.09906157015335326
1539732501654128,0.9695582513160907,-0.18439002059967935,-0.10125886930647754
1539732501670131,1.0196078431372548,-0.18658731975280363,-0.13153276874952313
1539732501686135,1.0387731746395055,-0.2003814755474176,-0.201113908598459
1539732501702139,1.0336461432822155,-0.26739909971770803,-0.22784771496147105
1539732501718142,0.9961699855039292,-0.23883421072709243,-0.22943465323872747
1539732501734146,0.9965362020294499,-0.16375982299534586,-0.1919584954604412
1539732501750149,0.9903105210955978,-0.11725032425421533,-0.13995574883649953
1539732501766153,0.9787136644541086,-0.08197146562905333,-0.11407644769970249
1539732501782157,0.9589379720759901,-0.07769893949797835,-0.10516517891203181
1539732501798217,0.9495384145876251,-0.08404669260700404,-0.12152285038529032
1539732501814221,0.9401388570992602,-0.09356832227054257,-0.14361791409170666
1539732501830225,0.9217059586480509,-0.13580529488059812,-0.15252918287937733
1539732501846228,0.9225604638742659,-0.16729991607537942,-0.17059586480506583
1539732501862232,0.936476691844053,-0.17267109178301654,-0.19256885633630905
1539732501878235,0.9564965285725187,-0.16058594644083302,-0.17853055619134794
1539732501894239,0.9678492408636608,-0.13934538796063167,-0.14654764629587236
1539732501910243,0.9688258182650493,-0.1354390783550774,-0.13226520180056456
1539732501926246,0.9738307774471657,-0.15167467765316234,-0.1316548409246967
1539732501942250,0.9705348287174793,-0.18976119630731692,-0.13226520180056456
1539732501958253,0.9816433966582743,-0.2167391470206761,-0.13775844968337525
1539732501974257,0.9950713359273671,-0.21222247653925397,-0.14251926451514452
1539732501990261,0.9889677271686885,-0.2133211261158161,-0.1228656443121996
1539732502006264,0.9818875410086214,-0.21698329137102323,-0.10968184939345393
1539732502022268,0.9694361791409172,-0.21063553826199755,-0.12713817044327458
1539732502038272,0.948439765011063,-0.18060578316929865,-0.12762645914396886
1539732502054275,0.9348897535667966,-0.15240711070420376,-0.10138094148165111
1539732502070279,0.9314717326619366,-0.11969176775768675,-0.08026245517662334
1539732502086282,0.9428244449530787,-0.09137102311741829,-0.08526741435873975
1539732502102286,0.9636987869077593,-0.10040436408026254,-0.09185931181811258
1539732502118347,0.97431906614786,-0.14496070801861594,-0.10247959105821325
1539732502134351,1.002761882963302,-0.17596704051270295,-0.10431067368581681
1539732502150355,1.0227817196917677,-0.1791409170672158,-0.092591744869154
1539732502166359,1.0058136873426413,-0.18976119630731692,-0.0733043411917298
1539732502182363,0.9917753871976807,-0.21307698176546896,-0.062439917601281536
1539732502198367,0.9716334782940415,-0.22076752880140393,-0.09295796139467472
1539732502214371,0.9564965285725187,-0.21393148699168396,-0.12335393301289388
1539732502230375,0.9280537117570766,-0.21991302357518894,-0.11200122072175178
1539732502246379,0.9230487525749602,-0.20001525902189687,-0.09149309529259186
1539732502262384,0.9292744335088123,-0.17560082398718224,-0.07855344472419334
1539732502278388,0.9463645380331123,-0.17853055619134794,-0.0715953307392998
1539732502294392,0.96919203479057,-0.18744182497901862,-0.07525749599450693
1539732502310396,0.99140917067216,-0.20294499122606258,-0.07855344472419334
1539732502326400,0.9938506141756314,-0.2191805905241475,-0.07379262989242408
1539732502342404,0.9889677271686885,-0.23797970550087744,-0.0736705577172505
1539732502358408,0.9856717784390021,-0.2511635004196231,-0.07415884641794479
1539732502374412,0.9793240253299764,-0.23419546807049674,-0.08441290913252475
1539732502390416,0.9645532921339743,-0.19256885633630905,-0.08538948653391332
1539732502406420,0.9593041886015108,-0.1799954222934308,-0.059754329747462975
1539732502422424,0.9651636530098422,-0.17755397878995938,-0.055848020141908705
1539732502438446,0.9553978789959565,-0.17853055619134794,-0.07464713511863907
1539732502454450,0.9643091477836272,-0.16717784390020585,-0.0648813611047534
1539732502470454,0.9644312199588008,-0.1366598001068131,-0.07904173342488763
1539732502486458,0.97261005569543,-0.17291523613336368,-0.10052643625543611
1539732502502462,0.9970244907301442,-0.1931792172121769,-0.10296787975890753
1539732502518466,0.9633325703822386,-0.2427405203326467,-0.10577553978789966
1539732502534470,0.9833524071107043,-0.31110093842984643,-0.12127870603494317
1539732502550474,1.0229037918669412,-0.3091477836270693,-0.16583504997329657
1539732502566478,1.038651102464332,-0.28082703898680084,-0.16498054474708157
1539732502582482,1.0092317082475013,-0.22906843671320676,-0.10431067368581681
1539732502598487,0.9268329900053409,-0.19159227893492048,-0.028381780727855244
1539732502614491,0.9646753643091479,-0.11786068513008319,-0.017761501487754572
1539732502630495,0.973464560921645,-0.08722056916151688,-0.07269398031586194
1539732502646499,0.9591821164263372,-0.08062867170214405,-0.11554131380178534
1539732502662503,0.9154802777141988,-0.08892957961394687,-0.14105439841306167
1539732502678507,0.9090104524299996,-0.1345845731288624,-0.11468680857557034
1539732502694511,0.9086442359044788,-0.1817044327458608,-0.08905165178912045
1539732502710515,0.8847180895704589,-0.21441977569237824,-0.10125886930647754
1539732502726519,0.9290302891584652,-0.2158846417944611,-0.12591744869153887
1539732502742523,0.9541771572442208,-0.1765774013885708,-0.1266498817425803
1539732502758575,0.9662623025864043,-0.14813458457312878,-0.0791638056000612
1539732502774580,0.9634546425574122,-0.15240711070420376,-0.030823224231326662
1539732502790584,1.0907759212634467,-0.15960936903944445,-0.09466697184710471
1539732502806589,0.8842298008697647,-0.21478599221789896,-0.08538948653391332
1539732502822593,1.0296177615014876,-0.20465400167849257,-0.12335393301289388
1539732502838598,1.0199740596627755,-0.1799954222934308,-0.13763637750820168
1539732502854602,1.0341344319829098,-0.16620126649881728,-0.09906157015335326
1539732502870607,1.014724956130312,-0.16913099870298298,-0.08087281605249119
1539732502886612,0.9944609750514992,-0.17840848401617437,-0.08538948653391332
1539732502902616,0.9840848401617457,-0.18988326848249049,-0.11468680857557034
1539732502918621,0.9611352712291144,-0.18158236057068722,-0.13238727397573813
1539732502934625,0.9406271457999544,-0.16034180209048587,-0.11468680857557034
1539732502950630,0.9278095674067295,-0.12555123216601816,-0.07403677424277122
1539732502966634,0.9262226291294731,-0.10614175631342038,-0.05499351491569371
1539732502982639,0.9429465171282523,-0.12188906691081103,-0.06939803158617552
1539732502998644,0.9575951781490808,-0.1627832455939573,-0.09527733272297256
1539732503014648,0.9644312199588008,-0.2074616617074847,-0.11273365377279321
1539732503030653,0.9882352941176471,-0.22064545662623036,-0.13739223315785454
1539732503046657,1.0003204394598306,-0.2267490653849089,-0.13995574883649953
1539732503062662,0.9872587167162585,-0.23407339589532317,-0.10907148851758608
1539732503078704,0.9866483558403907,-0.22040131227588322,-0.09564354924849328
1539732503094709,0.9892118715190357,-0.20941481651026184,-0.0993057145037004
1539732503110714,0.9870145723659114,-0.203677424277104,-0.10235751888303968
1539732503126718,1.0066681925688563,-0.19342336156252404,-0.10577553978789966
1539732503142723,1.0020294499122606,-0.16205081254291587,-0.08599984740978117
1539732503158727,0.9702906843671322,-0.17474631876096725,-0.06768902113374553
1539732503174732,0.9599145494773786,-0.18231479362172864,-0.07965209430075548
1539732503190736,0.9485618371862365,-0.18927290760662263,-0.08184939345387976
1539732503206741,0.9473411154345008,-0.17022964827954512,-0.07281605249103551
1539732503222746,0.9361104753185323,-0.1514305333028152,-0.06036469062333083
1539732503238750,0.9253681239032581,-0.1471580071717402,-0.034973678187228074
1539732503254755,0.9372091248950944,-0.1400778210116731,-0.04205386434729519
1539732503270759,0.954421301594568,-0.12433051041428245,-0.06927595941100195
1539732503286764,0.9676050965133136,-0.1342183566033417,-0.06890974288548124
1539732503302768,0.96577401388571,-0.17584496833752938,-0.04205386434729519
1539732503318773,0.9767605096513314,-0.18023956664377794,-0.05474937056534657
1539732503334777,0.9838406958113985,-0.17389181353475225,-0.07977416647592905
1539732503350782,1.005325398641947,-0.1846341649500265,-0.07965209430075548
1539732503366787,1.0246128023193712,-0.18194857709620793,-0.06280613412680269
1539732503382791,1.0446326390478369,-0.16729991607537942,-0.06451514457923269
1539732503398834,1.0279087510490577,-0.14911116197451735,-0.06146334019989297
1539732503414838,1.0089875638971542,-0.16632333867399085,-0.03692683299000521
1539732503430843,0.9981231403067063,-0.1593652246890973,-0.062195773250934394
1539732503446848,0.9938506141756314,-0.1412985427634088,-0.08331425955596261
1539732503462852,0.9766384374761579,-0.14483863584344236,-0.06305027847714983
1539732503478857,0.9593041886015108,-0.1316548409246967,-0.036438544289310926
1539732503494861,0.9667505912870986,-0.11578545815213248,-0.035095750362401645
1539732503510866,0.9632104982070651,-0.11883726253147175,-0.04644846265354374
1539732503526870,0.9757839322499429,-0.11334401464866106,-0.06683451590753053
1539732503542875,0.9900663767452507,-0.10247959105821325,-0.07281605249103551
1539732503558879,0.9936064698252842,-0.12628366521705958,-0.05474937056534657
1539732503574884,0.9986114290074006,-0.14410620279240094,-0.057068741893644415
1539732503590889,1.000198367284657,-0.1488670176241702,-0.0850232700083926
1539732503606893,0.9894560158693828,-0.15118638895246805,-0.09234760051880686
1539732503622898,0.9875028610666057,-0.13238727397573813,-0.09613183794918756
1539732503638902,0.9756618600747693,-0.11554131380178534,-0.07794308384832549
1539732503654907,0.9712672617685207,-0.1182269016556039,-0.04840161745632088
1539732503670911,0.96748302433814,-0.12762645914396886,-0.05487144274052014
1539732503686916,0.9533226520180058,-0.13958953231097881,-0.0800183108262762
1539732503702921,0.9499046311131458,-0.164003967345693,-0.0905165178912033
1539732503718963,0.9523460746166172,-0.19964904249637616,-0.09954985885404755
1539732503734968,0.9602807660028994,-0.17230487525749583,-0.09405661097123685
1539732503750973,0.9180437933928438,-0.12384222171358816,-0.03680476081483164
1539732503766978,0.9624780651560236,-0.06854352635996053,0.05279621576256943
1539732503782983,0.9773708705271993,-0.029724574654764524,0.040100709544518054
1539732503798988,1.0111848630502784,-0.025085831998168828,-0.017029068436713146
1539732503814993,1.025223163195239,-0.06671244373235696,-0.060852979324025114
1539732503830999,1.0158236057068741,-0.1240863660639353,-0.06378271152819126
1539732503847004,1.013015945677882,-0.17694361791409152,-0.07989623865110262
1539732503863009,1.0127718013275349,-0.1765774013885708,-0.11578545815213248
1539732503879014,1.0043488212405585,-0.15289539940489805,-0.13702601663233382
1539732503895019,0.9844510566872664,-0.13958953231097881,-0.1115129320210575
1539732503911024,0.9706569008926529,-0.12433051041428245,-0.07476920729381265
1539732503927029,0.9622339208056765,-0.10699626153963537,-0.062317845426107965
1539732503943034,0.96919203479057,-0.09454489967193114,-0.0800183108262762
1539732503959039,0.9706569008926529,-0.091737239642939,-0.09967193102922112
1539732503975044,0.9665064469367515,-0.09649805447470827,-0.10785076676585037
1539732503991049,0.9583276112001222,-0.10431067368581681,-0.0800183108262762
1539732504007054,0.9617456321049822,-0.11663996337834748,-0.05658045319295013
1539732504023059,0.9889677271686885,-0.10052643625543611,-0.07904173342488763
1539732504039123,0.988845654993515,-0.07843137254901977,-0.10724040588998252
1539732504055128,0.9976348516060121,-0.08465705348287189,-0.10663004501411466
1539732504071133,0.9944609750514992,-0.12127870603494317,-0.07708857862211049
1539732504087138,0.9948271915770199,-0.14081025406271452,-0.06793316548409267
1539732504103143,0.9866483558403907,-0.12811474784466315,-0.0896620126649883
1539732504119148,0.9870145723659114,-0.10443274586099038,-0.1060196841382468
1539732504135153,0.9901884489204242,-0.09893949797817969,-0.09906157015335326
1539732504151158,0.9839627679865721,-0.11248950942244607,-0.0669565880827041
1539732504167163,0.9813992523079271,-0.12652780956740672,-0.0640268558785384
1539732504183169,0.9883573662928207,-0.12249942778667888,-0.09137102311741829
1539732504199174,0.9916533150225071,-0.130434119172961,-0.10711833371480894
1539732504215179,0.9849393453879607,-0.1430075532158388,-0.11187914854657821
1539732504231184,0.9759060044251164,-0.14618142977035165,-0.09271381704432757
1539732504247189,0.96577401388571,-0.12799267566948958,-0.07489127946898622
1539732504263194,0.9596704051270315,-0.11261158159761964,-0.07183947508964694
1539732504279199,0.9650415808346686,-0.09112687876707115,-0.08172732127870619
1539732504295204,0.9656519417105365,-0.0972304875257497,-0.08770885786221116
1539732504311209,0.9722438391699093,-0.13189898527504385,-0.08099488822766476
1539732504327214,0.9815213244831007,-0.15484855420767518,-0.09088273441672401
1539732504343219,0.9827420462348364,-0.1488670176241702,-0.10992599374380108
1539732504359253,0.9834744792858778,-0.1433737697413595,-0.10492103456168467
1539732504375258,0.9857938506141757,-0.12359807736324102,-0.08685435263599617
1539732504391263,0.9906767376211185,-0.1030899519340811,-0.0800183108262762
1539732504407268,0.9868925001907378,-0.10894941634241251,-0.07342641336690336
1539732504423273,0.9892118715190357,-0.129579613946746,-0.0745250629434655
1539732504439278,0.98286411841001,-0.14251926451514452,-0.08441290913252475
1539732504455283,0.9715114061188679,-0.1450827801937895,-0.07611200122072193
1539732504471288,0.970046540016785,-0.14251926451514452,-0.04473945220111375
1539732504487293,0.9658960860608836,-0.1488670176241702,-0.0109254596780346
1539732504503298,0.9817654688334478,-0.17926298924238937,0.0015259021896696368
1539732504519303,1.0015411612115663,-0.20477607385366614,0.028259708552681673
1539732504535308,1.0106965743495842,-0.16705577172503228,0.052918287937743
1539732504551313,1.024979018844892,-0.17340352483405796,0.11114671549553634
1539732504567318,1.0574502174410618,-0.22577248798352034,0.18707560845349835
1539732504583323,1.0714885175860225,-0.2910811017013808,0.25226214999618524
1539732504599328,1.0785687037460896,-0.35321583886472885,0.29803921568627434
1539732504615333,1.0581826504921032,-0.3777523460746166,0.31464103150988
1539732504631338,1.0658731975280382,-0.41327534905012575,0.32611581597619566
1539732504647343,1.0774700541695275,-0.42841229877164855,0.3306324864576178
1539732504663348,1.0891889829861903,-0.4260929274433507,0.32867933165484065
1539732504679412,1.118852521553368,-0.40619516289005864,0.3141527428091857
1539732504695418,1.1260547798886096,-0.3891050583657587,0.29889372091248934
1539732504711423,1.1273975738155189,-0.3756771190966659,0.29047074082551294
1539732504727429,1.134477759975586,-0.34943160143434815,0.2599526970321202
1539732504743435,1.1148241397726402,-0.31134508278019357,0.2293125810635539
1539732504759440,1.153276874952316,-0.26849774929427017,0.17926298924238981
1539732504775446,1.1609674219882509,-0.2225986114290075,0.11859311818112417
1539732504791451,1.145586327916381,-0.14239719233997095,0.04730296787975874
1539732504807457,1.1010299839780266,-0.07098496986343195,-0.0424200808728159
1539732504823462,1.0658731975280382,-0.02655069810025168,-0.127016098268101
1539732504839468,1.029251544975967,0.032410162508583085,-0.2628824292362859
1539732504855473,0.9723659113450829,0.12420843823910843,-0.39642938887617296
1539732504871479,0.9164568551155874,0.17645532921339768,-0.4976272220950637
1539732504887484,0.8983901731898989,0.18634317540245693,-0.5475547417410542
1539732504903490,0.8975356679636839,0.18866254673075478,-0.5844205386434731
1539732504919495,0.8814221408407725,0.20013733119707044,-0.6198214694438087
1539732504935501,0.8711680781261917,0.2213778896772718,-0.6226291294728008
1539732504951506,0.8841077286945911,0.18793011367971335,-0.5727016098268103
1539732504967512,0.9274433508812088,0.12469672693980272,-0.47858396276798665
1539732504983517,1.004470893415732,0.059632257572289404,-0.41193255512321647
1539732504999542,1.089555199511711,0.03326466773479808,-0.39179064621957727
1539732505015547,1.1636530098420694,0.037537193865873064,-0.3635919737544824
1539732505031553,1.2965896086060882,0.07574578469520077,-0.462836652170596
1539732505047558,1.3391927977416644,0.18585488670176264,-0.6679179064621956
1539732505063564,1.4870222018768597,0.2714274814984359,-0.8428473334859237
1539732505079569,1.7758449683375295,0.26605630579079875,-0.9755397878995957
1539732505095575,2.027679865720607,0.44586861982146964,-0.8902113374532692
1539732505111580,2.327000839246204,0.20013733119707044,-0.29925993743801005
1539732505127586,-0.3823910887312123,-3.252674143587396,4.0
1539732505143592,1.18623636224918,1.0877241168841074,-0.3794613565270466
1539732505159597,1.1147020675974666,0.0718394750896465,-0.46222629129472814
1539732505175603,0.9168230716411081,0.3142748149843593,-0.09454489967193114
1539732505191608,0.8516365300984203,0.12835889219501073,0.14337376974135996
1539732505207614,1.0666056305790796,-0.18158236057068722,0.33954375524528846
1539732505223619,0.9553978789959565,-0.19635309376668975,0.3449149309529256
1539732505239625,0.9076676585030903,-0.33014419775692394,0.24054322117952243
1539732505255630,0.9215838864728774,-0.38312352178225373,0.06060883497367797
1539732505271636,0.9276874952315559,-0.3516289005874724,-0.11847104600595104
1539732505287641,0.9269550621805145,-0.3058518348973829,-0.24835584039063097
1539732505303647,0.948439765011063,-0.2833905546654458,-0.3336842908369575
1539732505319671,0.9815213244831007,-0.23285267414358746,-0.3803158617532616
1539732505335677,1.0092317082475013,-0.1799954222934308,-0.38178072785534445
1539732505351682,1.029251544975967,-0.14837872892347592,-0.35455863279163813
1539732505367688,1.030350194552529,-0.12091248950942246,-0.2924238956282901
1539732505383693,1.0282749675745784,-0.11371023117418178,-0.23541618982223245
1539732505399699,1.000808728160525,-0.11810482948043033,-0.17047379262989226
1539732505415704,0.9851834897383078,-0.11212329289692535,-0.12152285038529032
1539732505431710,0.9765163653009843,-0.130434119172961,-0.06793316548409267
1539732505447715,0.9696803234912643,-0.15240711070420376,-0.02130159456778813
1539732505463721,0.9789578088044557,-0.15106431677729448,-0.0025024795910582043
1539732505479726,0.9763942931258107,-0.16839856565194156,0.0061646448462653325
1539732505495732,0.9890897993438621,-0.16034180209048587,-0.008239871824216038
1539732505511737,0.9875028610666057,-0.15570305943389018,-0.025696192874036683
1539732505527743,0.9861600671396964,-0.16327153429465158,-0.045593957427328746
1539732505543748,0.9689478904402229,-0.16913099870298298,-0.0640268558785384
1539732505559754,0.9563744563973451,-0.15411612115663376,-0.09332417792019543
1539732505575760,0.9512474250400551,-0.1517967498283359,-0.1060196841382468
1539732505591765,0.9442893110551616,-0.15045395590142663,-0.09710841535057613
1539732505607771,0.9572289616235601,-0.12933546959639886,-0.08807507438773188
1539732505623776,0.96919203479057,-0.11773861295490962,-0.06805523765926624
1539732505639801,0.9724879835202564,-0.10675211718928823,-0.05999847409781012
1539732505655806,0.97773708705272,-0.10540932326237895,-0.055970092317082276
1539732505671812,0.9615014877546351,-0.10907148851758608,-0.04962233920805659
1539732505687817,0.9693141069657436,-0.13104448004882885,-0.04779125658045302
1539732505703823,0.975173571374075,-0.1560692759594109,-0.05218585488670158
1539732505719828,0.9761501487754636,-0.16424811169604014,-0.07684443427176335
1539732505735834,0.9645532921339743,-0.16729991607537942,-0.09698634317540256
1539732505751839,0.9695582513160907,-0.18744182497901862,-0.0993057145037004
1539732505767845,0.9724879835202564,-0.18927290760662263,-0.10699626153963537
1539732505783850,0.975173571374075,-0.166567483024338,-0.11224536507209892
1539732505799856,0.9746852826733807,-0.15594720378423732,-0.11419851987487606
1539732505815861,0.9943389028763256,-0.14776836804760807,-0.11102464332036321
1539732505831867,0.988845654993515,-0.12274357213702602,-0.10760662241550323
1539732505847872,0.9884794384679942,-0.11956969558251318,-0.10870527199206537
1539732505863878,0.9916533150225071,-0.11371023117418178,-0.1115129320210575
1539732505879883,0.9822537575341421,-0.09918364232852683,-0.12091248950942246
1539732505895889,0.9727321278706036,-0.09210345616845972,-0.12677195391775387
1539732505911894,0.9705348287174793,-0.07574578469520121,-0.13116655222400242
1539732505927900,0.9773708705271993,-0.07147325856412623,-0.13482871747920955
1539732505943905,0.9958037689784085,-0.12774853131914243,-0.0724498359655148
1539732505959930,1.0089875638971542,-0.2293125810635539,0.029846646829938095
1539732505975936,1.0120393682764934,-0.23968871595330743,0.016784924086366004
1539732505991941,1.0076447699702449,-0.16290531776913086,-0.09137102311741829
1539732506007947,1.0032501716639963,-0.08538948653391332,-0.1862211032272829
1539732506023952,0.9931181811245899,-0.03070115205615309,-0.23077744716563675
1539732506039958,0.988845654993515,-0.024353398947127403,-0.21319905394064254
1539732506055963,0.9894560158693828,-0.06549172198062125,-0.14752422369726093
1539732506071969,0.9890897993438621,-0.1543602655069809,-0.0357061112382695
1539732506087974,0.9806668192568857,-0.17303730830853725,-0.01495384145876244
1539732506103980,0.9672388799877929,-0.08563363088426046,-0.1077286945906768
1539732506119985,0.9496604867627987,-0.031189440756847375,-0.14898908979934378
1539732506135991,0.9412375066758223,-0.07025253681239052,-0.10724040588998252
1539732506151996,0.9463645380331123,-0.10418860151064324,-0.05926604104676869
1539732506168002,0.937331197070268,-0.0774547951476312,-0.08429083695735118
1539732506184007,0.9502708476386665,-0.07257190814068837,-0.09527733272297256
1539732506200013,0.973464560921645,-0.093446250095369,-0.0648813611047534
1539732506216018,0.9712672617685207,-0.051819638361180864,-0.042786297398336615
1539732506232024,1.0115510795757992,-0.022156099794003126,-0.07464713511863907
1539732506248029,0.9732204165712979,-0.044129091325245895,-0.07391470206759765
1539732506264035,0.9898222323949035,-0.10467689021133753,-0.07000839246204338
1539732506280029,1.0037384603646906,-0.11505302510109106,-0.09967193102922112
1539732506296034,0.9975127794308385,-0.1161516746776532,-0.1010147249561304
1539732506312040,0.9960479133287556,-0.06341649500267055,-0.07086289768825837
1539732506328045,1.035477225909819,-0.005920500495918191,-0.01886015106431671
1539732506344051,1.045731288624399,0.006286717021438903,-0.03839169909208806
1539732506360057,1.039505607690547,-0.06903181506065481,-0.08270389868009476
1539732506376062,1.0976119630731667,-0.09356832227054257,-0.04852368963149445
1539732506392068,0.9505149919890137,-0.21185626001373326,-0.10028229190508897
1539732506408073,0.9295185778591595,-0.3373464560921646,-0.09625391012436113
1539732506424079,0.9949492637521935,-0.34564736400396745,-0.24676890211337454
1539732506440084,0.8720225833524067,-0.21930266269932108,-0.1986724650949876
1539732506456090,0.9446555275806823,-0.11395437552452892,-0.13385214007782098
1539732506472095,0.9920195315480278,-0.005432211795223907,-0.0357061112382695
1539732506488101,0.8941176470588239,0.09381246662088927,-0.02154573891813527
1539732506504106,0.9618677042801558,0.14093232623788854,0.036194399938963784
1539732506520112,0.9822537575341421,0.1876859693293662,0.07672236209658934
1539732506536117,0.9545433737697415,0.2246738384069582,0.05816739147020655
1539732506552123,0.9619897764553293,0.13080033569848215,0.04254215304798947
1539732506568128,0.9689478904402229,-0.09039444571602973,-0.035217822537575216
1539732506584134,1.0080109864957656,-0.2805828946364537,-0.1961089494163426
1539732506600158,1.063065537499046,-0.3126878767071033,-0.353459983215076
1539732506616164,1.0458533607995726,-0.31964599069199684,-0.2995040817883572
1539732506632170,1.0486610208285647,-0.2926680399786372,-0.17084000915541298
1539732506648176,1.045731288624399,-0.21368734264133682,-0.10516517891203181
1539732506664182,1.0556191348134583,-0.1505760280766002,-0.11663996337834748
1539732506680188,1.0296177615014876,-0.05169756618600729,-0.12896925307087814
1539732506696194,0.9894560158693828,-0.02789349202716096,-0.07391470206759765
1539732506712200,0.9600366216525522,-0.11200122072175178,-0.03448538948653379
1539732506728206,0.9600366216525522,-0.1442282749675745,-0.0678110933089191
1539732506744212,0.9732204165712979,-0.11810482948043033,-0.11956969558251318
1539732506760218,0.9456321049820708,-0.14691386282139307,-0.12298771648737317
1539732506776224,0.932204165712978,-0.1543602655069809,-0.10125886930647754
1539732506792230,0.9469748989089801,-0.11480888075074391,-0.08599984740978117
1539732506808236,0.9439230945296408,-0.12152285038529032,-0.03595025558861664
1539732506824242,0.9479514763103687,-0.0905165178912033,-0.04754711223010588
1539732506840248,1.0039826047150378,-0.07415884641794479,-0.12310978866254674
1539732506856254,1.0144808117799649,-0.16803234912642084,-0.0829480430304419
1539732506872260,1.004470893415732,-0.18744182497901862,-0.07843137254901977
1539732506888266,0.9918974593728542,-0.12433051041428245,-0.06976424811169624
1539732506904272,0.9669947356374458,-0.10247959105821325,-0.02252231631952384
1539732506920288,0.9903105210955978,-0.08648813611047546,-0.044251163500419466
1539732506936294,0.9867704280155642,-0.12066834515907532,-0.04510566872663446
1539732506952300,1.0000762951094835,-0.17303730830853725,-0.04498359655146089
1539732506968306,0.9481956206607158,-0.15619134813458446,-0.029846646829938095
1539732506984312,0.9738307774471657,-0.21356527046616325,-0.02911421377889667
1539732507000318,0.9756618600747693,-0.1978179598687726,-0.034973678187228074
1539732507016324,0.9627222095063708,-0.12091248950942246,-0.023743038071259548
1539732507032330,0.9590600442511636,-0.1001602197299154,0.04364080262455161
1539732507048336,0.98970016021973,-0.08172732127870619,0.04083314259555948
1539732507064342,0.9701686121919586,-0.07428091859311836,0.029968719005111666
1539732507080348,0.9608911268787672,-0.08844129091325259,0.04632639047837017
1539732507096354,0.978591592278935,-0.09845120927748541,0.03997863736934448
1539732507112360,0.978591592278935,-0.12359807736324102,0.034851606012054503
1539732507128366,0.9765163653009843,-0.13995574883649953,0.03802548256656735
1539732507144372,0.9868925001907378,-0.12140077821011674,0.029480430304417382
1539732507160378,0.9929961089494164,-0.0879530022125583,0.032410162508583085
1539732507176384,0.9932402532997635,-0.10211337453269254,0.04779125658045302
1539732507192390,0.9795681696803236,-0.11786068513008319,0.03595025558861664
1539732507208396,0.9829861905851836,-0.10577553978789966,0.029724574654764524
1539732507224402,0.9928740367742428,-0.08184939345387976,0.04193179217212162
1539732507240448,0.9857938506141757,-0.0678110933089191,0.06707866025787723
1539732507256454,0.9850614175631343,-0.10467689021133753,0.0672007324330508
1539732507272460,0.9947051194018464,-0.15338368810559233,0.03302052338445094
1539732507288466,1.0004425116350042,-0.1981841763942933,-5.493247882810692E-4
1539732507304472,1.0071564812695506,-0.18988326848249049,-0.018249790188448856
1539732507320478,1.026932173647669,-0.12506294346532387,-0.018005645838101714
1539732507336484,0.9953154802777142,-0.0980849927519647,0.042908369573510186
1539732507352490,0.9848172732127871,-0.07574578469520121,0.04962233920805659
1539732507368496,0.9770046540016786,-0.07672236209658978,0.03704890516517878
1539732507384502,0.9547875181200887,-0.0905165178912033,0.050720988784618726
1539732507400508,0.9514915693904022,-0.0678110933089191,0.05560387579156156
1539732507416514,0.9782253757534143,-0.0604867627985044,0.047913328755626594
1539732507432520,0.9918974593728542,-0.09124895094224472,0.04095521477073305
1539732507448526,1.0063019760433356,-0.10418860151064324,-0.0020141908903639205
1539732507464532,1.0117952239261463,-0.13482871747920955,-0.03729304951552592
1539732507480538,1.0229037918669412,-0.18756389715419264,-0.030823224231326662
1539732507496544,1.0144808117799649,-0.20672922865644328,-0.00970473792629889
1539732507512550,1.033768215457389,-0.19794003204394617,-0.038757915617608774
1539732507528555,1.0135042343785763,-0.18780804150453978,-0.06854352635996053
1539732507544561,0.9807888914320593,-0.15155260547798877,-0.05633630884260299
1539732507560577,0.9560082398718244,-0.08184939345387976,-0.04071107042038591
1539732507576583,0.9295185778591595,-0.050720988784618726,-0.11371023117418178
1539732507592589,0.9369649805447473,-0.03717097734035235,0.03350881208514522
1539732507608595,0.9335469596398873,-0.0707408255130848,-0.025574120698863112
1539732507624601,0.9276874952315559,-0.12164492256046389,-0.11285572594796678
1539732507640607,0.9485618371862365,-0.14898908979934378,-0.04644846265354374
1539732507656613,0.9929961089494164,-0.12603952086671244,-0.0678110933089191
1539732507672619,1.0045929655909056,-0.1488670176241702,-0.05560387579156156
1539732507688625,1.0183871213855191,-0.1893949797817962,-0.07183947508964694
1539732507704631,1.0291294728007934,-0.21844815747310609,-0.129579613946746
1539732507720637,1.0340123598077362,-0.2322423132677196,-0.14459449149309522
1539732507736643,1.013870450904097,-0.20599679560540185,-0.11004806591897465
1539732507752649,0.9926298924238957,-0.17901884489204223,-0.07647821774624264
1539732507768655,0.9849393453879607,-0.1203021286335546,-0.08392462043183047
1539732507784661,0.9542992294193944,-0.1203021286335546,-0.059754329747462975
1539732507800667,0.940749217975128,-0.15118638895246805,-0.05926604104676869
1539732507816673,0.9461203936827651,-0.13690394445716025,-0.07415884641794479
1539732507832679,0.9623559929808501,-0.1354390783550774,-0.04608224612802303
1539732507848685,0.9699244678416115,-0.12921339742122528,-0.04132143129625376
1539732507864691,0.9900663767452507,-0.1371480888075074,-0.04962233920805659
1539732507880706,0.9915312428473335,-0.15753414206149374,-0.05023270008392444
1539732507896712,0.9973907072556649,-0.16632333867399085,-0.05169756618600729
1539732507912718,0.9876249332417792,-0.14728007934691378,-0.05218585488670158
1539732507928724,0.9799343862058443,-0.131288624399176,-0.027283131151293105
1539732507944730,0.9733424887464714,-0.1392233157854581,-0.023620965896085977
1539732507960736,0.9878690775921264,-0.13653772793163954,-0.0327763790341038
1539732507976742,0.987136644541085,-0.164858472571908,-0.02667277027542525
1539732507992748,0.9817654688334478,-0.17608911268787653,-0.03204394598306237
1539732508008754,0.9729762722209507,-0.20221255817502115,-0.022034027618829555
1539732508024760,0.9689478904402229,-0.2057526512550547,-0.023132677195391693
1539732508040766,0.9812771801327536,-0.18097199969481936,-0.021667811093308842
1539732508056772,0.9732204165712979,-0.19085984588387905,9.15541313801782E-4
1539732508072778,0.9689478904402229,-0.20318913557640972,-0.0020141908903639205
1539732508088784,0.9713893339436943,-0.20733958953231113,-0.031067368581673804
1539732508104790,0.9662623025864043,-0.21136797131303897,-0.03546196688792236
1539732508120796,0.96406500343328,-0.20209048599984758,-0.03155565728236809
1539732508136802,0.9612573434042879,-0.19256885633630905,-0.020935378042267416
1539732508152808,0.9517357137407494,-0.15191882200350948,0.005676356145571049
1539732508168814,0.9500267032883194,-0.1669336995498587,-1.831082627603564E-4
1539732508184820,0.9855497062638285,-0.15411612115663376,-0.03204394598306237
1539732508200836,0.9884794384679942,-0.16168459601739515,-0.03326466773479808
1539732508216842,1.00166323338674,-0.15484855420767518,-0.03265430685893023
1539732508232848,0.9771267261768521,-0.15619134813458446,-0.025574120698863112
1539732508248854,0.9872587167162585,-0.16620126649881728,-0.01495384145876244
1539732508264860,0.9805447470817121,-0.17096208133058655,-0.0109254596780346
1539732508280866,0.9886015106431678,-0.1881742580300605,-0.016662851911192433
1539732508296872,0.9832303349355307,-0.20086976424811187,-0.02679484245059882
1539732508312878,0.9879911497673,-0.21734950789654395,-0.030945296406500233
1539732508328884,0.9818875410086214,-0.22577248798352034,-0.029724574654764524
1539732508344890,0.9767605096513314,-0.21612878614480824,-0.045471885252155175
1539732508360896,0.9688258182650493,-0.2066071564812697,-0.05108720531013944
1539732508376902,0.9591821164263372,-0.20502021820401328,-0.0508430609597923
1539732508392908,0.9595483329518579,-0.1990386816205083,-0.05133134966048658
1539732508408914,0.9662623025864043,-0.19085984588387905,-0.05780117494468584
1539732508424920,0.9730983443961243,-0.18390173189898507,-0.07135118638895266
1539732508440926,0.9739528496223393,-0.19891660944533474,-0.07232776379034123
1539732508456932,0.9540550850690472,-0.2188143739986268,-0.058533607995727266
1539732508472938,0.9597924773022051,-0.19098191805905262,-0.09369039444571614
1539732508488944,0.9568627450980394,-0.18451209277485292,-0.061097123674372256
1539732508504950,0.9677271686884872,-0.203677424277104,-0.05889982452124798
1539732508520996,0.9925078202487221,-0.17779812314030652,-0.0905165178912033
1539732508537002,1.014724956130312,-0.16546883344777585,-0.08099488822766476
1539732508553008,1.0094758525978484,-0.18316929884794364,-0.04852368963149445
1539732508569014,0.980300602731365,-0.23883421072709243,-0.039002059967955915
1539732508585020,0.9506370641641873,-0.2743572137026016,-0.06463721675440626
1539732508601026,0.9228046082246131,-0.27496757457846943,-0.08990615701533544
1539732508617032,0.9160906385900667,-0.28668650339513224,-0.08905165178912045
1539732508633038,0.9292744335088123,-0.2840009155413137,-0.08184939345387976
1539732508649044,0.9600366216525522,-0.2647135118638895,-0.07415884641794479
1539732508665050,0.9816433966582743,-0.2229648279545282,-0.054505226214999425
1539732508681056,0.98628213931487,-0.18976119630731692,-0.02410925459678026
1539732508697062,0.9922636758983749,-0.19134813458457334,-0.025696192874036683
1539732508713068,0.9923857480735485,-0.21857022964827966,-0.0432745860990309
1539732508729074,0.9868925001907378,-0.23993286030365457,-0.06012054627298369
1539732508745080,0.9774929427023729,-0.22662699320973534,-0.05499351491569371
1539732508761086,0.9529564354924851,-0.2310215915159839,-0.008606088349736751
1539732508777092,0.9392843518730452,-0.22540627145799963,-0.008728160524910322
1539732508793098,0.9483176928358894,-0.19940489814602902,-0.03057907988097952
1539732508809104,0.9457541771572444,-0.20697337300679042,-0.016662851911192433
1539732508825110,0.955275806820783,-0.22565041580834677,-0.03204394598306237
1539732508841125,0.9655298695353629,-0.2243076218814375,-0.047913328755626594
1539732508857131,0.9667505912870986,-0.23407339589532317,-0.0214236667429617
1539732508873137,0.9677271686884872,-0.23541618982223245,-0.02008087281605242
1539732508889143,0.9634546425574122,-0.23248645761806674,-0.030090791180285237
1539732508905149,0.9737087052719922,-0.2234531166552225,-0.034973678187228074
1539732508921155,0.9754177157244222,-0.2124666208896011,-0.03179980163271523
1539732508937161,0.97261005569543,-0.20697337300679042,-0.01605249103532458
1539732508953167,0.9834744792858778,-0.18634317540245648,-0.014587624933241727
1539732508969173,0.9849393453879607,-0.19330128938735047,0.006286717021438903
1539732508985179,0.9876249332417792,-0.20465400167849257,0.0109254596780346
1539732509001185,0.987136644541085,-0.20172426947432687,-9.15541313801782E-4
1539732509017191,0.9928740367742428,-0.20392156862745114,0.00836194399938961
1539732509033197,0.9998321507591363,-0.21173418783855968,0.017761501487754572
1539732509049203,0.9907988097962921,-0.2301670862897689,0.01495384145876244
1539732509065209,0.9688258182650493,-0.2554360265506981,0.013366903181506018
1539732509081215,0.9738307774471657,-0.23932249942778672,0.006652933546959616
1539732509097221,0.9645532921339743,-0.20636301213092256,0.01898222323949028
1539732509113227,0.945876249332418,-0.20929274433508827,0.04888990615701516
1539732509129233,0.9281757839322502,-0.22540627145799963,0.04473945220111375
1539732509145239,0.9311055161364159,-0.23199816891737246,0.02410925459678026
1539732509161255,0.943312733653773,-0.21869230182345323,0.019592584115358136
1539732509177261,0.9634546425574122,-0.20257877470054186,0.02410925459678026
1539732509193266,0.9766384374761579,-0.20465400167849257,0.027161058976119534
1539732509209272,0.9813992523079271,-0.2301670862897689,0.023132677195391693
1539732509225278,0.9806668192568857,-0.24798962386511025,0.013488975356679589
1539732509241284,0.9784695201037614,-0.24579232471198598,0.008606088349736751
1539732509257290,0.96919203479057,-0.2251621271076525,0.021057450217440987
1539732509273296,0.968337529564355,-0.2213778896772718,0.027283131151293105
1539732509289302,0.9660181582360572,-0.2153963530937668,0.01886015106431671
1539732509305308,0.9656519417105365,-0.2200350957503625,0.01861600671396957
1539732509321314,0.9684596017395286,-0.2086823834592204,0.01495384145876244
1539732509337320,0.973464560921645,-0.20758373388265827,0.01995880064087885
1539732509353326,0.9745632104982072,-0.2083161669336997,0.01483176928358887
1539732509369332,0.9710231174181736,-0.21734950789654395,0.01898222323949028
1539732509385338,0.9767605096513314,-0.21197833218890683,0.013122758831158876
1539732509401344,0.9771267261768521,-0.21844815747310609,0.011291676203555312
1539732509417350,0.9701686121919586,-0.2322423132677196,0.01861600671396957
1539732509433356,0.968337529564355,-0.22455176623178463,0.018127718013275285
1539732509449362,0.9673609521629665,-0.21637293049515538,0.02410925459678026
1539732509465368,0.9589379720759901,-0.21173418783855968,0.024475471122300974
1539732509481384,0.9617456321049822,-0.2196688792248418,0.02032501716639956
1539732509497390,0.9658960860608836,-0.21832608529793252,0.004943923094529623
1539732509513397,0.9713893339436943,-0.2167391470206761,0.0036011291676203427
1539732509529403,0.9676050965133136,-0.22149996185244536,0.004821850919356052
1539732509545410,0.9656519417105365,-0.2296787975890746,0.0017700465400167786
1539732509561416,0.9682154573891815,-0.23212024109254603,-0.005310139620050336
1539732509577423,0.9651636530098422,-0.22943465323872747,-0.013000686655985305
1539732509593429,0.9752956435492486,-0.2251621271076525,-0.006775005722133187
1539732509609436,0.9761501487754636,-0.23407339589532317,-6.713969634546402E-4
1539732509625442,0.9812771801327536,-0.23907835507743957,-0.007995727473868897
1539732509641449,0.9892118715190357,-0.23382925154497602,-0.007263294422827471
1539732509657455,0.9866483558403907,-0.2200350957503625,-4.272526131074983E-4
1539732509673462,0.9907988097962921,-0.20990310521095612,0.008972304875257464
1539732509689468,0.9805447470817121,-0.22394140535591678,0.014587624933241727
1539732509705474,0.9685816739147022,-0.23700312809948887,0.0026245517662317752
1539732509721481,0.9629663538567179,-0.22162203402761893,-0.00323491264209963
1539732509737487,0.9618677042801558,-0.1890287632562755,0.007629510948348184
1539732509753494,0.9660181582360572,-0.17608911268787653,0.01739528496223386
1539732509769500,0.9636987869077593,-0.20050354772259116,0.015075913633936011
1539732509785507,0.9693141069657436,-0.2368810559243153,0.005432211795223907
1539732509801513,0.9759060044251164,-0.22858014801251247,-0.021057450217440987
1539732509817520,0.9589379720759901,-0.2158846417944611,-0.012878614480811734
1539732509833526,0.9392843518730452,-0.19855039291981402,-0.0022583352407110624
1539732509849533,0.9530785076676587,-0.19635309376668975,0.01239032578011745
1539732509865539,0.9474631876096744,-0.2179598687724118,-4.272526131074983E-4
1539732509881546,0.9651636530098422,-0.22601663233386748,-0.017761501487754572
1539732509897552,0.96919203479057,-0.20843823910887327,-0.024597543297474544
1539732509913559,0.9713893339436943,-0.20721751735713756,-0.0012817578393224949
1539732509929565,0.9738307774471657,-0.20794995040817899,0.003356984817273201
1539732509945572,0.9721217669947357,-0.21576256961928753,-0.0022583352407110624
1539732509961578,0.9776150148775464,-0.2356603341725796,-0.01361104753185316
1539732509977584,0.9842069123369193,-0.24432745860990313,-0.02777141985198739
1539732509993591,0.9790798809796293,-0.23529411764705888,-0.021667811093308842
1539732510009597,0.9710231174181736,-0.2276035706111239,-0.011657892729076025
1539732510025604,0.9627222095063708,-0.21173418783855968,-0.014099336232547444
1539732510041610,0.9573510337987337,-0.20672922865644328,-0.007995727473868897
1539732510057617,0.9578393224994279,-0.20721751735713756,-0.008117799649042468
1539732510073623,0.964919508659495,-0.20563057907988114,-0.012756542305638163
1539732510089630,0.9702906843671322,-0.20965896086060898,-0.006286717021438903
1539732510105636,0.9732204165712979,-0.21527428091859324,-0.007873655298695326
1539732510121673,0.9774929427023729,-0.22394140535591678,-0.011291676203555312
1539732510137680,0.9741969939726864,-0.23199816891737246,-0.007995727473868897
1539732510153686,0.9710231174181736,-0.2217441062027925,-0.011291676203555312
1539732510169693,0.9694361791409172,-0.20599679560540185,-0.008117799649042468
1539732510185699,0.966628519111925,-0.21979095140001537,-0.006652933546959616
1539732510201706,0.9679713130388343,-0.22528419928282606,-0.011779964904249596
1539732510217712,0.9728542000457772,-0.21869230182345323,-0.008728160524910322
1539732510233718,0.9728542000457772,-0.22149996185244536,-0.009582665751125319
1539732510249725,0.9788357366292821,-0.2171053635461968,-0.015686274509803866
1539732510265731,0.9715114061188679,-0.2238193331807432,-0.01373311970702673
1539732510281738,0.9679713130388343,-0.22442969405661106,-0.01373311970702673
1539732510297744,0.9687037460898758,-0.20941481651026184,-0.019104295414663852
1539732510313751,0.9685816739147022,-0.21954680704966822,-0.01104753185320817
1539732510329757,0.9707789730678265,-0.22528419928282606,-0.024597543297474544
1539732510345764,0.9718776226443886,-0.22601663233386748,-0.026306553749904538
1539732510361770,0.9676050965133136,-0.22919050888838033,-0.023743038071259548
1539732510377777,0.9645532921339743,-0.22650492103456177,-0.025818265049210254
1539732510393783,0.9595483329518579,-0.2296787975890746,-0.021179522392614558
1539732510409790,0.9575951781490808,-0.2310215915159839,-0.02545204852368954
1539732510425796,0.9588158999008165,-0.22955672541390104,-0.041443503471427334
1539732510441803,0.9632104982070651,-0.22528419928282606,-0.0432745860990309
1539732510457809,0.96406500343328,-0.22711528191042962,-0.03595025558861664
1539732510473816,0.9685816739147022,-0.22699320973525605,-0.03595025558861664
1539732510489822,0.9663843747615779,-0.2448157473105974,-0.04339665827420447
1539732510505828,0.9661402304112308,-0.24798962386511025,-0.04351873044937804
1539732510521835,0.9669947356374458,-0.23993286030365457,-0.041443503471427334
1539732510537841,0.9715114061188679,-0.22149996185244536,-0.036438544289310926
1539732510553848,0.9671168078126193,-0.2108796826123447,-0.028503852903028815
1539732510569854,0.9710231174181736,-0.2138094148165104,-0.025818265049210254
1539732510585861,0.9746852826733807,-0.20672922865644328,-0.03155565728236809
1539732510601867,0.9568627450980394,-0.17303730830853725,-0.015686274509803866
1539732510617874,0.9687037460898758,-0.17767605096513295,0.013977264057373873
1539732510633880,0.9719996948195622,-0.21771572442206466,-0.02777141985198739
1539732510649887,0.9599145494773786,-0.25311665522240023,-0.07232776379034123
1539732510665893,0.9508812085145344,-0.26691081101701375,-0.06756694895857196
1539732510681900,0.9511253528648815,-0.24213015945677885,-0.046570534828717314
1539732510697906,0.9593041886015108,-0.2330968184939346,-0.03179980163271523
1539732510713913,0.9746852826733807,-0.2313878080415046,-0.036438544289310926
1539732510729919,0.9926298924238957,-0.22748149843595034,-0.04852368963149445
1539732510745926,0.9934843976501107,-0.23797970550087744,-0.03607232776379021
1539732510761932,0.9868925001907378,-0.22784771496147105,-0.027161058976119534
1539732510777938,0.975173571374075,-0.2272373540856032,-0.017761501487754572
1539732510793945,0.9707789730678265,-0.22784771496147105,-0.024353398947127403
1539732510809951,0.968337529564355,-0.20892652780956755,-0.025574120698863112
1539732510825958,0.9645532921339743,-0.1812161440451665,-0.01373311970702673
1539732510841964,0.9660181582360572,-0.19049362935835834,0.001159685664148924
1539732510857971,0.9623559929808501,-0.2095368886854354,-0.012512397955291021
1539732510873977,0.9672388799877929,-0.2033112077515833,-0.024719615472648115
1539732510889984,0.9633325703822386,-0.2133211261158161,-0.022400244144350268
1539732510905990,0.9781033035782407,-0.19720759899290474,-0.03961242084382377
1539732510921997,0.9618677042801558,-0.20563057907988114,-0.03997863736934448
1539732510938003,0.9494163424124515,-0.24798962386511025,-0.04608224612802303
1539732510954010,0.955275806820783,-0.26361486228732733,-0.06268406195162912
1539732510970016,0.9795681696803236,-0.2334630350194553,-0.06768902113374553
1539732510986023,0.9834744792858778,-0.21612878614480824,-0.03790341039139378
1539732511002029,0.9851834897383078,-0.22040131227588322,-0.032288090333409514
1539732511018036,0.9788357366292821,-0.23749141680018315,-0.05804531929503298
1539732511034042,0.9707789730678265,-0.24725719081406883,-0.06512550545510054
1539732511050048,0.9582055390249486,-0.23651483939879459,-0.054383154039825854
1539732511066055,0.9516136415655758,-0.21808194094758537,-0.04315251392385733
1539732511082061,0.9545433737697415,-0.2007476920729383,-0.032532234683756656
1539732511098068,0.9644312199588008,-0.20563057907988114,-0.03460746166170736
1539732511114074,0.9704127565423057,-0.21356527046616325,-0.04083314259555948
1539732511130081,0.9722438391699093,-0.2263828488593882,-0.03802548256656735
1539732511146087,0.97602807660029,-0.22369726100556964,-0.037781338216220206
1539732511162094,0.9771267261768521,-0.21954680704966822,-0.02935835812924381
1539732511178100,0.9702906843671322,-0.2158846417944611,-0.03143358510719452
1539732511194107,0.9689478904402229,-0.21429770351720467,-0.032532234683756656
1539732511210113,0.9689478904402229,-0.20782787823300541,-0.03448538948653379
1539732511226120,0.966628519111925,-0.20355535210193043,-0.030945296406500233
1539732511242126,0.9630884260318915,-0.21014724956130326,-0.03411917296101308
1539732511258133,0.9672388799877929,-0.2158846417944611,-0.05169756618600729
1539732511274139,0.9612573434042879,-0.22113374532692465,-0.06549172198062125
1539732511290145,0.9541771572442208,-0.2280918593118182,-0.05535973144121442
1539732511306152,0.9528343633173115,-0.21551842526894038,-0.05157549401083372
1539732511322158,0.9575951781490808,-0.20379949645227757,-0.04449530785076661
1539732511338165,0.9612573434042879,-0.2016021972991533,-0.047913328755626594
1539732511354171,0.9647974364843215,-0.21026932173647683,-0.057068741893644415
1539732511370178,0.9645532921339743,-0.2167391470206761,-0.06207370107576082
1539732511386184,0.9627222095063708,-0.23114366369115746,-0.059632257572289404
1539732511402191,0.976882581826505,-0.20648508430609613,-0.0631723506523234
1539732511418197,0.9757839322499429,-0.2083161669336997,-0.052918287937743
1539732511434204,0.9749294270237279,-0.2200350957503625,-0.04522774090180803
1539732511450210,0.9705348287174793,-0.21454184786755182,-0.05658045319295013
1539732511466217,0.973464560921645,-0.22772564278629748,-0.055848020141908705
1539732511482223,0.9765163653009843,-0.2339513237201496,-0.054505226214999425
1539732511498230,0.9834744792858778,-0.22125581750209822,-0.05511558709086728
1539732511514236,0.988845654993515,-0.21490806439307253,-0.05218585488670158
1539732511530243,0.97773708705272,-0.21234454871442754,-0.040100709544518054
1539732511546249,0.9761501487754636,-0.19635309376668975,-0.036194399938963784
1539732511562255,0.9781033035782407,-0.1850003814755472,-0.02923628595407024
1539732511578262,0.98115510795758,-0.16913099870298298,-0.013977264057373873
1539732511594268,0.9815213244831007,-0.1703517204547187,-0.012878614480811734
1539732511610275,0.9721217669947357,-0.17901884489204223,-0.012756542305638163
1539732511626281,0.9601586938277258,-0.19671931029221046,-0.00579842832074462
1539732511642288,0.9541771572442208,-0.20892652780956755,-0.02020294499122599
1539732511658294,0.9511253528648815,-0.21319905394064254,-0.029602502479590953
1539732511674301,0.9616235599298086,-0.19928282597085545,-0.02935835812924381
1539732511690307,0.9763942931258107,-0.1893949797817962,-0.03460746166170736
1539732511706314,0.98115510795758,-0.20086976424811187,-0.039124132143129486
1539732511722351,0.9719996948195622,-0.22406347753109035,-0.049500267032883016
1539732511738357,0.9651636530098422,-0.23920042725261315,-0.055725947966735134
1539732511754364,0.9732204165712979,-0.24005493247882814,-0.07501335164415979
1539732511770370,0.9746852826733807,-0.2272373540856032,-0.07037460898756409
1539732511786377,0.9754177157244222,-0.21283283741512182,-0.05914396887159512
1539732511802383,0.9608911268787672,-0.20758373388265827,-0.05169756618600729
1539732511818390,0.9539330128938737,-0.21576256961928753,-0.04571602960250232
1539732511834396,0.96577401388571,-0.20306706340123615,-0.05011062790875087
1539732511850402,0.9772487983520257,-0.18304722667277007,-0.0424200808728159
1539732511866409,0.9855497062638285,-0.17694361791409152,-0.03460746166170736
1539732511882415,0.9884794384679942,-0.18915083543144906,-0.046570534828717314
1539732511898422,0.9835965514610514,-0.21783779659723823,-0.05621423666742942
1539732511914428,0.973464560921645,-0.22394140535591678,-0.054627298390172996
1539732511930435,0.9689478904402229,-0.19977111467154973,-0.04596017395284946
1539732511946441,0.9607690547035936,-0.1846341649500265,-0.037659266041046635
1539732511962448,0.9563744563973451,-0.19427786678873904,-0.03595025558861664
1539732511978454,0.9611352712291144,-0.19977111467154973,-0.045349813076981604
1539732511994461,0.9644312199588008,-0.19891660944533474,-0.05682459754329727
1539732512010467,0.9718776226443886,-0.19684138246738403,-0.058533607995727266
1539732512026474,0.982009613183795,-0.1957427328908219,-0.05767910276951227
1539732512042480,0.9962920576791028,-0.20856031128404684,-0.06329442282749698
1539732512058487,1.0012970168612192,-0.22333104448004892,-0.06890974288548124
1539732512074493,1.000198367284657,-0.23248645761806674,-0.08783093003738474
1539732512090500,0.9860379949645228,-0.22662699320973534,-0.09002822919050901
1539732512106506,0.9752956435492486,-0.20978103303578255,-0.08477912565804546
1539732512122512,0.9668726634622722,-0.1817044327458608,-0.08319218738078904
1539732512138519,0.9595483329518579,-0.16131837949187444,-0.07171740291447337
1539732512154525,0.9533226520180058,-0.1607080186160066,-0.04510566872663446
1539732512170532,0.953566796368353,-0.15863279163805588,-0.04351873044937804
1539732512186538,0.9485618371862365,-0.15863279163805588,-0.04864576180666802
1539732512202545,0.9409933623254751,-0.1576562142366673,-0.03729304951552592
1539732512218551,0.9362325474937059,-0.14276340886549166,-0.02288853284504455
1539732512234558,0.9295185778591595,-0.13910124361028453,-0.01495384145876244
1539732512250564,0.9318379491874573,-0.1485008010986495,-0.020691233691920274
1539732512266571,0.9730983443961243,-0.13678187228198668,-0.044251163500419466
1539732512282577,0.9921416037232014,-0.1493553063248645,-0.06439307240405912
1539732512298584,1.015579461356527,-0.17975127794308365,-0.08599984740978117
1539732512314590,1.0144808117799649,-0.20636301213092256,-0.11883726253147175
1539732512330597,1.0063019760433356,-0.2258945601586939,-0.1266498817425803
1539732512346603,0.9856717784390021,-0.20477607385366614,-0.1266498817425803
1539732512362609,0.9695582513160907,-0.16241702906843658,-0.1173723964293889
1539732512378616,0.9574731059739072,-0.15033188372625306,-0.10699626153963537
1539732512394622,0.9457541771572444,-0.16253910124361015,-0.11566338597695891
1539732512410629,0.9379415579461359,-0.1762111848630501,-0.13324177920195313
1539732512426635,0.9394064240482187,-0.19830624856946688,-0.15411612115663376
1539732512442642,0.933058670939193,-0.19244678416113548,-0.15411612115663376
1539732512458648,0.9403830014496073,-0.19513237201495404,-0.13788052185854882
1539732512474655,0.9391622796978716,-0.1965972381170369,-0.1290913252460517
1539732512490661,0.9479514763103687,-0.17926298924238937,-0.1275043869687953
1539732512506668,0.9687037460898758,-0.1890287632562755,-0.12848096437018386
1539732512522674,0.9853055619134814,-0.19745174334325188,-0.1354390783550774
1539732512538681,0.9933623254749371,-0.2310215915159839,-0.12799267566948958
1539732512554687,1.0108186465247577,-0.25812161440451664,-0.13006790264744028
1539732512570694,1.0136263065537499,-0.2800946059357594,-0.1182269016556039
1539732512586700,1.0098420691233692,-0.24750133516441597,-0.10199130235751896
1539732512602707,0.9981231403067063,-0.18561074235141506,-0.10125886930647754
1539732512618713,0.9572289616235601,-0.16876478217746227,-0.0657358663309684
1539732512634719,0.9206073090714888,-0.1694972152285037,-0.038879987792782345
1539732512650726,0.931349660486763,-0.16632333867399085,-0.06451514457923269
1539732512666732,0.983718623636225,-0.167421988250553,-0.13678187228198668
1539732512682739,1.0417029068436712,-0.16302738994430443,-0.16620126649881728
1539732512698745,1.0210727092393377,-0.22442969405661106,-0.13348592355230027
1539732512714752,0.9910429541466392,-0.2590981918059052,-0.15399404898146019
1539732512730758,0.9511253528648815,-0.26019684138246735,-0.19830624856946688
1539732512746765,0.9317158770122838,-0.24347295338368813,-0.18158236057068722
1539732512762771,0.9334248874647137,-0.20233463035019472,-0.14483863584344236
1539732512778778,0.939894712748913,-0.15594720378423732,-0.10943770504310679
1539732512794784,0.9438010223544673,-0.1392233157854581,-0.09771877622644398
1539732512810791,0.9431906614785994,-0.16473640039673443,-0.10797283894102394
1539732512826797,0.9395284962233923,-0.20123598077363258,-0.13690394445716025
1539732512842804,0.9435568780041201,-0.21405355916685753,-0.15716792553597303
1539732512858810,0.9408712901503016,-0.202822919050889,-0.16083009079118016
1539732512874817,0.9303730830853745,-0.1854886701762415,-0.15362783245593947
1539732512890823,0.9257343404287788,-0.16180666819256873,-0.14618142977035165
1539732512906829,0.906324864576181,-0.16388189517051943,-0.13360799572747384
1539732512922836,0.8883802548256661,-0.17267109178301654,-0.11346608682383463
1539732512938842,0.9156023498893724,-0.1345845731288624,-0.12152285038529032
1539732512954849,0.9639429312581065,-0.10821698329137108,-0.13873502708476382
1539732512970855,0.9942168307011521,-0.11895933470664533,-0.16253910124361015
1539732512986862,1.0230258640421148,-0.18695353627832434,-0.17730983443961224
1539732513002868,1.0221713588158998,-0.21063553826199755,-0.1957427328908219
1539732513018875,1.0210727092393377,-0.21271076523994825,-0.1940337224383919
1539732513034881,1.0178988326848248,-0.17645532921339724,-0.18658731975280363
1539732513050888,1.0128938735027084,-0.1328755626764324,-0.16729991607537942
1539732513066894,1.0064240482185092,-0.13397421225299455,-0.1342183566033417
1539732513082901,0.9875028610666057,-0.13971160448615239,-0.12762645914396886
1539732513098907,0.9566186007476922,-0.14532692454413665,-0.1345845731288624
1539732513114914,0.9269550621805145,-0.17401388570992582,-0.12323186083772031
1539732513130920,0.9180437933928438,-0.16839856565194156,-0.12335393301289388
1539732513146927,0.9309834439612423,-0.16302738994430443,-0.12848096437018386
1539732513162933,0.947585259784848,-0.18988326848249049,-0.11419851987487606
1539732513178939,0.9542992294193944,-0.21307698176546896,-0.11602960250247962
1539732513194946,0.9606469825284201,-0.22027924010070965,-0.13702601663233382
1539732513210952,0.9654077973601893,-0.21722743572137038,-0.12823682001983672
1539732513226959,0.9699244678416115,-0.20965896086060898,-0.10321202410925467
1539732513242965,0.9926298924238957,-0.18695353627832434,-0.10235751888303968
1539732513258972,1.0139925230792706,-0.18072785534447222,-0.11810482948043033
1539732513274978,1.0111848630502784,-0.20025940337224402,-0.11688410772869462
1539732513290985,1.0014190890363928,-0.22748149843595034,-0.11273365377279321
1539732513306991,0.9958037689784085,-0.23456168459601745,-0.12225528343633174
1539732513323028,0.9759060044251164,-0.23297474631876103,-0.1173723964293889
1539732513339035,0.9722438391699093,-0.2217441062027925,-0.10760662241550323
1539732513355041,0.9749294270237279,-0.19647516594186332,-0.09967193102922112
1539732513371048,0.970901045243,-0.19330128938735047,-0.08746471351186402
1539732513387054,0.9690699626153965,-0.19842832074464045,-0.0838025482566569
1539732513403061,0.9705348287174793,-0.19757381551842546,-0.08368047608148332
1539732513419067,0.978591592278935,-0.1952544441901276,-0.07794308384832549
1539732513435073,0.9724879835202564,-0.20526436255436042,-0.08319218738078904
1539732513451080,0.971755550469215,-0.21441977569237824,-0.10150301365682468
1539732513467086,0.9575951781490808,-0.22369726100556964,-0.09735255970092327
1539732513483093,0.9348897535667966,-0.2150301365682461,-0.08563363088426046
1539732513499099,0.9169451438162817,-0.2033112077515833,-0.08624399176012831
1539732513515106,0.9031509880216682,-0.1890287632562755,-0.08319218738078904
1539732513531112,0.9013199053940646,-0.17389181353475225,-0.0829480430304419
1539732513547119,0.9231708247501338,-0.18011749446860437,-0.08661020828564903
1539732513563125,0.9506370641641873,-0.20099183642328544,-0.10711833371480894
1539732513579132,0.9555199511711301,-0.20294499122606258,-0.1098039215686275
1539732513595138,0.9533226520180058,-0.2086823834592204,-0.09954985885404755
1539732513611145,0.9514915693904022,-0.19720759899290474,-0.09735255970092327
1539732513627151,0.9612573434042879,-0.17096208133058655,-0.09161516746776543
1539732513643158,0.990554665445945,-0.14288548104066523,-0.07635614557106907
1539732513659164,1.0305943389028762,-0.12530708781567101,-0.0875867856870376
1539732513675171,1.0392614633401998,-0.1459372854200045,-0.10968184939345393
1539732513691177,1.016433966582742,-0.19635309376668975,-0.1161516746776532
1539732513707183,1.0014190890363928,-0.2141756313420311,-0.13067826352330814
1539732513723190,0.9980010681315328,-0.19806210421911974,-0.14703593499656664
1539732513739196,0.9892118715190357,-0.1669336995498587,-0.1426413366903181
1539732513755203,0.9816433966582743,-0.13055619134813456,-0.13018997482261385
1539732513771209,0.9474631876096744,-0.10455481803616395,-0.12640573739223315
1539732513787216,0.8074464026855876,-0.1257953765163653,-0.06366063935301769
1539732513803222,1.054276340886549,-0.16437018387121372,-0.12384222171358816
1539732513819229,0.98286411841001,-0.1266498817425803,-0.09491111619745185
1539732513835235,0.982009613183795,-0.13897917143511096,-0.12127870603494317
1539732513851242,1.0185091935606927,-0.19305714503700333,-0.11139085984588393
1539732513867248,0.9986114290074006,-0.22980086976424818,-0.1464255741206988
1539732513883255,0.9669947356374458,-0.19220263981078833,-0.1973296711680783
1539732513899261,0.9677271686884872,-0.15875486381322945,-0.163149462119478
1539732513915268,0.9689478904402229,-0.15289539940489805,-0.0905165178912033
1539732513931274,0.9361104753185323,-0.16351567864499872,-0.0850232700083926
1539732513947281,0.9521019302662701,-0.18231479362172864,-0.12774853131914243
1539732513963287,0.9405050736247809,-0.18597695887693577,-0.17059586480506583
1539732513979293,0.9840848401617457,-0.15191882200350948,-0.14227512016479738
1539732513995300,0.9412375066758223,-0.09576562142366685,-0.04730296787975874
1539732514011306,1.0675822079804682,-0.5213092240787365,-0.23443961242084388
1539732514027313,1.026688029297322,-0.13116655222400242,-0.21441977569237824
1539732514043319,0.9463645380331123,-0.11163500419623107,-0.09271381704432757
1539732514059326,0.9258564126039524,-0.21649500267032895,0.1381246662088964
1539732514075332,0.9094987411306938,-0.08404669260700404,0.08282597085526788
1539732514091339,0.9218280308232245,-0.042664225223163044,0.0071412222476539
1539732514107345,0.9444113832303351,-0.13006790264744028,-0.02642862592507811
1539732514123352,1.0076447699702449,-0.14435034714274808,-0.09246967269398043
1539732514139358,0.9999542229343099,-0.1931792172121769,-0.093446250095369
1539732514155365,0.9843289845120928,-0.19928282597085545,-0.07440299076829193
1539732514171371,1.052567330434119,-0.18597695887693577,-0.1803616388189515
1539732514187378,1.0056916151674677,-0.04522774090180803,-0.06756694895857196
1539732514203384,1.0442664225223162,-0.03668268863965807,-0.03985656519417091
1539732514219390,1.0589150835431447,-0.024475471122300974,-0.0613412680247194
1539732514235397,1.0507362478065154,-0.05560387579156156,-0.06036469062333083
1539732514251403,1.0214389257648584,-0.08233768215457404,-0.050720988784618726
1539732514267410,0.9986114290074006,-0.06732280460822482,-0.036316472114137355
1539732514283416,0.9295185778591595,-0.08136110475318548,-0.026062409399557396
1539732514299423,0.9252460517280845,-0.08368047608148332,-0.03045700770580595
1539732514315429,0.9528343633173115,-0.058289463645380124,-0.04608224612802303
1539732514331436,0.9606469825284201,-0.05816739147020655,-0.049256122682535874
1539732514347442,0.9907988097962921,-0.10272373540856039,-0.05413900968947871
1539732514363449,0.9945830472266728,-0.1316548409246967,-0.05951018539711583
1539732514379455,0.9982452124818799,-0.10809491111619751,-0.08783093003738474
1539732514395462,1.0064240482185092,-0.04351873044937804,-0.10296787975890753
1539732514411468,1.0089875638971542,-0.04718089570458517,-0.06268406195162912
1539732514427475,1.0117952239261463,-0.09308003356984829,-0.032532234683756656
1539732514443481,1.0125276569771877,-0.11944762340733961,-0.06646829938200982
1539732514459488,1.0091096360723277,-0.11419851987487606,-0.10162508583199825
1539732514475494,0.9929961089494164,-0.11419851987487606,-0.10711833371480894
1539732514491500,0.9948271915770199,-0.11334401464866106,-0.08343633173113618
1539732514507507,1.0307164110780498,-0.10296787975890753,-0.07891966124971406
1539732514523513,0.9995880064087892,-0.08233768215457404,-0.07147325856412623
1539732514539520,0.9440451667048144,-0.07232776379034123,-0.04473945220111375
1539732514555526,0.944167238879988,-0.08038452735179691,-0.03973449301899734
1539732514571533,0.9688258182650493,-0.05267414358739586,-0.046570534828717314
1539732514587539,0.97261005569543,-0.020447089341573133,-0.05792324711985941
1539732514603546,0.9879911497673,-0.043030441748683756,-0.035217822537575216
1539732514619552,0.9766384374761579,-0.07635614557106907,-0.035095750362401645
1539732514635559,0.9113298237582974,-0.10418860151064324,-0.058411535820553695
1539732514651565,0.9241474021515224,-0.0879530022125583,-0.05096513313496587
1539732514667572,0.9678492408636608,-0.05023270008392444,-0.04095521477073305
1539732514683578,1.0047150377660792,-0.05389486533913157,-0.03997863736934448
1539732514699585,1.0082551308461127,-0.11175707637140464,-0.054627298390172996
1539732514715591,1.0246128023193712,-0.15387197680628661,-0.09112687876707115
1539732514731598,1.0617227435721368,-0.19916075379568188,-0.16168459601739515
1539732514747604,1.0059357595178149,-0.39227893492027155,-0.2515297169451438
1539732514763610,0.8898451209277489,-0.46808575570305955,-0.27496757457846943
1539732514779617,1.0473182269016554,-0.18133821622034008,-0.1928130006866562
1539732514795623,0.9960479133287556,0.10162508583199781,-0.01861600671396957
1539732514811630,0.9970244907301442,0.27032883192187374,0.14813458457312922
1539732514827636,1.002517738612955,0.22992294193942175,0.24518196383611812
1539732514843643,1.0854047455558096,0.17938506141756339,0.08355840390630931
1539732514859649,0.9009536888685439,-0.055725947966735134,0.13714808880750784
1539732514875656,0.9842069123369193,0.005065995269703194,-0.22784771496147105
1539732514891662,0.8859388113221947,-0.2091706721599147,-0.14984359502555877
1539732514907669,0.9470969710841537,-0.32172121766994755,-0.12127870603494317
1539732514923706,1.0126497291523613,-0.29925993743801005,-0.13092240787365528
1539732514939712,1.0003204394598306,-0.1220111390859846,-0.1077286945906768
1539732514955719,1.0049591821164263,0.04852368963149445,-0.06903181506065481
1539732514971725,0.97602807660029,0.10443274586098994,-0.021789883268482413
1539732514987732,1.0005645838101778,0.021057450217440987,0.032532234683756656
1539732515003738,1.0569619287403675,-0.17718776226443866,0.059754329747462975
1539732515019744,1.018997482261387,-0.27191577019913016,-0.05487144274052014
1539732515035751,0.9719996948195622,-0.2737468528267337,-0.17865262836652152
1539732515051757,1.0050812542916,-0.29034866865033937,-0.1442282749675745
1539732515067764,1.0375524528877698,-0.19977111467154973,-0.042908369573510186
1539732515083770,1.0064240482185092,-0.06598001068131554,0.03033493553063238
1539732515099777,0.9901884489204242,-0.0575570305943387,0.08514534218356573
1539732515115783,0.948439765011063,-0.09625391012436113,0.07989623865110218
1539732515131790,0.9431906614785994,-0.11285572594796678,9.15541313801782E-4
1539732515147796,0.9359884031433587,-0.12762645914396886,-0.05999847409781012
1539732515163803,0.943312733653773,-0.12677195391775387,-0.06915388723582838
1539732515179809,0.9899443045700771,-0.10418860151064324,-0.028137636377508102
1539732515195816,0.9673609521629665,-0.05535973144121442,0.011779964904249596
1539732515211822,0.9662623025864043,-0.06341649500267055,0.02789349202716096
1539732515227829,0.9884794384679942,-0.11956969558251318,0.010803387502861028
1539732515243835,1.0063019760433356,-0.1433737697413595,-0.05365072098878443
1539732515259842,1.0247348744945448,-0.1371480888075074,-0.06768902113374553
1539732515275848,1.0136263065537499,-0.09820706492713827,-0.10382238498512253
1539732515291854,1.031204699778744,-0.17669947356374438,-0.05658045319295013
1539732515307861,1.0093537804226749,-0.15631342030975803,-0.07318226901655622
1539732515323867,1.0094758525978484,-0.08087281605249119,-0.08429083695735118
1539732515339874,1.0216830701152055,-0.042786297398336615,-0.08783093003738474
1539732515355880,1.0105745021744106,-0.06878767071030767,-0.07037460898756409
1539732515371887,0.98457312886244,-0.09210345616845972,-0.02667277027542525
1539732515387893,0.9624780651560236,-0.10955977721828036,0.03790341039139378
1539732515403900,0.9647974364843215,-0.10052643625543611,0.03436331731136022
1539732515419906,0.9759060044251164,-0.07415884641794479,-0.014465552758068156
1539732515435913,0.9910429541466392,-0.07574578469520121,-0.05487144274052014
1539732515451919,0.9784695201037614,-0.10724040588998252,-0.047913328755626594
1539732515467926,0.9669947356374458,-0.13006790264744028,-0.042664225223163044
1539732515483932,0.9589379720759901,-0.12384222171358816,-0.038879987792782345
1539732515499939,0.9462424658579387,-0.09918364232852683,-0.03851377126726163
1539732515515945,0.9405050736247809,-0.08722056916151688,-0.04095521477073305
1539732515531952,0.9333028152895402,-0.08062867170214405,-0.026916914625772392
1539732515547958,0.938185702296483,-0.0762340733958955,-0.010193026626993174
1539732515563964,0.9529564354924851,-0.06964217593652267,-0.02252231631952384
1539732515579971,0.9715114061188679,-0.06732280460822482,-0.044251163500419466
1539732515595977,1.0031280994888228,-0.07440299076829193,-0.05816739147020655
1539732515611984,1.0279087510490577,-0.05999847409781012,-0.0695201037613491
1539732515627990,1.038895246814679,-0.07501335164415979,-0.04596017395284946
1539732515643997,1.052567330434119,-0.10003814755474183,-0.053040360112916574
1539732515660003,1.0877241168841074,-0.06207370107576082,-0.10626382848859395
1539732515676010,0.7006332494087131,-0.1412985427634088,-0.1943999389639126
1539732515692016,0.9513694972152287,-0.13409628442816812,-0.1144426642252232
1539732515708023,0.9567406729228658,-0.15863279163805588,-0.07086289768825837
1539732515724029,0.9949492637521935,-0.06598001068131554,-0.03802548256656735
1539732515740036,0.9892118715190357,-0.07635614557106907,0.03350881208514522
1539732515756042,1.0242465857938505,-0.07147325856412623,0.04644846265354374
1539732515772049,1.024124513618677,-0.04388494697489875,-0.015930418860151008
1539732515788055,1.0165560387579156,-0.11163500419623107,-0.030823224231326662
1539732515804062,1.0165560387579156,-0.128725108720531,-0.07525749599450693
1539732515820068,0.9928740367742428,-0.12249942778667888,-0.09588769359884042
1539732515836074,0.9679713130388343,-0.15374990463111304,-0.06036469062333083
1539732515852081,0.9690699626153965,-0.12921339742122528,-0.07049668116273766
1539732515868087,0.9884794384679942,-0.10553139543755252,-0.08270389868009476
1539732515884094,1.0097199969481956,-0.1022354467078661,-0.08404669260700404
1539732515900100,1.0031280994888228,-0.07953002212558191,-0.07611200122072193
1539732515916107,0.9846952010376135,-0.07806515602349906,-0.03729304951552592
1539732515932113,0.9998321507591363,-0.05242999923704872,-0.015686274509803866
1539732515948120,0.9879911497673,-0.03790341039139378,-0.0109254596780346
1539732515964126,1.0106965743495842,-0.049134050507362304,-0.04693675135423803
1539732515980133,0.9557640955214772,-0.046814679179064456,-0.04608224612802303
1539732515996139,1.0192416266117341,-0.09845120927748541,-0.06475928892957983
1539732516012146,0.9517357137407494,-0.20355535210193043,-0.05609216449225585
1539732516028152,1.0063019760433356,-0.11749446860456247,-0.06976424811169624
1539732516044159,0.9798123140306707,-0.06707866025787768,-0.0695201037613491
1539732516060165,0.97431906614786,-0.10077058060578326,-0.028137636377508102
1539732516076172,0.97944609750515,-0.09271381704432757,-0.0357061112382695
1539732516092178,0.9796902418554971,-0.0867322804608226,-0.05035477225909801
1539732516108184,0.9779812314030671,-0.09442282749675757,-0.03741512169069949
1539732516124191,0.9832303349355307,-0.07501335164415979,-0.05621423666742942
1539732516140197,0.9910429541466392,-0.047913328755626594,-0.0470588235294116
1539732516156204,1.233478294041352,0.031189440756847375,-0.16595712214847014
1539732516172210,0.7490959029526207,-0.1829251544975965,0.20514229037918685
1539732516188217,0.9739528496223393,-0.0896620126649883,-0.1039444571602961
1539732516204254,0.9615014877546351,-0.08429083695735118,-0.21527428091859324
1539732516220260,0.9741969939726864,-0.23065537499046318,-0.13775844968337525
1539732516236267,0.9947051194018464,-0.2566567483024338,-0.1152971694514382
1539732516252273,1.0302281223773555,-0.14325169756618594,-0.15582513160906375
1539732516268280,1.0280308232242312,-0.12005798428320746,-0.08819714656290545
1539732516284286,1.0176546883344777,-0.05889982452124798,-0.032410162508583085
1539732516300293,0.9947051194018464,-0.023254749370565264,0.02020294499122599
1539732516316299,0.9934843976501107,0.006286717021438903,0.022034027618829555
1539732516332306,0.9900663767452507,7.934691386282111E-4,-0.011902037079423167
1539732516348312,0.9947051194018464,-0.059632257572289404,-0.028137636377508102
1539732516364318,0.9931181811245899,-0.10296787975890753,-0.05780117494468584
1539732516380325,0.9857938506141757,-0.10675211718928823,-0.08844129091325259
1539732516396331,0.9795681696803236,-0.12713817044327458,-0.08392462043183047
1539732516412338,0.9699244678416115,-0.1366598001068131,-0.06976424811169624
1539732516428344,0.9818875410086214,-0.10614175631342038,-0.07562371252002764
1539732516444351,0.9877470054169528,-0.08746471351186402,-0.05242999923704872
1539732516460357,0.9910429541466392,-0.08307011520561547,-0.029480430304417382
1539732516476364,0.9932402532997635,-0.06146334019989297,-0.02032501716639956
1539732516492370,0.9976348516060121,-0.040222781719691625,-0.012878614480811734
1539732516508377,0.9912870984969864,-0.018249790188448856,-5.493247882810692E-4
1539732516524383,0.9855497062638285,-0.046692607003890885,-0.011169604028381741
1539732516540390,0.9925078202487221,-0.0745250629434655,-0.04596017395284946
1539732516556396,0.9824979018844893,-0.09234760051880686,-0.05999847409781012
1539732516572403,0.9875028610666057,-0.11676203555352105,-0.03155565728236809
1539732516588409,0.9864042114900435,-0.09796292057679112,-0.026306553749904538
1539732516604416,0.9937285420004578,-0.07318226901655622,-0.037781338216220206
1539732516620422,1.0011749446860456,-0.07525749599450693,-0.04608224612802303
1539732516636428,0.9889677271686885,-0.09857328145265898,-0.050720988784618726
1539732516652435,0.9882352941176471,-0.11541924162661177,-0.06170748455024011
1539732516668441,0.97602807660029,-0.1152971694514382,-0.062317845426107965
1539732516684448,0.975173571374075,-0.11493095292591748,-0.03802548256656735
1539732516700454,0.9755397878995957,-0.091737239642939,-0.03143358510719452
1539732516716461,0.9890897993438621,-0.08612191958495474,-0.049378194857709445
1539732516732467,0.9965362020294499,-0.10467689021133753,-0.07196154726482051
1539732516748474,0.9860379949645228,-0.12713817044327458,-0.08087281605249119
1539732516764480,0.98286411841001,-0.11871519035629818,-0.07110704203860552
1539732516780487,0.97944609750515,-0.09771877622644398,-0.05389486533913157
1539732516796493,0.9782253757534143,-0.09234760051880686,-0.03802548256656735
1539732516812500,0.9894560158693828,-0.1018692301823454,-0.04986648355840373
1539732516828506,0.9842069123369193,-0.11920347905699247,-0.05499351491569371
1539732516844513,0.9848172732127871,-0.11578545815213248,-0.05914396887159512
1539732516860519,0.9990997177080949,-0.09308003356984829,-0.06915388723582838
1539732516876526,0.9792019531548029,-0.06024261844815726,-0.051819638361180864
1539732516892532,0.9643091477836272,-0.0753795681696805,-0.006775005722133187
1539732516908538,0.9716334782940415,-0.08538948653391332,-0.011535820553902454
1539732516924545,0.9929961089494164,-0.08026245517662334,-0.07318226901655622
1539732516940551,0.9988555733577478,-0.09491111619745185,-0.06427100022888554
1539732516956558,0.9899443045700771,-0.1359273670557717,-0.08856336308842616
1539732516972564,0.9953154802777142,-0.12982375829709314,-0.09906157015335326
1539732516988571,1.0034943160143435,-0.15741206988632017,-0.0678110933089191
1539732517004577,0.9969024185549706,-0.12152285038529032,-0.08648813611047546
1539732517020584,0.9906767376211185,-0.11847104600595104,-0.054383154039825854
1539732517036590,0.9938506141756314,-0.11053635461966893,-0.03668268863965807
1539732517052597,0.9875028610666057,-0.11285572594796678,-0.04779125658045302
1539732517068603,0.9806668192568857,-0.12628366521705958,-0.03729304951552592
1539732517084610,0.9763942931258107,-0.11700617990386819,-0.0394903486686502
1539732517100616,0.983718623636225,-0.11554131380178534,-0.0508430609597923
1539732517116623,0.9787136644541086,-0.12396429388876173,-0.05767910276951227
1539732517132629,0.98115510795758,-0.13678187228198668,-0.05792324711985941
1539732517148635,0.9776150148775464,-0.12603952086671244,-0.06207370107576082
1539732517164642,0.975173571374075,-0.11834897383077747,-0.05267414358739586
1539732517180648,0.9761501487754636,-0.10821698329137108,-0.05255207141222229
1539732517196655,0.971755550469215,-0.10882734416723894,-0.06305027847714983
1539732517212661,0.9740749217975129,-0.12323186083772031,-0.07281605249103551
1539732517228668,0.9750514991989014,-0.132143129625391,-0.07208361943999408
1539732517244674,0.9909208819714657,-0.12213321126115817,-0.06805523765926624
1539732517260681,1.0028839551384756,-0.09088273441672401,-0.06720073243305125
1539732517276687,1.0003204394598306,-0.09137102311741829,-0.05096513313496587
1539732517292694,0.9887235828183414,-0.10785076676585037,-0.045593957427328746
1539732517308700,0.9855497062638285,-0.10284580758373396,-0.056946669718470844
1539732517324707,0.9767605096513314,-0.10809491111619751,-0.06671244373235696
1539732517340713,0.968337529564355,-0.12384222171358816,-0.07513542381933336
1539732517356720,0.9699244678416115,-0.12469672693980316,-0.06500343327992697
1539732517372726,0.9707789730678265,-0.09198138399328615,-0.05242999923704872
1539732517388733,0.9715114061188679,-0.08111696040283833,-0.046570534828717314
1539732517404739,0.9779812314030671,-0.10785076676585037,-0.04364080262455161
1539732517420745,0.9901884489204242,-0.12249942778667888,-0.05145342183566015
1539732517436752,0.9922636758983749,-0.11810482948043033,-0.05816739147020655
1539732517452758,0.9988555733577478,-0.12811474784466315,-0.05682459754329727
1539732517468765,0.9901884489204242,-0.11297779812314035,-0.053406576638437286
1539732517484771,0.9949492637521935,-0.09503318837262542,-0.06073090714885154
1539732517500778,0.9909208819714657,-0.10626382848859395,-0.05902189669642155
1539732517516784,0.9925078202487221,-0.11688410772869462,-0.06341649500267055
1539732517532791,0.9833524071107043,-0.1161516746776532,-0.0800183108262762
1539732517548797,0.9771267261768521,-0.12896925307087814,-0.08892957961394687
1539732517564804,0.9783474479285879,-0.13324177920195313,-0.08026245517662334
1539732517580810,0.9756618600747693,-0.1220111390859846,-0.07794308384832549
1539732517596817,0.9796902418554971,-0.09991607537956826,-0.0745250629434655
1539732517612823,0.9853055619134814,-0.093446250095369,-0.07708857862211049
1539732517628830,0.9859159227893493,-0.10833905546654465,-0.07721065079728406
1539732517644836,0.9848172732127871,-0.12310978866254674,-0.08563363088426046
1539732517660843,0.9804226749065386,-0.1098039215686275,-0.09185931181811258
1539732517676849,0.97773708705272,-0.10150301365682468,-0.07428091859311836
1539732517692855,0.978591592278935,-0.10907148851758608,-0.06732280460822482
1539732517708862,0.983718623636225,-0.11175707637140464,-0.06732280460822482
1539732517724868,0.9877470054169528,-0.09954985885404755,-0.06475928892957983
1539732517740875,0.9800564583810178,-0.0980849927519647,-0.06195162890058725
1539732517756881,0.97944609750515,-0.10199130235751896,-0.05120927748531301
1539732517772888,0.9713893339436943,-0.09503318837262542,-0.051941710536354435
1539732517788894,0.9759060044251164,-0.08245975432974761,-0.053040360112916574
1539732517804931,0.9790798809796293,-0.08148317692835905,-0.05792324711985941
1539732517820938,0.9879911497673,-0.091737239642939,-0.07269398031586194
1539732517836945,0.9945830472266728,-0.11578545815213248,-0.08526741435873975
1539732517852952,0.990554665445945,-0.129579613946746,-0.09137102311741829
1539732517868959,0.9832303349355307,-0.12921339742122528,-0.07977416647592905
1539732517884966,0.9850614175631343,-0.11578545815213248,-0.06329442282749698
1539732517900973,0.9840848401617457,-0.12249942778667888,-0.049134050507362304
1539732517916980,0.9998321507591363,-0.15533684290836947,-0.044129091325245895
1539732517932987,1.0149691004806591,-0.21734950789654395,-0.039124132143129486
1539732517948994,1.0261997405966277,-0.2775310902571144,-0.021789883268482413
1539732517965001,1.0436560616464483,-0.34479285877775245,0.035217822537575216
1539732517981008,1.0341344319829098,-0.3865415426871137,0.0945448996719307
1539732517997015,1.0424353398947126,-0.43048752574959925,0.14935530632486493
1539732518013022,1.0652628366521704,-0.44000915541313823,0.20050354772259116
1539732518029029,1.0918745708400088,-0.4519722285801482,0.2348058289463646
1539732518045035,1.1287403677424281,-0.44452582589456036,0.2503089951934081
1539732518061042,1.1402151522087438,-0.4353704127565421,0.2507972838941024
1539732518077049,1.141557946135653,-0.4253604943923093,0.24432745860990313
1539732518093056,1.1383840695811402,-0.41156633859769576,0.22162203402761893
1539732518109063,1.1338673990997181,-0.3924010070954451,0.20294499122606258
1539732518125061,1.1142137788967723,-0.3660334172579538,0.17413595788509983
1539732518141067,1.1126268406195159,-0.31012436102845786,0.13458457312886285
1539732518157074,1.106889448386358,-0.241519798580911,0.0747692072938122
1539732518173080,1.0821087968261232,-0.17987335011825722,0.015686274509803866
1539732518189087,1.061112382696269,-0.11688410772869462,-0.046692607003890885
1539732518205093,1.0417029068436712,-0.08050659952697048,-0.08807507438773188
1539732518221099,1.0106965743495842,-0.041443503471427334,-0.11944762340733961
1539732518237106,0.9704127565423057,0.0018921187151903496,-0.1572899977111466
1539732518253112,0.9145037003128103,0.013855191882200302,-0.161440451667048
1539732518269119,0.8643320363164717,0.0252079041733424,-0.1602197299153123
1539732518285125,0.8551766231784539,0.054505226214999425,-0.1876859693293662
1539732518301132,0.8566414892805367,0.1062638284885935,-0.21454184786755182
1539732518317138,0.8310063324940868,0.133974212252995,-0.27191577019913016
1539732518333145,0.8159914549477376,0.16229495689326345,-0.3266041046768904
1539732518349151,0.8083009079118026,0.20025940337224402,-0.39398794537270154
1539732518365158,0.8328374151216904,0.22699320973525605,-0.4335393301289385
1539732518381164,0.8719005111772331,0.2334630350194553,-0.4276798657206071
1539732518397171,0.9403830014496073,0.2456702525368124,-0.3963073167009994
1539732518413177,1.0063019760433356,0.2800946059357594,-0.389593347066453
1539732518429184,1.136430914778363,0.35773250934615053,-0.4397650110627911
1539732518445190,1.3149004348821238,0.4372014953841461,-0.5906462195773252
1539732518461197,1.513389791714351,0.4778515297169452,-0.840772106507973
1539732518477203,1.6776989394979784,0.5597619592584113,-1.187701228351263
1539732518493209,1.8647135118638891,0.7610589761196307,-1.406576638437476
1539732518509216,2.3592278934920268,0.758129243915465,-1.3098954757000074
1539732518525222,3.176989394979782,-3.9998779278248264,4.0
1539732518541229,0.6109102006561375,1.3467612726024258,1.1400930800335702
1539732518557235,1.030106050202182,0.8869153887235832,-0.4712596322575724
1539732518573242,1.2856031128404668,-0.1337300679026474,0.3356374456397342
1539732518589248,0.7406729228656443,-0.4531929503318839,0.6101777676050961
1539732518605255,1.0099641412985427,-0.24225223163195242,0.18158236057068766
1539732518621261,1.0702677958342868,-0.16327153429465158,0.030945296406500233
1539732518637268,0.9630884260318915,-0.20685130083161685,0.07879758907454004
1539732518653274,0.9506370641641873,-0.2713054093232623,0.055848020141908705
1539732518669281,0.9593041886015108,-0.2728923476005187,-0.04742504005493231
1539732518685287,0.9413595788509959,-0.2894941634241244,-0.15082017242694734
1539732518701294,0.9257343404287788,-0.23871213855191886,-0.27154955367360945
1539732518717300,0.9320820935378045,-0.17779812314030652,-0.3524834058136874
1539732518733307,0.942458228427558,-0.1203021286335546,-0.384466315709163
1539732518749313,0.96748302433814,-0.07306019684138265,-0.3773861295490959
1539732518765319,0.9921416037232014,-0.025940337224383825,-0.34137483787289247
1539732518781326,0.9970244907301442,-0.013000686655985305,-0.2783855954833294
1539732518797332,1.0021515220874342,0.001159685664148924,-0.2188143739986268
1539732518813339,0.9953154802777142,-0.021789883268482413,-0.1543602655069809
1539732518829345,0.9867704280155642,-0.042786297398336615,-0.10492103456168467
1539732518845352,0.9707789730678265,-0.05120927748531301,-0.07647821774624264
1539732518861358,0.9651636530098422,-0.09234760051880686,-0.04083314259555948
1539732518877365,0.9612573434042879,-0.12188906691081103,-0.017151140611886717
1539732518893371,0.9597924773022051,-0.14740215152208735,-0.005554283970397478
1539732518909378,0.9539330128938737,-0.1732814526588844,-0.02130159456778813
1539732518925384,0.9507591363393608,-0.17340352483405796,-0.04095521477073305
1539732518941391,0.9610131990539408,-0.16046387426565945,-0.0575570305943387
1539732518957397,0.9635767147325858,-0.1627832455939573,-0.05157549401083372
1539732518973404,0.9682154573891815,-0.1552147707331959,-0.04510566872663446
1539732518989410,0.9790798809796293,-0.14081025406271452,-0.0432745860990309
1539732519005416,0.9898222323949035,-0.14752422369726093,-0.04583810177767589
1539732519021423,0.9907988097962921,-0.14813458457312878,-0.05242999923704872
1539732519037429,0.9951934081025406,-0.1547264820325016,-0.0640268558785384
1539732519053436,0.9921416037232014,-0.16888685435263584,-0.05999847409781012
1539732519069442,0.9857938506141757,-0.1686427100022887,-0.06659037155718339
1539732519085449,0.9796902418554971,-0.16375982299534586,-0.06500343327992697
1539732519101455,0.9706569008926529,-0.15887693598840302,-0.0678110933089191
1539732519117462,0.9706569008926529,-0.14520485236896308,-0.07611200122072193
1539732519133468,0.9699244678416115,-0.11786068513008319,-0.0745250629434655
1539732519149475,0.9750514991989014,-0.11969176775768675,-0.07000839246204338
1539732519165481,0.9868925001907378,-0.11383230334935535,-0.059876401922636546
1539732519181488,0.9899443045700771,-0.10162508583199825,-0.06805523765926624
1539732519197494,0.983718623636225,-0.10699626153963537,-0.0715953307392998
1539732519213501,0.9872587167162585,-0.11432059205004963,-0.07818722819867263
1539732519229507,0.9810330357824064,-0.11578545815213248,-0.09027237354085615
1539732519245514,0.97773708705272,-0.12762645914396886,-0.08978408484016187
1539732519261520,0.98628213931487,-0.20856031128404684,-0.04486152437628732
1539732519277526,0.9799343862058443,-0.24457160296025027,-0.013855191882200302
1539732519293533,0.982009613183795,-0.19330128938735047,-0.04058899824521234
1539732519309539,0.9865262836652171,-0.12982375829709314,-0.09466697184710471
1539732519325546,0.9990997177080949,-0.06549172198062125,-0.1375143053330281
1539732519341552,1.0028839551384756,-0.02911421377889667,-0.16876478217746227
1539732519357559,1.0032501716639963,-0.042786297398336615,-0.15399404898146019
1539732519373565,0.9918974593728542,-0.14691386282139307,-0.06707866025787768
1539732519389572,0.9812771801327536,-0.23614862287327387,0.006408789196612474
1539732519405609,0.9831082627603571,-0.16437018387121372,-0.054627298390172996
1539732519421616,0.990554665445945,-0.060852979324025114,-0.1354390783550774
1539732519437623,1.0017853055619135,-0.0432745860990309,-0.10785076676585037
1539732519453630,1.00337224383917,-0.07232776379034123,-0.024963759822995257
1539732519469637,0.8852063782711532,-0.08416876478217761,0.014465552758068156
1539732519485643,1.0847943846799417,-0.06451514457923269,-0.07196154726482051
1539732519501650,1.0302281223773555,-0.0955214770733197,-0.08282597085526833
1539732519517657,0.9834744792858778,-0.13946746013580524,-0.0829480430304419
1539732519533664,0.968337529564355,-0.15545891508354304,-0.10833905546654465
1539732519549671,0.9447775997558558,-0.16644541084916442,-0.093446250095369
1539732519565678,0.9365987640192266,-0.1555809872587166,-0.0678110933089191
1539732519581685,0.9563744563973451,-0.0745250629434655,-0.055725947966735134
1539732519597692,0.9409933623254751,-0.008117799649042468,3.0518043793392735E-4
1539732519613699,1.057084000915541,0.024475471122300974,0.03070115205615309
1539732519629706,1.0359655146105133,-0.04608224612802303,-0.04193179217212162
1539732519645713,1.0435339894712747,-0.0972304875257497,-0.10748455024032966
1539732519661720,0.9870145723659114,-0.12152285038529032,-0.13385214007782098
1539732519677727,0.9455100328068973,-0.1161516746776532,-0.09686427100022899
1539732519693734,0.9375753414206152,-0.08270389868009476,-0.04510566872663446
1539732519709741,0.9359884031433587,-0.04351873044937804,-0.04766918440527945
1539732519725738,0.9500267032883194,-0.019714656290531707,-0.06024261844815726
1539732519741745,0.9645532921339743,-0.02130159456778813,-0.06732280460822482
1539732519757752,0.9523460746166172,-0.028503852903028815,-0.0508430609597923
1539732519773759,0.9413595788509959,-0.06121919584954583,-0.05523765926604085
1539732519789766,0.9555199511711301,-0.06939803158617552,-0.09185931181811258
1539732519805773,0.9685816739147022,-0.08270389868009476,-0.12262149996185245
1539732519821780,1.0089875638971542,-0.10077058060578326,-0.10638590066376752
1539732519837787,1.0227817196917677,-0.09869535362783255,-0.06451514457923269
1539732519853794,1.030106050202182,-0.09515526054779899,-0.04461738002594018
1539732519869801,1.020706492713817,-0.09967193102922112,-0.08599984740978117
1539732519885808,1.0039826047150378,-0.10919356069275965,-0.12152285038529032
1539732519901815,0.9980010681315328,-0.11895933470664533,-0.12164492256046389
1539732519917822,0.9921416037232014,-0.10370031280994896,-0.08404669260700404
1539732519933828,0.9940947585259785,-0.08050659952697048,-0.04315251392385733
1539732519949835,0.9955596246280614,-0.045593957427328746,-0.045349813076981604
1539732519965842,1.0075226977950713,-0.023620965896085977,-0.07110704203860552
1539732519981849,1.0093537804226749,-0.017761501487754572,-0.1068741893644618
1539732519997856,0.9955596246280614,-0.02679484245059882,-0.11602960250247962
1539732520013863,0.9732204165712979,-0.05023270008392444,-0.11456473640039677
1539732520029870,0.9547875181200887,-0.05560387579156156,-0.12420843823910888
1539732520045868,0.9361104753185323,-0.0657358663309684,-0.1380025940337224
1539732520061874,0.9215838864728774,-0.06707866025787768,-0.14276340886549166
1539732520077881,0.9291523613336388,-0.03924620431830306,-0.11297779812314035
1539732520093888,0.9586938277256429,-0.029602502479590953,-0.06793316548409267
1539732520109895,0.9910429541466392,-0.0357061112382695,-0.06158541237506654
1539732520125902,1.0188754100862134,-0.04876783398184159,-0.09234760051880686
1539732520141909,1.0313267719539176,-0.0604867627985044,-0.10125886930647754
1539732520157916,1.0332799267566948,-0.06768902113374553,-0.11798275730525676
1539732520173923,1.0102082856488899,-0.0604867627985044,-0.11859311818112461
1539732520189930,0.9868925001907378,-0.0715953307392998,-0.10955977721828036
1539732520205937,0.9479514763103687,-0.042786297398336615,-0.11541924162661177
1539732520221944,0.9428244449530787,-0.0021362630655374915,-0.10540932326237895
1539732520237951,0.9431906614785994,0.016784924086366004,-0.0648813611047534
1539732520253958,0.9682154573891815,0.04498359655146089,-0.049134050507362304
1539732520269965,0.9757839322499429,0.02801556420233453,-0.058411535820553695
1539732520285972,1.0081330586709392,0.010681315327687457,-0.08648813611047546
1539732520301979,1.0067902647440299,-0.025940337224383825,-0.12726024261844815
1539732520317986,1.0009308003356985,-0.07354848554207694,-0.1522850385290302
1539732520333993,1.010452429999237,-0.11029221026932179,-0.16876478217746227
1539732520350000,1.0297398336766612,-0.12567330434119173,-0.15167467765316234
1539732520365997,1.0177767605096513,-0.128725108720531,-0.1412985427634088
1539732520382003,0.9998321507591363,-0.11566338597695891,-0.131288624399176
1539732520398010,0.9958037689784085,-0.07818722819867263,-0.12298771648737317
1539732520414016,0.990554665445945,-0.038757915617608774,-0.08233768215457404
1539732520430023,1.0032501716639963,-0.04766918440527945,-0.029846646829938095
1539732520446029,1.0142366674296177,-0.06610208285648911,-0.029602502479590953
1539732520462036,1.0187533379110398,-0.09149309529259186,-0.08514534218356618
1539732520478042,0.9859159227893493,-0.07318226901655622,-0.13788052185854882
1539732520494049,1.00337224383917,-0.06842145418478696,-0.08148317692835905
1539732520510055,0.990554665445945,-0.049134050507362304,-0.022034027618829555
1539732520526062,0.9569848172732129,-0.05120927748531301,-0.029602502479590953
1539732520542068,0.9292744335088123,-0.044129091325245895,-0.04254215304798947
1539732520558075,0.9149919890135045,-0.02679484245059882,-0.058289463645380124
1539732520574081,0.9223163195239188,-0.026062409399557396,-0.029724574654764524
1539732520590088,0.9329365987640195,-0.020569161516746703,0.0061646448462653325
1539732520606094,0.9420920119020373,-0.021179522392614558,0.010070954451819603
1539732520622100,0.9813992523079271,-0.04644846265354374,-0.005188067444876765
1539732520638107,0.9929961089494164,-0.03350881208514522,-0.011413748378728883
1539732520654113,1.0182650492103456,-0.03826962691691449,-0.0061646448462653325
1539732520670120,1.0293736171511405,-0.0733043411917298,0.015320057984283153
1539732520686157,1.0221713588158998,-0.09869535362783255,-0.00836194399938961
1539732520702164,1.0238803692683298,-0.11456473640039677,-0.028259708552681673
1539732520718171,1.036331731136034,-0.11895933470664533,-0.02935835812924381
1539732520734178,1.0298619058518348,-0.10467689021133753,-0.03729304951552592
1539732520750185,1.018997482261387,-0.10052643625543611,-0.0214236667429617
1539732520766192,0.9788357366292821,-0.10638590066376752,-0.020569161516746703
1539732520782199,0.9507591363393608,-0.1068741893644618,-0.03595025558861664
1539732520798205,0.9363546196688795,-0.07208361943999408,-0.04754711223010588
1539732520814212,0.9547875181200887,-0.05145342183566015,-0.024719615472648115
1539732520830219,0.9566186007476922,-0.051819638361180864,-0.0018921187151903496
1539732520846226,0.9645532921339743,-0.08685435263599617,-0.019470511940184565
1539732520862233,0.9781033035782407,-0.09466697184710471,-0.06585793850614197
1539732520878240,0.9910429541466392,-0.11871519035629818,-0.07818722819867263
1539732520894247,0.9966582742046235,-0.12445258258945602,-0.06903181506065481
1539732520910254,1.0338902876325626,-0.09234760051880686,-0.05889982452124798
1539732520926261,1.0637979705500875,-0.09539940489814613,-0.035095750362401645
1539732520942268,1.0590371557183182,-0.12628366521705958,-0.05023270008392444
1539732520958275,1.0271763179980162,-0.16998550392919798,-0.07855344472419334
1539732520974282,0.97773708705272,-0.19928282597085545,-0.09564354924849328
1539732520990289,0.9474631876096744,-0.14544899671931022,-0.09735255970092327
1539732521006286,0.9187762264438852,-0.1022354467078661,-0.037781338216220206
1539732521022293,0.9009536888685439,-0.09185931181811258,0.01104753185320817
1539732521038300,0.9138933394369424,-0.09234760051880686,6.103608758678547E-5
1539732521054307,0.9466086823834594,-0.1018692301823454,-0.026306553749904538
1539732521070314,0.9795681696803236,-0.11566338597695891,-0.022278171969176697
1539732521086321,0.9949492637521935,-0.16559090562294942,-0.017273212787060288
1539732521102328,0.982009613183795,-0.1762111848630501,-0.040100709544518054
1539732521118335,0.9812771801327536,-0.14837872892347592,-0.054505226214999425
1539732521134342,0.9842069123369193,-0.12298771648737317,-0.04254215304798947
1539732521150349,0.9894560158693828,-0.12091248950942246,-0.030945296406500233
1539732521166356,0.9918974593728542,-0.131288624399176,0.0020141908903639205
1539732521182363,0.9940947585259785,-0.1299458304722667,-0.014587624933241727
1539732521198370,0.9929961089494164,-0.13092240787365528,-0.03326466773479808
1539732521214377,0.9954375524528878,-0.13446250095368883,-0.045471885252155175
1539732521230383,0.9765163653009843,-0.13263141832608527,-0.023010605020218122
1539732521246390,0.9667505912870986,-0.12896925307087814,-0.006897077897306758
1539732521262397,0.9884794384679942,-0.0888075074387733,-0.017273212787060288
1539732521278404,0.9966582742046235,-0.0963759822995347,-0.008606088349736751
1539732521294411,1.0043488212405585,-0.11114671549553679,-0.010437170977340315
1539732521310418,1.0039826047150378,-0.12896925307087814,-0.03265430685893023
1539732521326416,0.9975127794308385,-0.16705577172503228,-0.0508430609597923
1539732521342423,0.9705348287174793,-0.14898908979934378,-0.03839169909208806
1539732521358430,0.9549095902952622,-0.12091248950942246,0.021911955443655984
1539732521374436,0.9971465629053178,-0.06524757763027411,0.005432211795223907
1539732521390443,1.014724956130312,-0.051941710536354435,-0.01495384145876244
1539732521406450,1.0055695429922942,-0.11175707637140464,-0.028137636377508102
1539732521422457,0.9922636758983749,-0.12603952086671244,-0.055848020141908705
1539732521438464,0.9790798809796293,-0.13727016098268097,-0.04473945220111375
1539732521454471,0.9735866330968186,-0.10455481803616395,-0.03851377126726163
1539732521470478,0.9767605096513314,-0.10565346761272609,-0.033752956435492365
1539732521486485,0.9798123140306707,-0.0993057145037004,-0.04522774090180803
1539732521502492,0.9948271915770199,-0.1123674372472725,-0.046814679179064456
1539732521518499,1.0050812542916,-0.1308003356984817,-0.04254215304798947
1539732521534506,1.0032501716639963,-0.1400778210116731,-0.053772793163958
1539732521550513,0.9947051194018464,-0.13690394445716025,-0.06195162890058725
1539732521566520,0.9807888914320593,-0.1240863660639353,-0.05218585488670158
1539732521582527,0.9615014877546351,-0.12310978866254674,-0.03314259555962451
1539732521598534,0.9574731059739072,-0.10992599374380108,-0.0357061112382695
1539732521614541,0.970046540016785,-0.09613183794918756,-0.03729304951552592
1539732521630548,0.980300602731365,-0.11273365377279321,-0.03595025558861664
1539732521646545,0.9883573662928207,-0.11505302510109106,-0.04632639047837017
1539732521662552,0.988845654993515,-0.12091248950942246,-0.032532234683756656
1539732521678559,0.9926298924238957,-0.12176699473563746,-0.03057907988097952
1539732521694566,0.9936064698252842,-0.11285572594796678,-0.042908369573510186
1539732521710573,0.9933623254749371,-0.11029221026932179,-0.04107728694590662
1539732521726580,0.9933623254749371,-0.1123674372472725,-0.029846646829938095
1539732521742587,0.9889677271686885,-0.11847104600595104,-0.023620965896085977
1539732521758594,0.9882352941176471,-0.11944762340733961,-0.03045700770580595
1539732521774601,0.9864042114900435,-0.1190814068818189,-0.03729304951552592
1539732521790608,0.9892118715190357,-0.1152971694514382,-0.04058899824521234
1539732521806615,0.9860379949645228,-0.10626382848859395,-0.03851377126726163
1539732521822621,0.9739528496223393,-0.11566338597695891,-0.02032501716639956
1539732521838628,0.9789578088044557,-0.10931563286793322,-0.013855191882200302
1539732521854635,0.9818875410086214,-0.12005798428320746,-0.021667811093308842
1539732521870642,0.9741969939726864,-0.13409628442816812,-0.026306553749904538
1539732521886649,0.9805447470817121,-0.1325093461509117,-0.042664225223163044
1539732521902656,0.9906767376211185,-0.11981383993286032,-0.04095521477073305
1539732521918663,0.9918974593728542,-0.12713817044327458,-0.021911955443655984
1539732521934670,0.9971465629053178,-0.11834897383077747,-0.027161058976119534
1539732521950677,0.9994659342336156,-0.12079041733424889,-0.029846646829938095
1539732521966674,0.982009613183795,-0.14203097581445023,-0.030090791180285237
1539732521982681,0.976882581826505,-0.13495078965438312,-0.04522774090180803
1539732521998688,0.9765163653009843,-0.12506294346532387,-0.033875028610665936
1539732522014695,0.9765163653009843,-0.11932555123216604,-0.02935835812924381
1539732522030702,0.9752956435492486,-0.11407644769970249,-0.033630884260318794
1539732522046709,0.975173571374075,-0.12640573739223315,-0.03558403906309593
1539732522062716,0.9728542000457772,-0.13031204699778742,-0.03741512169069949
1539732522078723,0.9750514991989014,-0.1299458304722667,-0.040100709544518054
1539732522094730,0.9875028610666057,-0.12433051041428245,-0.03961242084382377
1539732522110737,0.9984893568322271,-0.12384222171358816,-0.04315251392385733
1539732522126744,0.9955596246280614,-0.13763637750820168,-0.04449530785076661
1539732522142751,0.9920195315480278,-0.1388570992599374,-0.05157549401083372
1539732522158758,0.9866483558403907,-0.13690394445716025,-0.052063782711528006
1539732522174765,0.9757839322499429,-0.12799267566948958,-0.03973449301899734
1539732522190772,0.9766384374761579,-0.11993591210803389,-0.035095750362401645
1539732522206779,0.9833524071107043,-0.11847104600595104,-0.04119935912108019
1539732522222786,0.9823758297093157,-0.13263141832608527,-0.04254215304798947
1539732522238793,0.983718623636225,-0.1380025940337224,-0.04852368963149445
1539732522254799,0.98286411841001,-0.14068818188754095,-0.04986648355840373
1539732522270806,0.9844510566872664,-0.13360799572747384,-0.0462043183031966
1539732522286834,0.9822537575341421,-0.130434119172961,-0.04339665827420447
1539732522302841,0.9759060044251164,-0.1316548409246967,-0.03424124513618665
1539732522318848,0.9789578088044557,-0.12396429388876173,-0.03533989471274879
1539732522334855,0.98628213931487,-0.12298771648737317,-0.027649347676813818
1539732522350862,0.9873807888914321,-0.1316548409246967,-0.027405203326466676
1539732522366869,0.9901884489204242,-0.13055619134813456,-0.042786297398336615
1539732522382876,0.988845654993515,-0.13604943923094526,-0.045471885252155175
1539732522398883,0.9813992523079271,-0.13653772793163954,-0.037537193865873064
1539732522414890,0.9784695201037614,-0.12396429388876173,-0.03045700770580595
1539732522430897,0.9805447470817121,-0.1203021286335546,-0.02911421377889667
1539732522446904,0.9779812314030671,-0.12713817044327458,-0.03265430685893023
1539732522462911,0.98457312886244,-0.12970168612191957,-0.04132143129625376
1539732522478918,0.98628213931487,-0.1283588921950103,-0.03668268863965807
1539732522494925,0.9831082627603571,-0.12860303654535743,-0.02789349202716096
1539732522510932,0.98457312886244,-0.1211566338597696,-0.029602502479590953
1539732522526939,0.9857938506141757,-0.12652780956740672,-0.031067368581673804
1539732522542945,0.9866483558403907,-0.12799267566948958,-0.03155565728236809
1539732522558952,0.9866483558403907,-0.12555123216601816,-0.03155565728236809
1539732522574959,0.9915312428473335,-0.12567330434119173,-0.02288853284504455
1539732522590966,0.9901884489204242,-0.126161593041886,-0.032532234683756656
1539732522606964,0.98286411841001,-0.13617151140611883,-0.03558403906309593
1539732522622971,0.9815213244831007,-0.1400778210116731,-0.03704890516517878
1539732522638978,0.9840848401617457,-0.13617151140611883,-0.04254215304798947
1539732522654985,0.982009613183795,-0.13385214007782098,-0.03936827649347663
1539732522670992,0.9800564583810178,-0.13556115053025097,-0.03704890516517878
1539732522686998,0.9816433966582743,-0.1266498817425803,-0.04217593652246876
1539732522703005,0.9817654688334478,-0.1275043869687953,-0.038879987792782345
1539732522719012,0.9859159227893493,-0.13385214007782098,-0.03826962691691449
1539732522735019,0.9890897993438621,-0.12652780956740672,-0.04779125658045302
1539732522751026,0.9899443045700771,-0.1266498817425803,-0.04254215304798947
1539732522767033,0.9922636758983749,-0.12640573739223315,-0.039002059967955915
1539732522783040,0.9824979018844893,-0.12542915999084459,-0.03558403906309593
1539732522799047,0.9738307774471657,-0.13238727397573813,-0.029724574654764524
1539732522815054,0.96406500343328,-0.12799267566948958,-0.03302052338445094
1539732522831061,0.9601586938277258,-0.11981383993286032,-0.030823224231326662
1539732522847068,0.9612573434042879,-0.11969176775768675,-0.02911421377889667
1539732522863075,0.9754177157244222,-0.12274357213702602,-0.03314259555962451
1539732522879082,0.9937285420004578,-0.11871519035629818,-0.03595025558861664
1539732522895089,1.0041046768902113,-0.13397421225299455,-0.04254215304798947
1539732522911096,1.0092317082475013,-0.14630350194552522,-0.04608224612802303
1539732522927093,0.9992217898832685,-0.15533684290836947,-0.05365072098878443
1539732522943100,0.9910429541466392,-0.14959945067521163,-0.05474937056534657
1539732522959107,0.9850614175631343,-0.13055619134813456,-0.051819638361180864
1539732522975114,0.9846952010376135,-0.12567330434119173,-0.0424200808728159
1539732522991121,0.9835965514610514,-0.12591744869153887,-0.035095750362401645
1539732523007128,0.9833524071107043,-0.13202105745021742,-0.04119935912108019
1539732523023135,0.9779812314030671,-0.13775844968337525,-0.04596017395284946
1539732523039142,0.9795681696803236,-0.13189898527504385,-0.045349813076981604
1539732523055149,0.9790798809796293,-0.12506294346532387,-0.03826962691691449
1539732523071156,0.9778591592278936,-0.13006790264744028,-0.04315251392385733
1539732523087163,0.9787136644541086,-0.13006790264744028,-0.05145342183566015
1539732523103170,0.976882581826505,-0.1412985427634088,-0.05133134966048658
1539732523119176,0.9759060044251164,-0.14544899671931022,-0.055848020141908705
1539732523135183,0.9761501487754636,-0.14203097581445023,-0.06195162890058725
1539732523151190,0.978591592278935,-0.14019989318684667,-0.058411535820553695
1539732523167197,0.9817654688334478,-0.13849088273441668,-0.05511558709086728
1539732523183204,0.9853055619134814,-0.13678187228198668,-0.05499351491569371
1539732523199211,0.9886015106431678,-0.13995574883649953,-0.04876783398184159
1539732523215218,0.9882352941176471,-0.13580529488059812,-0.050598916609445155
1539732523231225,0.9817654688334478,-0.13580529488059812,-0.04437323567559304
1539732523247253,0.9849393453879607,-0.12518501564049744,-0.03973449301899734
1539732523263260,0.9867704280155642,-0.12811474784466315,-0.0386358434424352
1539732523279267,0.9813992523079271,-0.1433737697413595,-0.041565575646600905
1539732523295274,0.973464560921645,-0.15155260547798877,-0.049134050507362304
1539732523311281,0.9757839322499429,-0.15033188372625306,-0.054505226214999425
1539732523327288,0.9855497062638285,-0.14532692454413665,-0.053772793163958
