Timestamp (microseconds),Gyro X (°/s),Gyro Y (°/s),Gyro Z (°/s)
1539732498597137,0.8239871824216607,-6.8665598535133086,-0.6408789196611906
1539732498613138,-3.997863736934505,-7.721065079728305,-0.2746623941404778
1539732498629140,-8.819714656290444,-8.270389868009488,-0.15259021896690683
1539732498645141,-11.627374685282575,-8.087281605249018,0.33569848172737693
1539732498661142,-10.650797283894008,-7.354848554207592,1.1291676203554744
1539732498677143,-2.8381780727854675,-6.8665598535133086,1.983672846570471
1539732498693144,6.500343327992596,-6.622415503166167,3.0212863355459376
1539732498709146,12.970168612191856,-6.744487678339738,3.5095750362402214
1539732498725147,13.45845731288614,-7.11070420386045,3.0212863355459376
1539732498741148,7.354848554207592,-7.2938124666209205,1.3122758831159445
1539732498757149,-0.7019150072480898,-6.8665598535133086,-0.5188067444876197
1539732498773151,-8.880750743877343,-6.500343327992596,-1.5564202334630863
1539732498789152,-13.336385137712568,-5.828946364538069,-1.9226367589837992
1539732498805153,-12.909132524605184,-5.096513313496644,-1.6174563210497581
1539732498821154,-12.664988174258042,-4.486152437628789,-1.0681315327688026
1539732498837155,-11.810482948043045,-3.997863736934505,-1.1902037079423735
1539732498853157,-10.528725108720437,-3.3264667734797513,-1.3733119707026162
1539732498869158,-9.430075532158298,-3.0823224231326094,-1.6174563210497581
1539732498885159,-6.9886320286868795,-2.8992141603723667,-1.8616006713969
1539732498901160,-3.3264667734797513,-2.5940337224383256,-1.6784924086366573
1539732498917144,1.4953841458761872,-2.410925459678083,-0.9460593575952316
1539732498933146,4.974441138323073,-2.105745021744042,0.03051804379333589
1539732498949147,6.561379415579495,-1.6784924086366573,0.8850232700083325
1539732498965148,5.3406576638437855,-1.0681315327688026,1.3122758831159445
1539732498981149,0.7629510948347615,-0.213626306553806,1.1902037079423735
1539732498997151,-3.3875028610666504,0.6408789196611906,0.8239871824216607
1539732499013152,-4.791332875562603,1.2512397955290453,0.5188067444876197
1539732499029153,-4.60822461280236,1.6174563210497581,0.45777065690094787
1539732499045154,-2.655069810025225,2.105745021744042,0.7019150072480898
1539732499061155,-0.15259021896690683,2.3498893720911838,0.8850232700083325
1539732499077157,1.6174563210497581,2.4719615472647547,0.8239871824216607
1539732499093158,2.04470893415737,2.4719615472647547,0.9460593575952316
1539732499109159,2.7161058976118966,2.4719615472647547,1.0070954451819034
1539732499125160,3.997863736934505,2.288853284504512,1.2512397955290453
1539732499141162,5.157549401083315,1.8616006713969,1.4953841458761872
1539732499157163,5.401693751430457,1.3733119707026162,1.4953841458761872
1539732499173164,4.974441138323073,1.0070954451819034,1.6174563210497581
1539732499189165,4.364080262455218,0.5798428320745188,1.5564202334630863
1539732499205166,2.7771419851987957,0.15259021896690683,1.4953841458761872
1539732499221168,1.983672846570471,-0.2746623941404778,1.2512397955290453
1539732499237182,3.2043945983061803,-0.45777065690094787,0.8850232700083325
1539732499253183,5.3406576638437855,-0.7629510948347615,0.7629510948347615
1539732499269185,8.819714656290444,-1.1291676203554744,0.8850232700083325
1539732499285186,12.23773556115043,-1.983672846570471,1.2512397955290453
1539732499301187,16.26611734187827,-3.3264667734797513,1.4953841458761872
1539732499317188,20.17242694743254,-4.730296787975931,1.5564202334630863
1539732499333190,27.496757457846797,-5.523765926604028,2.3498893720911838
1539732499349191,33.53933012893867,-6.134126802471883,3.997863736934505
1539732499365192,33.17311360341796,-6.439307240405924,5.096513313496644
1539732499381193,29.022659647516548,-6.073090714885211,4.669260700389032
1539732499397194,23.89562829022657,-5.706874189364498,3.6316472114137923
1539732499413196,17.42580300602731,-6.073090714885211,2.532997634851654
1539732499429197,11.505302510109004,-6.8665598535133086,1.4343480582895154
1539732499445198,3.0823224231326094,-7.721065079728305,0.15259021896690683
1539732499461199,-4.242008087281647,-8.209353780422589,-1.2512397955290453
1539732499477201,-10.284580758373295,-8.270389868009488,-2.166781109330941
1539732499493202,-12.298771648737329,-8.148317692835917,-2.227817196917613
1539732499509203,-12.115663385976859,-8.026245517662346,-1.2512397955290453
1539732499525204,-11.932555123216616,-7.843137254901876,-0.15259021896690683
1539732499541206,-13.214312962538997,-7.2938124666209205,0.45777065690094787
1539732499557281,-14.251926451514464,-6.378271152819025,0.6408789196611906
1539732499573283,-14.98435950255589,-5.76791027695117,0.5188067444876197
1539732499589285,-14.92332341496899,-5.523765926604028,0.2746623941404778
1539732499605286,-11.383230334935433,-5.157549401083315,-0.213626306553806
1539732499621288,-5.828946364538069,-4.669260700389032,-0.3967345693140487
1539732499637290,-2.7771419851987957,-4.303044174868319,-0.6408789196611906
1539732499653291,-2.7771419851987957,-3.570611123826893,-1.4953841458761872
1539732499669293,-2.8381780727854675,-2.7161058976118966,-2.105745021744042
1539732499685295,-2.7161058976118966,-2.227817196917613,-2.9602502479590385
1539732499701296,-1.5564202334630863,-1.739528496223329,-4.303044174868319
1539732499717298,2.5940337224383256,-1.6784924086366573,-5.828946364538069
1539732499733300,8.33142595559616,-2.288853284504512,-5.889982452124741
1539732499749302,12.23773556115043,-2.9602502479590385,-5.584802014190927
1539732499765303,11.566338597695903,-3.0212863355459376,-5.645838101777599
1539732499781305,7.782101167315204,-2.227817196917613,-5.584802014190927
1539732499797307,5.95101853971164,-1.1902037079423735,-4.669260700389032
1539732499813308,5.401693751430457,-0.45777065690094787,-3.2043945983061803
1539732499829310,2.8992141603723667,0.09155413138023505,-2.166781109330941
1539732499845312,0.213626306553806,0.7019150072480898,-1.5564202334630863
1539732499861313,-2.655069810025225,1.0681315327688026,-1.739528496223329
1539732499877411,-2.410925459678083,1.3733119707026162,-2.288853284504512
1539732499893413,1.6174563210497581,1.3122758831159445,-2.288853284504512
1539732499909415,6.073090714885211,1.2512397955290453,-2.3498893720911838
1539732499925417,9.246967269398056,1.5564202334630863,-2.4719615472647547
1539732499941419,10.162508583199724,1.9226367589837992,-2.410925459678083
1539732499957421,9.124895094224485,2.3498893720911838,-2.227817196917613
1539732499973424,8.087281605249018,2.7771419851987957,-2.227817196917613
1539732499989426,6.805523765926637,2.8381780727854675,-2.410925459678083
1539732500005428,5.76791027695117,2.8992141603723667,-2.4719615472647547
1539732500021430,6.317235065232353,2.8381780727854675,-1.983672846570471
1539732500037432,6.317235065232353,2.5940337224383256,-1.6174563210497581
1539732500053434,6.439307240405924,2.410925459678083,-1.4953841458761872
1539732500069437,9.063859006637585,2.3498893720911838,-1.1902037079423735
1539732500085439,12.787060349431613,1.9226367589837992,-0.5188067444876197
1539732500101441,15.10643167772946,1.6174563210497581,-0.213626306553806
1539732500117443,14.068818188753994,1.5564202334630863,-0.2746623941404778
1539732500133445,11.810482948043045,1.4343480582895154,-0.8239871824216607
1539732500149448,10.955977721828049,1.3122758831159445,-1.1291676203554744
1539732500165450,11.627374685282575,1.2512397955290453,-0.7019150072480898
1539732500181452,12.4208438239109,0.8239871824216607,0.15259021896690683
1539732500197540,10.467689021133765,-0.03051804379333589,1.0681315327688026
1539732500213542,1.3733119707026162,-1.3733119707026162,0.9460593575952316
1539732500229544,-14.496070801861606,-2.7161058976118966,-0.8239871824216607
1539732500245546,-25.665674830243233,-3.5095750362402214,-2.7771419851987957
1539732500261549,-26.031891355763946,-3.814755474174035,-3.0823224231326094
1539732500277551,-17.42580300602731,-3.692683299000464,-1.4343480582895154
1539732500293553,-6.927595941100208,-3.3264667734797513,0.9460593575952316
1539732500309555,-2.227817196917613,-3.0823224231326094,3.0212863355459376
1539732500325557,-4.303044174868319,-3.0823224231326094,4.303044174868319
1539732500341560,-17.60891126878755,-3.2654306858930795,4.119935912108076
1539732500357562,-36.957351033798886,-3.3875028610666504,1.739528496223329
1539732500373564,-47.028305485618375,-3.1433585107195086,-0.5188067444876197
1539732500389566,-40.92469672693983,-3.0212863355459376,-0.7019150072480898
1539732500405568,-24.505989166094423,-3.3875028610666504,0.33569848172737693
1539732500421570,-9.124895094224485,-3.3875028610666504,0.7019150072480898
1539732500437573,-2.532997634851654,-3.3264667734797513,0.03051804379333589
1539732500453575,-1.4953841458761872,-3.6316472114137923,-0.8239871824216607
1539732500469577,-1.6784924086366573,-4.119935912108076,-0.9460593575952316
1539732500485579,-2.7161058976118966,-4.242008087281647,-0.8850232700083325
1539732500501581,-7.476920729381163,-3.814755474174035,-0.7019150072480898
1539732500517669,-13.153276874952326,-3.5095750362402214,-0.7629510948347615
1539732500533672,-13.275349050125897,-3.3875028610666504,-0.45777065690094787
1539732500549675,-7.965209430075447,-3.5095750362402214,0.5798428320745188
1539732500565677,-2.8381780727854675,-3.5095750362402214,1.6784924086366573
1539732500581680,-1.4343480582895154,-3.7537193865873633,2.227817196917613
1539732500597683,-3.7537193865873633,-4.791332875562603,1.8616006713969
1539732500613685,-8.575570305943302,-6.561379415579495,0.9460593575952316
1539732500629688,-17.120622568093268,-8.392462043183059,-0.45777065690094787
1539732500645691,-27.679865720607268,-9.55214770733187,-2.105745021744042
1539732500661693,-34.21072709239343,-10.162508583199724,-3.1433585107195086
1539732500677696,-34.82108796826128,-10.101472495613052,-3.2654306858930795
1539732500693699,-30.4875257495994,-9.67421988250544,-2.655069810025225
1539732500709701,-25.29945830472252,-9.002822919050914,-1.9226367589837992
1539732500725704,-21.087968261234437,-8.087281605249018,-1.6174563210497581
1539732500741706,-17.730983443961122,-6.805523765926637,-1.4343480582895154
1539732500757709,-15.10643167772946,-5.523765926604028,-1.3733119707026162
1539732500773712,-11.566338597695903,-4.180971999694748,-1.1291676203554744
1539732500789714,-5.889982452124741,-2.7161058976118966,-0.8850232700083325
1539732500805717,-0.5798428320745188,-1.4343480582895154,-0.09155413138023505
1539732500821720,2.8992141603723667,-0.45777065690094787,0.9460593575952316
1539732500837829,6.256198977645454,0.09155413138023505,1.6784924086366573
1539732500853832,7.049668116273779,-0.03051804379333589,2.227817196917613
1539732500869835,4.058899824521177,-0.3967345693140487,2.3498893720911838
1539732500885839,-0.8850232700083325,-0.8850232700083325,1.8005645838102282
1539732500901842,-5.3406576638437855,-1.3733119707026162,1.1902037079423735
1539732500917845,-6.622415503166167,-1.6174563210497581,0.6408789196611906
1539732500933848,-4.730296787975931,-2.04470893415737,0.45777065690094787
1539732500949851,-1.8616006713969,-2.288853284504512,0.5798428320745188
1539732500965854,0.09155413138023505,-2.410925459678083,0.45777065690094787
1539732500981857,-0.09155413138023505,-2.532997634851654,0.2746623941404778
1539732500997861,-3.4485389486533222,-2.655069810025225,-0.15259021896690683
1539732501013864,-8.880750743877343,-2.410925459678083,-0.7019150072480898
1539732501029867,-11.749446860456146,-1.983672846570471,-0.8850232700083325
1539732501045870,-10.284580758373295,-1.4343480582895154,-0.45777065690094787
1539732501061873,-6.195162890058782,-1.1902037079423735,0.213626306553806
1539732501077876,-1.3122758831159445,-1.0681315327688026,0.6408789196611906
1539732501093879,2.8381780727854675,-1.1291676203554744,1.1902037079423735
1539732501109882,3.4485389486533222,-1.8616006713969,1.8005645838102282
1539732501125886,0.2746623941404778,-2.8992141603723667,2.410925459678083
1539732501141889,-6.439307240405924,-3.814755474174035,2.7161058976118966
1539732501157959,-13.214312962538997,-4.119935912108076,2.5940337224383256
1539732501173962,-18.036163881895163,-3.997863736934505,2.227817196917613
1539732501189965,-19.073777370870403,-3.2654306858930795,1.3733119707026162
1539732501205968,-14.557106889448278,-1.8616006713969,0.45777065690094787
1539732501221971,-5.889982452124741,-0.33569848172737693,0.09155413138023505
1539732501237974,3.3264667734797513,1.0681315327688026,0.09155413138023505
1539732501253977,13.946746013580423,2.8992141603723667,0.5188067444876197
1539732501269981,26.886396581978943,4.180971999694748,1.6784924086366573
1539732501285984,37.07942320897223,4.669260700389032,3.0212863355459376
1539732501301987,38.48325322346818,4.364080262455218,4.242008087281647
1539732501317990,28.96162355992965,2.5940337224383256,4.791332875562603
1539732501333993,6.439307240405924,1.3122758831159445,4.242008087281647
1539732501349996,-23.590447852292527,-0.6408789196611906,3.1433585107195086
1539732501365999,-45.868619821469565,-2.532997634851654,2.7771419851987957
1539732501382002,-56.48889906157024,-3.570611123826893,3.0823224231326094
1539732501398006,-60.33417257953761,-3.3875028610666504,1.6784924086366573
1539732501414009,-49.53078507667669,-3.2043945983061803,1.6174563210497581
1539732501430012,-41.35194934004744,-2.410925459678083,2.04470893415737
1539732501446015,-23.346303501945386,-3.6316472114137923,2.655069810025225
1539732501462018,-8.941786831464015,-4.303044174868319,3.6316472114137923
1539732501478088,-6.8665598535133086,-4.60822461280236,2.9602502479590385
1539732501494092,-12.115663385976859,-3.5095750362402214,1.5564202334630863
1539732501510095,-18.76859693293659,-2.3498893720911838,0.5798428320745188
1539732501526099,-24.994277866788707,-2.655069810025225,0.3967345693140487
1539732501542102,-30.30441748683893,-3.814755474174035,0.6408789196611906
1539732501558106,-36.530098420691274,-4.119935912108076,0.8239871824216607
1539732501574110,-45.62447547112242,-3.5095750362402214,-0.7629510948347615
1539732501590113,-63.14183260852974,-3.1433585107195086,-1.8005645838102282
1539732501606117,-69.06233310444804,-1.6784924086366573,-3.1433585107195086
1539732501622120,-64.78980697337306,-1.6784924086366573,-5.157549401083315
1539732501638124,-53.92538338292525,-4.180971999694748,-6.073090714885211
1539732501654128,-47.7607385366598,-8.575570305943302,-7.537956816968062
1539732501670131,-46.47898069733742,-9.979400320439481,-11.20012207217519
1539732501686135,-41.1078049897003,-6.9886320286868795,-14.373998626688035
1539732501702139,-16.44922560463874,-3.1433585107195086,-15.228503852903032
1539732501718142,28.04608224612798,-1.6174563210497581,-11.993591210803288
1539732501734146,65.94949263752233,-3.3875028610666504,-6.134126802471883
1539732501750149,81.69680323491275,-3.814755474174035,-2.655069810025225
1539732501766153,70.03891050583661,-2.227817196917613,-3.7537193865873633
1539732501782157,40.61951628900579,-1.6784924086366573,-6.622415503166167
1539732501798217,6.134126802471883,-1.5564202334630863,-8.51453421835663
1539732501814221,-18.280308232242305,-0.7019150072480898,-7.965209430075447
1539732501830225,-29.38887617303726,0.213626306553806,-5.3406576638437855
1539732501846228,-22.73594262607753,1.8005645838102282,-1.1902037079423735
1539732501862232,-5.157549401083315,3.0212863355459376,3.875791561760934
1539732501878235,8.45349813076973,3.7537193865873633,8.087281605249018
1539732501894239,13.519493400473038,4.9134050507361735,10.833905546654478
1539732501910243,11.871519035629717,6.683451590753066,12.054627298390187
1539732501926246,6.378271152819025,8.45349813076973,11.322194247348762
1539732501942250,2.7771419851987957,9.369039444571627,9.979400320439481
1539732501958253,5.889982452124741,9.063859006637585,8.209353780422589
1539732501974257,13.702601663233281,8.575570305943302,5.76791027695117
1539732501990261,19.01274128328373,7.537956816968062,2.5940337224383256
1539732502006264,25.36049439230942,7.049668116273779,-1.1291676203554744
1539732502022268,37.1404592965589,6.8665598535133086,-4.364080262455218
1539732502038272,48.98146028839528,6.378271152819025,-4.42511635004189
1539732502054275,54.65781643396622,4.486152437628789,-1.4953841458761872
1539732502070279,50.263218127717664,2.8381780727854675,1.2512397955290453
1539732502086282,32.80689707789725,2.8381780727854675,2.5940337224383256
1539732502102286,8.45349813076973,4.669260700389032,3.7537193865873633
1539732502118347,-8.819714656290444,7.11070420386045,5.95101853971164
1539732502134351,-15.838864728770886,8.148317692835917,8.209353780422589
1539732502150355,-15.899900816357558,7.537956816968062,9.85732814526591
1539732502166359,-15.533684290836845,6.378271152819025,10.284580758373295
1539732502182363,-14.92332341496899,4.791332875562603,8.45349813076973
1539732502198367,-15.960936903944457,3.0823224231326094,5.096513313496644
1539732502214371,-12.4208438239109,3.3875028610666504,2.4719615472647547
1539732502230375,-4.974441138323073,3.2654306858930795,2.288853284504512
1539732502246379,3.6316472114137923,2.8992141603723667,3.5095750362402214
1539732502262384,9.002822919050914,2.3498893720911838,4.852368963149502
1539732502278388,8.758678568703772,1.8616006713969,6.012054627298312
1539732502294392,4.9134050507361735,1.5564202334630863,6.8665598535133086
1539732502310396,-0.2746623941404778,0.9460593575952316,6.561379415579495
1539732502326400,-5.462729839017356,0.45777065690094787,4.9134050507361735
1539732502342404,-2.04470893415737,-0.03051804379333589,2.9602502479590385
1539732502358408,9.491111619745197,-1.5564202334630863,1.5564202334630863
1539732502374412,20.843823910887295,-2.8992141603723667,0.213626306553806
1539732502390416,27.557793545433697,-4.119935912108076,-0.33569848172737693
1539732502406420,20.965896086060866,-5.828946364538069,-1.5564202334630863
1539732502422424,8.575570305943302,-6.805523765926637,-3.875791561760934
1539732502438446,-1.739528496223329,-7.4158846417944915,-5.2185854886702145
1539732502454450,-9.491111619745197,-8.6366063935302,-4.974441138323073
1539732502470454,-16.02197299153113,-10.284580758373295,-2.166781109330941
1539732502486458,-29.877164873731545,-11.01701380941472,-1.1902037079423735
1539732502502462,-43.121995880064105,-7.598992904554734,-4.9134050507361735
1539732502518466,-43.36614023041125,-5.096513313496644,-6.439307240405924
1539732502534470,-22.919050888838,-4.303044174868319,-7.537956816968062
1539732502550474,17.79201953154802,-2.9602502479590385,-7.782101167315204
1539732502566478,62.9587243457695,-2.288853284504512,-7.2938124666209205
1539732502582482,95.30785076676602,-2.288853284504512,-6.195162890058782
1539732502598487,102.99839780270077,-4.974441138323073,-7.537956816968062
1539732502614491,88.65491721980652,-8.51453421835663,-12.176699473563758
1539732502630495,59.479667353322384,-10.162508583199724,-14.496070801861606
1539732502646499,24.628061341267994,-8.6366063935302,-14.98435950255589
1539732502662503,-5.462729839017356,-5.95101853971164,-12.481879911497572
1539732502678507,-28.656443121995835,-4.119935912108076,-9.55214770733187
1539732502694511,-35.85870145723675,-2.5940337224383256,-7.17174029144735
1539732502710515,-23.651483939879427,-1.9226367589837992,-3.692683299000464
1539732502726519,-5.401693751430457,-3.1433585107195086,-1.0070954451819034
1539732502742523,8.45349813076973,-2.7161058976118966,1.739528496223329
1539732502758575,9.613183794918768,-2.655069810025225,3.2654306858930795
1539732502774580,-0.9460593575952316,-3.3264667734797513,2.7161058976118966
1539732502790584,-9.246967269398056,-3.692683299000464,1.8005645838102282
1539732502806589,-20.538643472953254,-3.692683299000464,1.6784924086366573
1539732502822593,-2.8381780727854675,-4.547188525215461,2.3498893720911838
1539732502838598,10.528725108720437,-2.9602502479590385,3.7537193865873633
1539732502854602,6.256198977645454,-3.3875028610666504,1.739528496223329
1539732502870607,1.1291676203554744,-2.04470893415737,-0.2746623941404778
1539732502886612,-3.0823224231326094,-1.8005645838102282,-2.166781109330941
1539732502902616,2.410925459678083,-1.2512397955290453,-2.227817196917613
1539732502918621,12.054627298390187,-0.33569848172737693,-0.3967345693140487
1539732502934625,17.853055619134693,0.03051804379333589,1.6174563210497581
1539732502950630,11.749446860456146,-0.09155413138023505,2.7161058976118966
1539732502966634,-4.791332875562603,-0.5798428320745188,2.7161058976118966
1539732502982639,-24.444953078507524,-0.33569848172737693,1.739528496223329
1539732502998644,-37.50667582207984,0.3967345693140487,0.7019150072480898
1539732503014648,-39.88708323796459,1.4343480582895154,-0.15259021896690683
1539732503030653,-31.586175326161765,2.5940337224383256,-0.3967345693140487
1539732503046657,-20.782787823300396,3.570611123826893,-0.6408789196611906
1539732503062662,-6.256198977645454,3.875791561760934,-0.45777065690094787
1539732503078704,10.528725108720437,3.692683299000464,0.33569848172737693
1539732503094709,22.308690012970146,3.6316472114137923,-0.213626306553806
1539732503110714,32.257572289616064,4.60822461280236,-1.2512397955290453
1539732503126718,39.39879453727008,5.157549401083315,-1.9226367589837992
1539732503142723,36.408026245517476,4.852368963149502,-3.5095750362402214
1539732503158727,28.717479209582507,3.997863736934505,-4.303044174868319
1539732503174732,30.54856183718607,4.486152437628789,-3.936827649347606
1539732503190736,33.23414969100463,4.303044174868319,-3.3875028610666504
1539732503206741,32.257572289616064,3.5095750362402214,-3.570611123826893
1539732503222746,30.4264896620125,3.4485389486533222,-3.5095750362402214
1539732503238750,26.092927443350845,2.532997634851654,-3.7537193865873633
1539732503254755,20.35553521019301,1.9226367589837992,-3.5095750362402214
1539732503270759,9.55214770733187,2.3498893720911838,-3.570611123826893
1539732503286764,-4.364080262455218,2.532997634851654,-4.303044174868319
1539732503302768,-16.815442130159454,1.739528496223329,-5.76791027695117
1539732503318773,-22.247653925383247,1.739528496223329,-6.8665598535133086
1539732503334777,-21.27107652399468,1.8005645838102282,-6.561379415579495
1539732503350782,-16.388189517051842,0.9460593575952316,-5.828946364538069
1539732503366787,-13.397421225299468,0.45777065690094787,-5.95101853971164
1539732503382791,-10.955977721828049,0.2746623941404778,-6.927595941100208
1539732503398834,-9.491111619745197,0.2746623941404778,-7.721065079728305
1539732503414838,-7.4158846417944915,-0.9460593575952316,-8.575570305943302
1539732503430843,-0.3967345693140487,-1.0070954451819034,-8.697642481116873
1539732503446848,5.279621576256886,-0.5188067444876197,-8.087281605249018
1539732503462852,5.523765926604028,-0.9460593575952316,-7.476920729381163
1539732503478857,0.8239871824216607,-1.739528496223329,-7.354848554207592
1539732503494861,-4.9134050507361735,-2.7161058976118966,-7.598992904554734
1539732503510866,-9.002822919050914,-3.2043945983061803,-7.904173342488775
1539732503526870,-13.092240787365427,-3.570611123826893,-7.4158846417944915
1539732503542875,-21.210040436408008,-3.3875028610666504,-7.11070420386045
1539732503558879,-27.98504615854108,-3.1433585107195086,-7.11070420386045
1539732503574884,-28.900587472342977,-2.655069810025225,-7.476920729381163
1539732503590889,-20.904859998473967,-1.4953841458761872,-6.500343327992596
1539732503606893,-8.392462043183059,-0.5188067444876197,-4.9134050507361735
1539732503622898,0.7019150072480898,0.15259021896690683,-2.8381780727854675
1539732503638902,1.8005645838102282,1.1902037079423735,-1.8005645838102282
1539732503654907,-0.09155413138023505,1.2512397955290453,-1.8616006713969
1539732503670911,1.1902037079423735,1.4953841458761872,-1.6784924086366573
1539732503686916,6.744487678339738,2.105745021744042,-0.9460593575952316
1539732503702921,14.80125123979542,2.3498893720911838,-0.213626306553806
1539732503718963,27.374685282673227,2.655069810025225,0.33569848172737693
1539732503734968,41.10780498970007,3.814755474174035,-0.3967345693140487
1539732503750973,58.86930647745476,1.8005645838102282,4.058899824521177
1539732503766978,56.36682688639621,-3.570611123826893,5.401693751430457
1539732503782983,35.67559319447605,-5.645838101777599,3.7537193865873633
1539732503798988,-3.5095750362402214,-7.2938124666209205,-1.4953841458761872
1539732503814993,-44.342717631799815,-8.33142595559616,-7.537956816968062
1539732503830999,-72.11413748378732,-9.613183794918768,-11.261158159761862
1539732503847004,-73.21278706034946,-10.89494163424115,-12.054627298390187
1539732503863009,-53.498130769817635,-10.040436408026153,-10.589761196307336
1539732503879014,-31.158922713053926,-9.185931181811156,-8.209353780422589
1539732503895019,-14.80125123979542,-8.575570305943302,-5.828946364538069
1539732503911024,-4.791332875562603,-7.965209430075447,-4.42511635004189
1539732503927029,0.3967345693140487,-7.11070420386045,-3.1433585107195086
1539732503943034,4.364080262455218,-5.889982452124741,-2.166781109330941
1539732503959039,6.805523765926637,-4.669260700389032,-0.7019150072480898
1539732503975044,5.828946364538069,-3.7537193865873633,0.3967345693140487
1539732503991049,2.7161058976118966,-3.4485389486533222,1.0681315327688026
1539732504007054,2.8381780727854675,-3.936827649347606,1.8005645838102282
1539732504023059,7.4158846417944915,-3.2043945983061803,3.570611123826893
1539732504039123,5.279621576256886,-2.227817196917613,5.157549401083315
1539732504055128,-0.8850232700083325,-1.9226367589837992,4.547188525215461
1539732504071133,-6.9886320286868795,-2.166781109330941,3.5095750362402214
1539732504087138,-9.002822919050914,-2.288853284504512,2.7771419851987957
1539732504103143,-5.523765926604028,-1.9226367589837992,2.8381780727854675
1539732504119148,-1.6784924086366573,-2.288853284504512,3.2654306858930795
1539732504135153,-3.7537193865873633,-2.7771419851987957,3.4485389486533222
1539732504151158,-8.45349813076973,-3.1433585107195086,2.5940337224383256
1539732504167163,-9.002822919050914,-3.3875028610666504,2.166781109330941
1539732504183169,-6.073090714885211,-2.7161058976118966,2.288853284504512
1539732504199174,-3.692683299000464,-1.8616006713969,2.532997634851654
1539732504215179,-0.5188067444876197,-1.6174563210497581,2.8992141603723667
1539732504231184,1.9226367589837992,-2.04470893415737,3.692683299000464
1539732504247189,7.660028992141633,-2.227817196917613,4.119935912108076
1539732504263194,11.810482948043045,-2.5940337224383256,4.242008087281647
1539732504279199,9.613183794918768,-2.3498893720911838,3.0823224231326094
1539732504295204,0.9460593575952316,-1.8005645838102282,1.8616006713969
1539732504311209,-5.645838101777599,-2.04470893415737,-0.03051804379333589
1539732504327214,-6.683451590753066,-2.288853284504512,-0.213626306553806
1539732504343219,-1.9226367589837992,-2.532997634851654,0.2746623941404778
1539732504359253,4.180971999694748,-2.8381780727854675,0.09155413138023505
1539732504375258,9.308003356984727,-2.655069810025225,-0.33569848172737693
1539732504391263,7.476920729381163,-2.7161058976118966,-0.6408789196611906
1539732504407268,0.7629510948347615,-2.7771419851987957,-1.6784924086366573
1539732504423273,-4.852368963149502,-3.2043945983061803,-2.8381780727854675
1539732504439278,-7.11070420386045,-3.0823224231326094,-3.0212863355459376
1539732504455283,-7.965209430075447,-3.3875028610666504,-3.6316472114137923
1539732504471288,-9.918364232852582,-4.9134050507361735,-4.486152437628789
1539732504487293,-8.819714656290444,-6.134126802471883,-4.669260700389032
1539732504503298,-3.6316472114137923,-6.317235065232353,-4.242008087281647
1539732504519303,6.622415503166167,-3.0823224231326094,-3.814755474174035
1539732504535308,30.975814450293683,2.410925459678083,-4.303044174868319
1539732504551313,29.938200961318216,5.462729839017356,-5.401693751430457
1539732504567318,-10.589761196307336,4.547188525215461,-5.828946364538069
1539732504583323,-43.54924849317172,6.256198977645454,-4.9134050507361735
1539732504599328,-45.19722285801481,14.679179064621849,-1.6174563210497581
1539732504615333,-25.36049439230942,27.008468757152514,4.119935912108076
1539732504631338,-14.80125123979542,36.65217059586462,11.383230334935433
1539732504647343,-8.941786831464015,45.68551155870887,19.867246509498727
1539732504663348,-12.4208438239109,54.413672083619076,31.097886625467254
1539732504679412,-27.86297398336751,61.9211108567938,43.79339284351863
1539732504695418,-45.07515068284124,70.46616311894422,57.46547646295858
1539732504711423,-56.67200732433048,79.01121538109419,69.79476615548947
1539732504727429,-58.3199816891738,88.22766460669891,80.90333409628465
1539732504743435,-61.79903868162046,97.93240253299791,91.34050507362508
1539732504759440,-62.77561608300903,106.11123826962694,100.74006256198982
1539732504775446,-59.60173952849618,112.33691920347928,107.82024872205693
1539732504791451,-56.244754711223095,116.60944533455404,113.06935225452071
1539732504807457,-63.32494087129021,117.83016708628975,115.87701228351261
1539732504823462,-62.714579995422355,116.4873731593807,114.35111009384309
1539732504839468,-33.478294041352,114.10696574349595,108.06439307240407
1539732504855473,-6.317235065232353,108.12542915999074,98.35965514610507
1539732504871479,-10.772869459067579,91.34050507362508,84.62653543907845
1539732504887484,-21.39314869916825,67.59746700236519,67.90264744029946
1539732504903490,-5.889982452124741,44.220645456626016,49.591821164263365
1539732504919495,21.637293049515392,22.308690012970146,31.280994888227497
1539732504935501,27.80193789578084,-3.875791561760934,12.176699473563758
1539732504951506,13.275349050125897,-34.76005188067461,-8.697642481116873
1539732504967512,17.914091706721592,-61.371786068513074,-30.73167009994654
1539732504983517,56.183718623636196,-79.37743190661467,-49.40871290150312
1539732504999542,90.730144197757,-92.01190203707938,-63.752193484397594
1539732505015547,96.89478904402222,-106.05020218204027,-71.25963225757232
1539732505031553,104.09704737926313,-123.20134279392687,-71.6868848706797
1539732505047558,121.79751277943069,-139.68108644235895,-67.84161135271233
1539732505063564,185.27504386968758,-164.58381017776765,-65.52224002441449
1539732505079569,313.75600823987224,-215.36583504997316,-72.90760662241541
1539732505095575,318.3337148088808,-306.43167772945753,-98.72587167162601
1539732505111580,124.97138933394353,-405.0659952697031,-124.17792019531544
1539732505127586,132.7229724574654,-126.74143587396043,15.533684290836845
1539732505143592,403.60112916762046,45.5634393835353,55.390249485007644
1539732505159597,-240.5737392233159,-47.88281071183337,33.722438391698915
1539732505175603,-296.055542839704,-31.464103150988194,-4.974441138323073
1539732505191608,-324.86457618066675,-59.41863126573594,-41.53505760280768
1539732505207614,-232.27283131151307,-53.25398641947049,-66.31570916304258
1539732505223619,-47.45555809872599,6.622415503166167,-64.85084306095973
1539732505239625,-22.369726100556818,45.380331120775054,-50.01907377737098
1539732505255630,9.246967269398056,70.16098268101041,-32.37964446478986
1539732505271636,41.535057602807456,80.72022583352418,-17.120622568093268
1539732505287641,27.435721370260126,73.88418402380421,-5.0354772259097444
1539732505303647,-1.8616006713969,58.442053864347145,5.462729839017356
1539732505319671,-15.411612115663274,41.22987716487364,11.932555123216616
1539732505335677,-20.294499122606112,23.89562829022657,15.960936903944457
1539732505351682,-17.181658655680167,7.965209430075447,16.937514305333025
1539732505367688,-9.491111619745197,-4.9134050507361735,14.068818188753994
1539732505383693,-5.096513313496644,-14.435034714274707,9.613183794918768
1539732505399699,-0.2746623941404778,-19.80621042191183,4.730296787975931
1539732505415704,0.7629510948347615,-23.83459220263967,0.6408789196611906
1539732505431710,-5.889982452124741,-26.092927443350845,-2.410925459678083
1539732505447715,-1.9226367589837992,-24.07873655298681,-4.852368963149502
1539732505463721,9.430075532158298,-19.378957808804444,-6.134126802471883
1539732505479726,14.373998626688035,-13.031204699778755,-5.096513313496644
1539732505495732,12.909132524605184,-8.026245517662346,-4.669260700389032
1539732505511737,2.655069810025225,-5.096513313496644,-4.60822461280236
1539732505527743,-5.401693751430457,-3.2043945983061803,-4.9134050507361735
1539732505543748,0.3967345693140487,-1.6784924086366573,-6.256198977645454
1539732505559754,6.256198977645454,-2.655069810025225,-7.721065079728305
1539732505575760,-6.927595941100208,-6.317235065232353,-7.904173342488775
1539732505591765,-20.17242694743254,-10.955977721828049,-7.904173342488775
1539732505607771,-21.27107652399468,-15.411612115663274,-8.087281605249018
1539732505623776,-25.970855268177274,-18.158236057068734,-8.697642481116873
1539732505639801,-34.57694361791414,-18.82963302052326,-10.833905546654478
1539732505655806,-43.54924849317172,-18.524452582589447,-14.312962539101136
1539732505671812,-48.310063324940984,-17.853055619134693,-17.60891126878755
1539732505687817,-48.249027237354085,-17.24269474326684,-19.439993896391115
1539732505703823,-36.652170595864845,-13.76363775082018,-19.867246509498727
1539732505719828,-22.49179827573039,-9.246967269398056,-19.439993896391115
1539732505735834,-23.407339589532285,-8.209353780422589,-18.341344319828977
1539732505751839,-29.26680399786369,-9.918364232852582,-15.716792553597315
1539732505767845,-18.097199969481835,-9.430075532158298,-11.932555123216616
1539732505783850,-9.918364232852582,-8.575570305943302,-8.758678568703772
1539732505799856,-13.031204699778755,-9.73525597009234,-6.195162890058782
1539732505815861,-15.533684290836845,-10.711833371480907,-5.2185854886702145
1539732505831867,-12.542915999084471,-9.73525597009234,-4.669260700389032
1539732505847872,-14.618142977035177,-9.430075532158298,-4.42511635004189
1539732505863878,-12.664988174258042,-8.087281605249018,-5.157549401083315
1539732505879883,-7.232776379034021,-6.317235065232353,-6.073090714885211
1539732505895889,-4.547188525215461,-6.500343327992596,-6.744487678339738
1539732505911894,-1.2512397955290453,-7.17174029144735,-7.843137254901876
1539732505927900,-3.570611123826893,-8.026245517662346,-9.185931181811156
1539732505943905,-11.07804989700162,-7.4158846417944915,-11.07804989700162
1539732505959930,-14.129854276340893,-3.1433585107195086,-9.430075532158298
1539732505975936,-9.430075532158298,3.814755474174035,-4.486152437628789
1539732505991941,2.105745021744042,9.246967269398056,-0.45777065690094787
1539732506007947,16.937514305333025,10.955977721828049,0.6408789196611906
1539732506023952,19.256885633630873,8.575570305943302,0.03051804379333589
1539732506039958,13.397421225299468,3.7537193865873633,-2.3498893720911838
1539732506055963,19.9893186846723,0.6408789196611906,-5.584802014190927
1539732506071969,27.61882963302037,1.0681315327688026,-6.8665598535133086
1539732506087974,30.36545357442583,5.706874189364498,-3.7537193865873633
1539732506103980,32.62378881513678,9.246967269398056,-1.2512397955290453
1539732506119985,30.30441748683893,7.660028992141633,-2.410925459678083
1539732506135991,29.694056610971074,4.547188525215461,-3.997863736934505
1539732506151996,28.717479209582507,4.119935912108076,-4.364080262455218
1539732506168002,26.52018005645823,5.584802014190927,-2.166781109330941
1539732506184007,23.83459220263967,4.9134050507361735,-1.1291676203554744
1539732506200013,27.557793545433697,3.936827649347606,-1.2512397955290453
1539732506216018,22.552834363317288,3.1433585107195086,0.3967345693140487
1539732506232024,-2.7771419851987957,1.5564202334630863,0.5188067444876197
1539732506248029,-19.9893186846723,3.7537193865873633,-1.8005645838102282
1539732506264035,-39.520866712443876,3.875791561760934,-3.814755474174035
1539732506280029,-46.9672693980317,5.828946364538069,-4.547188525215461
1539732506296034,-38.36118104829484,6.256198977645454,-4.119935912108076
1539732506312040,-29.816128786144645,4.42511635004189,-0.6408789196611906
1539732506328045,-44.58686198214696,1.9226367589837992,0.09155413138023505
1539732506344051,-70.03891050583661,1.8005645838102282,-1.9226367589837992
1539732506360057,-91.70672159914534,3.7537193865873633,-4.303044174868319
1539732506376062,-89.69253070878153,6.073090714885211,-4.791332875562603
1539732506392068,-47.69970244907313,1.9226367589837992,-0.33569848172737693
1539732506408073,12.664988174258042,1.5564202334630863,5.828946364538069
1539732506424079,147.55474174105439,3.0212863355459376,12.298771648737329
1539732506440084,249.11879148546586,7.598992904554734,21.759365224688963
1539732506456090,252.59784847791252,2.7771419851987957,27.252613107499656
1539732506472095,240.93995574883638,6.378271152819025,27.557793545433697
1539732506488101,209.0791180285346,10.528725108720437,26.6422522316318
1539732506504106,121.73647669184402,6.134126802471883,22.430762188143717
1539732506520112,14.068818188753994,-1.6784924086366573,11.749446860456146
1539732506536117,-126.9245441367209,-11.444266422522333,1.8616006713969
1539732506552123,-271.94628824292363,-19.562066071564686,-7.049668116273779
1539732506568128,-348.180361638819,-22.73594262607753,-12.726024261844714
1539732506584134,-329.93057145037005,-18.524452582589447,-14.679179064621849
1539732506600158,-238.4985122453652,-12.481879911497572,-7.598992904554734
1539732506616164,-139.4369420920118,-8.697642481116873,3.4485389486533222
1539732506632170,-37.750820172426984,-4.852368963149502,12.23773556115043
1539732506648176,37.32356755931937,-3.1433585107195086,15.167467765316132
1539732506664182,84.38239108873131,-1.6784924086366573,12.970168612191856
1539732506680188,96.04028381780745,0.5188067444876197,10.89494163424115
1539732506696194,65.46120393682804,2.9602502479590385,9.613183794918768
1539732506712200,35.37041275654224,5.584802014190927,5.157549401083315
1539732506728206,21.759365224688963,7.17174029144735,1.0070954451819034
1539732506744212,15.167467765316132,6.500343327992596,-0.7019150072480898
1539732506760218,12.481879911497572,8.087281605249018,-0.8850232700083325
1539732506776224,16.08300907911803,9.185931181811156,-2.3498893720911838
1539732506792230,21.33211261158158,9.918364232852582,-2.04470893415737
1539732506808236,25.29945830472252,7.598992904554734,-1.4343480582895154
1539732506824242,24.628061341267994,6.500343327992596,-1.3122758831159445
1539732506840248,19.073777370870403,6.927595941100208,-1.6784924086366573
1539732506856254,15.533684290836845,9.124895094224485,0.15259021896690683
1539732506872260,32.13550011444249,11.383230334935433,1.5564202334630863
1539732506888266,42.20645456626221,13.092240787365427,2.04470893415737
1539732506904272,39.39879453727008,15.533684290836845,1.4343480582895154
1539732506920288,33.3562218661782,18.097199969481835,-0.15259021896690683
1539732506936294,21.57625696192872,19.439993896391115,-2.166781109330941
1539732506952300,13.58052948805971,19.623102159151586,-3.997863736934505
1539732506968306,22.308690012970146,21.087968261234437,-3.0823224231326094
1539732506984312,39.82604715037746,18.280308232242305,-2.532997634851654
1539732507000318,59.723811703669526,15.045395590142562,-1.8616006713969
1539732507016324,81.20851453421847,14.862287327382319,0.33569848172737693
1539732507032330,86.27450980392177,12.359807736324,1.1291676203554744
1539732507048336,74.55558098725896,10.040436408026153,0.2746623941404778
1539732507064342,56.855115587090495,9.308003356984727,-2.3498893720911838
1539732507080348,35.91973754482319,6.927595941100208,-3.814755474174035
1539732507096354,18.158236057068734,4.547188525215461,-4.303044174868319
1539732507112360,13.092240787365427,3.3875028610666504,-4.303044174868319
1539732507128366,15.10643167772946,2.532997634851654,-3.5095750362402214
1539732507144372,19.623102159151586,0.7019150072480898,-2.166781109330941
1539732507160378,17.24269474326684,-0.5798428320745188,-0.7629510948347615
1539732507176384,13.64156557564661,-1.3122758831159445,0.33569848172737693
1539732507192390,14.251926451514464,-1.4343480582895154,1.6784924086366573
1539732507208396,17.059586480506596,-2.105745021744042,3.6316472114137923
1539732507224402,13.336385137712568,-3.5095750362402214,5.584802014190927
1539732507240448,-2.410925459678083,-4.791332875562603,4.60822461280236
1539732507256454,-19.1348134584573,-6.439307240405924,2.288853284504512
1539732507272460,-28.412298771648693,-7.2938124666209205,-0.5188067444876197
1539732507288466,-20.904859998473967,-6.622415503166167,-1.6174563210497581
1539732507304472,0.7629510948347615,-5.279621576256886,-0.7629510948347615
1539732507320478,19.562066071564686,-3.692683299000464,1.3122758831159445
1539732507336484,23.89562829022657,-2.7771419851987957,2.288853284504512
1539732507352490,15.472648203250174,-3.0823224231326094,1.4953841458761872
1539732507368496,1.3122758831159445,-3.692683299000464,0.6408789196611906
1539732507384502,-14.312962539101136,-5.096513313496644,0.15259021896690683
1539732507400508,-30.792706187533213,-7.843137254901876,-0.03051804379333589
1539732507416514,-52.338445105668825,-10.772869459067579,-1.0681315327688026
1539732507432520,-75.10490577553969,-13.031204699778755,-3.6316472114137923
1539732507448526,-91.76775768673224,-14.068818188753994,-5.706874189364498
1539732507464532,-93.84298466468317,-13.76363775082018,-4.486152437628789
1539732507480538,-77.79049362935825,-13.092240787365427,-1.3122758831159445
1539732507496544,-58.56412603952094,-13.702601663233281,-0.8850232700083325
1539732507512550,-34.21072709239343,-14.496070801861606,-1.9226367589837992
1539732507528555,-3.936827649347606,-13.519493400473038,-1.4343480582895154
1539732507544561,17.730983443961122,-13.031204699778755,0.3967345693140487
1539732507560577,25.36049439230942,-12.542915999084471,2.9602502479590385
1539732507576583,12.970168612191856,-11.810482948043045,4.730296787975931
1539732507592589,-34.088654917219856,-14.862287327382319,4.730296787975931
1539732507608595,-46.54001678492409,-12.23773556115043,3.4485389486533222
1539732507624601,-49.713893339436936,-10.955977721828049,4.852368963149502
1539732507640607,-64.60669871061259,-14.312962539101136,7.2938124666209205
1539732507656613,-57.03822384985119,-13.885709925993751,8.45349813076973
1539732507672619,-49.10353246356908,-12.909132524605184,8.575570305943302
1539732507688625,-42.084382391088866,-11.871519035629717,6.622415503166167
1539732507704631,-19.80621042191183,-9.979400320439481,5.645838101777599
1539732507720637,12.970168612191856,-7.4158846417944915,6.134126802471883
1539732507736643,42.26749065384888,-4.9134050507361735,7.537956816968062
1539732507752649,63.87426565957139,-3.7537193865873633,7.537956816968062
1539732507768655,72.05310139620087,-2.227817196917613,6.439307240405924
1539732507784661,66.74296177615042,-0.7629510948347615,5.401693751430457
1539732507800667,62.53147173266234,0.3967345693140487,4.547188525215461
1539732507816673,63.38597695887711,1.3733119707026162,5.279621576256886
1539732507832679,59.540703440909056,1.4343480582895154,6.012054627298312
1539732507848685,51.667048142213844,1.4953841458761872,5.889982452124741
1539732507864691,45.01411459525434,1.739528496223329,5.462729839017356
1539732507880706,40.55848020141889,1.8005645838102282,5.95101853971164
1539732507896712,40.314335851071746,1.8616006713969,6.500343327992596
1539732507912718,38.78843366140222,1.739528496223329,6.8665598535133086
1539732507928724,28.229190508888223,1.6174563210497581,6.561379415579495
1539732507944730,18.036163881895163,1.8616006713969,6.317235065232353
1539732507960736,8.392462043183059,2.7771419851987957,6.622415503166167
1539732507976742,2.8381780727854675,3.2654306858930795,7.4158846417944915
1539732507992748,0.8239871824216607,3.997863736934505,7.782101167315204
1539732508008754,3.814755474174035,4.058899824521177,8.33142595559616
1539732508024760,10.955977721828049,3.4485389486533222,8.51453421835663
1539732508040766,16.1440451667047,2.288853284504512,8.51453421835663
1539732508056772,10.040436408026153,0.5188067444876197,6.073090714885211
1539732508072778,2.8992141603723667,-1.1902037079423735,1.8005645838102282
1539732508088784,2.9602502479590385,-2.8381780727854675,-0.9460593575952316
1539732508104790,7.476920729381163,-3.2043945983061803,-1.8616006713969
1539732508120796,19.195849546043974,-3.0212863355459376,-0.5188067444876197
1539732508136802,29.26680399786369,-3.0823224231326094,1.3122758831159445
1539732508152808,27.069504844739413,-4.180971999694748,1.8005645838102282
1539732508168814,16.632333867398984,-6.378271152819025,2.655069810025225
1539732508184820,17.059586480506596,-5.279621576256886,3.7537193865873633
1539732508200836,11.566338597695903,-4.791332875562603,4.974441138323073
1539732508216842,2.5940337224383256,-4.547188525215461,5.3406576638437855
1539732508232848,-4.791332875562603,-3.814755474174035,6.134126802471883
1539732508248854,-12.359807736324,-3.3875028610666504,6.317235065232353
1539732508264860,-18.524452582589447,-3.6316472114137923,6.622415503166167
1539732508280866,-25.665674830243233,-4.974441138323073,5.95101853971164
1539732508296872,-30.670634012359642,-5.76791027695117,4.791332875562603
1539732508312878,-32.07446402685605,-6.500343327992596,3.570611123826893
1539732508328884,-29.938200961318216,-7.354848554207592,2.04470893415737
1539732508344890,-27.61882963302037,-8.148317692835917,0.3967345693140487
1539732508360896,-25.909819180590375,-8.270389868009488,-0.7019150072480898
1539732508376902,-21.33211261158158,-8.51453421835663,-0.3967345693140487
1539732508392908,-14.92332341496899,-8.697642481116873,1.1902037079423735
1539732508408914,-10.284580758373295,-8.697642481116873,2.7161058976118966
1539732508424920,-9.185931181811156,-8.026245517662346,3.814755474174035
1539732508440926,-11.20012207217519,-6.622415503166167,3.997863736934505
1539732508456932,-9.67421988250544,-5.523765926604028,4.180971999694748
1539732508472938,-1.8005645838102282,-4.791332875562603,6.805523765926637
1539732508488944,-0.3967345693140487,-2.5940337224383256,9.979400320439481
1539732508504950,2.105745021744042,-1.0070954451819034,12.481879911497572
1539732508520996,2.532997634851654,0.9460593575952316,14.129854276340893
1539732508537002,-10.345616845960194,2.7771419851987957,14.435034714274707
1539732508553008,-38.23910887312127,4.60822461280236,10.589761196307336
1539732508569014,-60.51728084229808,6.317235065232353,4.669260700389032
1539732508585020,-61.493858243686645,6.927595941100208,0.2746623941404778
1539732508601026,-49.591821164263365,6.561379415579495,-0.45777065690094787
1539732508617032,-26.031891355763946,6.561379415579495,0.45777065690094787
1539732508633038,2.4719615472647547,6.073090714885211,2.166781109330941
1539732508649044,27.86297398336751,5.584802014190927,3.0212863355459376
1539732508665050,43.30510414282435,5.279621576256886,2.7161058976118966
1539732508681056,40.80262455176603,3.875791561760934,2.166781109330941
1539732508697062,31.64721141374821,3.1433585107195086,1.2512397955290453
1539732508713068,25.17738612954895,3.0823224231326094,0.5798428320745188
1539732508729074,25.909819180590375,3.0212863355459376,0.8850232700083325
1539732508745080,28.473334859235365,3.570611123826893,1.4343480582895154
1539732508761086,28.290226596475122,3.2654306858930795,1.0070954451819034
1539732508777092,28.351262684061794,2.166781109330941,0.03051804379333589
1539732508793098,25.29945830472252,1.2512397955290453,-1.1291676203554744
1539732508809104,13.824673838406852,1.0070954451819034,-2.410925459678083
1539732508825110,7.11070420386045,1.6784924086366573,-3.570611123826893
1539732508841125,5.0354772259097444,2.7771419851987957,-3.814755474174035
1539732508857131,2.7161058976118966,3.0823224231326094,-3.936827649347606
1539732508873137,2.227817196917613,3.570611123826893,-4.669260700389032
1539732508889143,5.2185854886702145,4.058899824521177,-5.096513313496644
1539732508905149,9.369039444571627,4.669260700389032,-4.364080262455218
1539732508921155,14.557106889448278,5.584802014190927,-2.532997634851654
1539732508937161,18.219272144655406,6.073090714885211,-0.5798428320745188
1539732508953167,18.95170519569683,6.805523765926637,1.0681315327688026
1539732508969173,15.350576028076603,7.17174029144735,2.105745021744042
1539732508985179,10.101472495613052,6.927595941100208,2.04470893415737
1539732509001185,4.730296787975931,6.134126802471883,1.5564202334630863
1539732509017191,-1.0681315327688026,5.828946364538069,1.3733119707026162
1539732509033197,-3.7537193865873633,5.76791027695117,1.4343480582895154
1539732509049203,-0.6408789196611906,5.645838101777599,2.532997634851654
1539732509065209,10.589761196307336,5.462729839017356,4.547188525215461
1539732509081215,23.7125200274661,4.547188525215461,6.134126802471883
1539732509097221,25.17738612954895,3.936827649347606,5.645838101777599
1539732509113227,17.303730830853738,3.3875028610666504,3.2654306858930795
1539732509129233,9.430075532158298,1.739528496223329,0.5188067444876197
1539732509145239,6.805523765926637,-0.15259021896690683,-0.9460593575952316
1539732509161255,7.17174029144735,-1.2512397955290453,-0.7019150072480898
1539732509177261,2.4719615472647547,-1.6174563210497581,-0.9460593575952316
1539732509193266,-5.95101853971164,-1.4953841458761872,-1.8005645838102282
1539732509209272,-11.932555123216616,-1.3733119707026162,-2.3498893720911838
1539732509225278,-11.383230334935433,-1.4343480582895154,-2.5940337224383256
1539732509241284,-6.195162890058782,-1.3122758831159445,-2.227817196917613
1539732509257290,-2.410925459678083,-1.4343480582895154,-1.8005645838102282
1539732509273296,-2.04470893415737,-1.5564202334630863,-2.105745021744042
1539732509289302,-1.739528496223329,-1.6784924086366573,-2.288853284504512
1539732509305308,-1.1291676203554744,-1.9226367589837992,-1.8005645838102282
1539732509321314,-0.7629510948347615,-2.04470893415737,-1.1291676203554744
1539732509337320,-1.6784924086366573,-2.166781109330941,-0.6408789196611906
1539732509353326,-3.0823224231326094,-2.227817196917613,0.03051804379333589
1539732509369332,-3.997863736934505,-2.4719615472647547,0.45777065690094787
1539732509385338,-3.0823224231326094,-3.0823224231326094,1.0681315327688026
1539732509401344,-3.692683299000464,-3.4485389486533222,1.4953841458761872
1539732509417350,-1.3122758831159445,-3.1433585107195086,1.5564202334630863
1539732509433356,0.8239871824216607,-3.6316472114137923,1.6174563210497581
1539732509449362,0.33569848172737693,-4.242008087281647,1.3733119707026162
1539732509465368,-2.288853284504512,-4.669260700389032,0.8850232700083325
1539732509481384,-4.9134050507361735,-4.9134050507361735,0.5188067444876197
1539732509497390,-6.317235065232353,-4.60822461280236,0.5188067444876197
1539732509513397,-9.613183794918768,-4.242008087281647,0.5188067444876197
1539732509529403,-13.153276874952326,-3.814755474174035,0.03051804379333589
1539732509545410,-14.129854276340893,-3.5095750362402214,-0.7019150072480898
1539732509561416,-13.76363775082018,-3.3875028610666504,-1.3733119707026162
1539732509577423,-11.566338597695903,-2.9602502479590385,-1.3122758831159445
1539732509593429,-11.322194247348762,-2.288853284504512,-1.3733119707026162
1539732509609436,-11.261158159761862,-1.739528496223329,-1.8005645838102282
1539732509625442,-9.369039444571627,-1.3122758831159445,-2.7161058976118966
1539732509641449,-5.157549401083315,-0.8239871824216607,-3.0212863355459376
1539732509657455,-1.8616006713969,-0.8239871824216607,-2.7771419851987957
1539732509673462,-3.3264667734797513,-0.7019150072480898,-3.0823224231326094
1539732509689468,-4.791332875562603,-0.8239871824216607,-3.2654306858930795
1539732509705474,0.33569848172737693,-1.4953841458761872,-2.7161058976118966
1539732509721481,9.73525597009234,-2.227817196917613,-0.8239871824216607
1539732509737487,12.787060349431613,-3.0212863355459376,1.0681315327688026
1539732509753494,4.730296787975931,-3.3264667734797513,0.8850232700083325
1539732509769500,-3.1433585107195086,-3.7537193865873633,0.45777065690094787
1539732509785507,-4.669260700389032,-4.364080262455218,-0.03051804379333589
1539732509801513,0.7019150072480898,-4.669260700389032,0.5188067444876197
1539732509817520,4.42511635004189,-4.669260700389032,1.739528496223329
1539732509833526,4.486152437628789,-4.364080262455218,2.227817196917613
1539732509849533,-2.288853284504512,-4.42511635004189,1.1902037079423735
1539732509865539,-7.965209430075447,-4.60822461280236,-0.33569848172737693
1539732509881546,-6.9886320286868795,-4.547188525215461,-0.5798428320745188
1539732509897552,-4.364080262455218,-4.242008087281647,0.6408789196611906
1539732509913559,-6.8665598535133086,-3.6316472114137923,1.1902037079423735
1539732509929565,-10.589761196307336,-2.655069810025225,0.8850232700083325
1539732509945572,-14.740215152208748,-2.105745021744042,0.3967345693140487
1539732509961578,-13.824673838406852,-1.5564202334630863,0.8239871824216607
1539732509977584,-8.819714656290444,-0.8850232700083325,0.8239871824216607
1539732509993591,-3.6316472114137923,-0.3967345693140487,0.3967345693140487
1539732510009597,1.4343480582895154,-0.213626306553806,-0.213626306553806
1539732510025604,3.3264667734797513,-0.5188067444876197,-0.33569848172737693
1539732510041610,1.4953841458761872,-0.8850232700083325,-0.03051804379333589
1539732510057617,-0.09155413138023505,-1.1291676203554744,0.5188067444876197
1539732510073623,-1.3733119707026162,-1.3122758831159445,1.1902037079423735
1539732510089630,-3.6316472114137923,-1.2512397955290453,1.6174563210497581
1539732510105636,-5.828946364538069,-1.3122758831159445,1.739528496223329
1539732510121673,-7.17174029144735,-1.3122758831159445,1.4953841458761872
1539732510137680,-7.4158846417944915,-1.3733119707026162,1.1902037079423735
1539732510153686,-6.012054627298312,-1.739528496223329,1.4343480582895154
1539732510169693,-7.4158846417944915,-2.105745021744042,1.8005645838102282
1539732510185699,-8.148317692835917,-2.166781109330941,1.983672846570471
1539732510201706,-6.683451590753066,-2.288853284504512,2.410925459678083
1539732510217712,-5.95101853971164,-2.655069810025225,2.532997634851654
1539732510233718,-6.012054627298312,-2.8381780727854675,2.532997634851654
1539732510249725,-6.622415503166167,-2.8992141603723667,2.04470893415737
1539732510265731,-8.6366063935302,-2.9602502479590385,1.4953841458761872
1539732510281738,-8.026245517662346,-3.3875028610666504,1.3733119707026162
1539732510297744,-8.697642481116873,-4.242008087281647,1.4953841458761872
1539732510313751,-12.23773556115043,-4.669260700389032,0.8850232700083325
1539732510329757,-11.07804989700162,-4.730296787975931,0.6408789196611906
1539732510345764,-10.955977721828049,-4.9134050507361735,0.7019150072480898
1539732510361770,-10.650797283894008,-4.9134050507361735,0.9460593575952316
1539732510377777,-10.223544670786623,-4.669260700389032,0.7629510948347615
1539732510393783,-9.85732814526591,-4.058899824521177,0.5188067444876197
1539732510409790,-9.613183794918768,-3.570611123826893,0.3967345693140487
1539732510425796,-9.430075532158298,-3.0212863355459376,0.15259021896690683
1539732510441803,-7.904173342488775,-2.4719615472647547,0.33569848172737693
1539732510457809,-6.744487678339738,-1.983672846570471,0.3967345693140487
1539732510473816,-8.392462043183059,-1.8005645838102282,-0.09155413138023505
1539732510489822,-4.791332875562603,-1.3122758831159445,-0.213626306553806
1539732510505828,-0.3967345693140487,-1.4343480582895154,-0.09155413138023505
1539732510521835,5.584802014190927,-1.3733119707026162,0.15259021896690683
1539732510537841,9.430075532158298,-1.2512397955290453,0.6408789196611906
1539732510553848,7.721065079728305,-0.8850232700083325,0.5188067444876197
1539732510569854,4.974441138323073,-0.6408789196611906,0.09155413138023505
1539732510585861,2.227817196917613,-0.2746623941404778,-0.03051804379333589
1539732510601867,-6.9886320286868795,-0.5188067444876197,-0.03051804379333589
1539732510617874,-29.694056610971074,-1.4343480582895154,-1.8616006713969
1539732510633880,-46.60105287251099,-0.8850232700083325,-5.3406576638437855
1539732510649887,-45.563439383535524,-0.15259021896690683,-5.462729839017356
1539732510665893,-31.036850537880355,0.03051804379333589,-2.4719615472647547
1539732510681900,-12.542915999084471,0.03051804379333589,0.5798428320745188
1539732510697906,1.0070954451819034,-0.09155413138023505,2.410925459678083
1539732510713913,9.124895094224485,0.03051804379333589,2.8381780727854675
1539732510729919,12.848096437018285,0.213626306553806,2.9602502479590385
1539732510745926,14.129854276340893,0.45777065690094787,2.5940337224383256
1539732510761932,14.251926451514464,0.33569848172737693,1.8005645838102282
1539732510777938,14.190890363927565,-0.2746623941404778,0.8239871824216607
1539732510793945,16.510261692225413,-0.8850232700083325,0.45777065690094787
1539732510809951,18.70756084534969,-1.8005645838102282,1.0070954451819034
1539732510825958,13.76363775082018,-2.4719615472647547,1.6174563210497581
1539732510841964,2.3498893720911838,-2.7161058976118966,1.2512397955290453
1539732510857971,-8.087281605249018,-2.7161058976118966,-0.2746623941404778
1539732510873977,-16.32715342946517,-2.8992141603723667,-1.0681315327688026
1539732510889984,-24.26184481574728,-3.2043945983061803,-1.3733119707026162
1539732510905990,-29.816128786144645,-2.7161058976118966,-2.227817196917613
1539732510921997,-37.68978408484031,-1.9226367589837992,-2.655069810025225
1539732510938003,-37.44563973449317,-1.0681315327688026,-2.4719615472647547
1539732510954010,-25.42153047989609,-1.1291676203554744,-1.6174563210497581
1539732510970016,-12.664988174258042,-2.04470893415737,0.03051804379333589
1539732510986023,-9.063859006637585,-2.166781109330941,0.5188067444876197
1539732511002029,-10.528725108720437,-1.9226367589837992,-0.5798428320745188
1539732511018036,-9.918364232852582,-1.4953841458761872,-1.8005645838102282
1539732511034042,-3.2654306858930795,-1.0070954451819034,-1.739528496223329
1539732511050048,3.814755474174035,-0.7629510948347615,-0.7019150072480898
1539732511066055,9.124895094224485,-0.33569848172737693,-0.09155413138023505
1539732511082061,8.758678568703772,-0.213626306553806,0.45777065690094787
1539732511098068,5.645838101777599,-0.213626306553806,0.6408789196611906
1539732511114074,2.04470893415737,0.03051804379333589,0.7019150072480898
1539732511130081,0.7629510948347615,-0.33569848172737693,0.7019150072480898
1539732511146087,0.7019150072480898,-0.7629510948347615,0.6408789196611906
1539732511162094,-0.5188067444876197,-1.2512397955290453,0.03051804379333589
1539732511178100,-3.0823224231326094,-1.5564202334630863,-0.7629510948347615
1539732511194107,-6.134126802471883,-1.8616006713969,-1.739528496223329
1539732511210113,-11.261158159761862,-2.410925459678083,-2.655069810025225
1539732511226120,-16.693369954985883,-2.8992141603723667,-3.4485389486533222
1539732511242126,-22.49179827573039,-3.3264667734797513,-4.364080262455218
1539732511258133,-24.383916990920852,-3.2043945983061803,-4.974441138323073
1539732511274139,-22.186617837796575,-2.8381780727854675,-4.364080262455218
1539732511290145,-16.632333867398984,-2.227817196917613,-3.3875028610666504
1539732511306152,-9.430075532158298,-2.166781109330941,-1.8616006713969
1539732511322158,-7.476920729381163,-2.105745021744042,-0.9460593575952316
1539732511338165,-6.561379415579495,-1.739528496223329,-0.5798428320745188
1539732511354171,-4.60822461280236,-1.6174563210497581,-0.2746623941404778
1539732511370178,-2.532997634851654,-1.1902037079423735,-0.15259021896690683
1539732511386184,1.1902037079423735,-1.2512397955290453,0.2746623941404778
1539732511402191,3.3264667734797513,-1.0070954451819034,0.33569848172737693
1539732511418197,2.9602502479590385,-0.6408789196611906,0.7019150072480898
1539732511434204,3.4485389486533222,-0.09155413138023505,0.33569848172737693
1539732511450210,5.157549401083315,-0.03051804379333589,0.03051804379333589
1539732511466217,8.087281605249018,0.2746623941404778,-0.213626306553806
1539732511482223,14.312962539101136,0.7629510948347615,-0.33569848172737693
1539732511498230,19.073777370870403,1.0070954451819034,-0.8239871824216607
1539732511514236,19.684138246738257,1.4343480582895154,-1.6784924086366573
1539732511530243,19.9282825970854,1.983672846570471,-2.4719615472647547
1539732511546249,19.195849546043974,1.8005645838102282,-2.105745021744042
1539732511562255,17.730983443961122,1.4343480582895154,-1.0681315327688026
1539732511578262,9.308003356984727,1.0681315327688026,-0.6408789196611906
1539732511594268,-2.105745021744042,0.7629510948347615,-0.9460593575952316
1539732511610275,-12.848096437018285,0.3967345693140487,-1.1902037079423735
1539732511626281,-20.721751735713724,-1.0070954451819034,-1.1902037079423735
1539732511642288,-22.430762188143717,-2.410925459678083,-1.2512397955290453
1539732511658294,-18.58548867017612,-3.7537193865873633,-1.0681315327688026
1539732511674301,-16.02197299153113,-4.852368963149502,-0.9460593575952316
1539732511690307,-16.937514305333025,-5.279621576256886,-1.1902037079423735
1539732511706314,-19.378957808804444,-5.2185854886702145,-1.6174563210497581
1539732511722351,-18.58548867017612,-4.974441138323073,-2.04470893415737
1539732511738357,-11.261158159761862,-4.974441138323073,-1.8616006713969
1539732511754364,1.0070954451819034,-4.974441138323073,-0.9460593575952316
1539732511770370,11.810482948043045,-4.791332875562603,-0.3967345693140487
1539732511786377,19.684138246738257,-4.42511635004189,-0.09155413138023505
1539732511802383,24.322880903333953,-4.180971999694748,0.03051804379333589
1539732511818390,26.58121614404513,-4.303044174868319,-0.09155413138023505
1539732511834396,29.999237048905115,-4.791332875562603,0.2746623941404778
1539732511850402,28.595407034408936,-5.706874189364498,0.9460593575952316
1539732511866409,19.867246509498727,-5.95101853971164,0.7019150072480898
1539732511882415,9.308003356984727,-5.706874189364498,-0.3967345693140487
1539732511898422,4.669260700389032,-5.279621576256886,-1.0681315327688026
1539732511914428,7.904173342488775,-5.3406576638437855,-0.8850232700083325
1539732511930435,11.20012207217519,-5.889982452124741,-0.33569848172737693
1539732511946441,6.805523765926637,-6.012054627298312,-0.7629510948347615
1539732511962448,-1.0681315327688026,-5.645838101777599,-2.04470893415737
1539732511978454,-7.354848554207592,-5.584802014190927,-3.0212863355459376
1539732511994461,-11.20012207217519,-5.584802014190927,-3.2043945983061803
1539732512010467,-15.533684290836845,-5.279621576256886,-3.692683299000464
1539732512026474,-20.477607385366582,-4.669260700389032,-4.60822461280236
1539732512042480,-26.092927443350845,-4.242008087281647,-6.256198977645454
1539732512058487,-29.571984435797503,-3.692683299000464,-8.6366063935302
1539732512074493,-27.313649195086555,-2.9602502479590385,-10.772869459067579
1539732512090500,-18.524452582589447,-2.166781109330941,-11.505302510109004
1539732512106506,-4.791332875562603,-1.8616006713969,-10.101472495613052
1539732512122512,8.758678568703772,-1.0070954451819034,-7.2938124666209205
1539732512138519,19.1348134584573,-0.09155413138023505,-3.997863736934505
1539732512154525,22.73594262607753,-0.09155413138023505,-1.0070954451819034
1539732512170532,23.529411764705856,-0.15259021896690683,1.0681315327688026
1539732512186538,22.73594262607753,-0.6408789196611906,2.7771419851987957
1539732512202545,17.24269474326684,-2.410925459678083,3.936827649347606
1539732512218551,5.584802014190927,-4.486152437628789,3.7537193865873633
1539732512234558,-12.054627298390187,-6.744487678339738,2.166781109330941
1539732512250564,-32.44068055237676,-9.246967269398056,0.03051804379333589
1539732512266571,-51.42290379186693,-11.749446860456146,-1.5564202334630863
1539732512282577,-70.5271992065309,-13.336385137712568,-2.655069810025225
1539732512298584,-81.45265888456538,-14.068818188753994,-3.570611123826893
1539732512314590,-80.59815365835038,-13.885709925993751,-3.2654306858930795
1539732512330597,-65.15602349889377,-13.824673838406852,-2.410925459678083
1539732512346603,-41.35194934004744,-14.373998626688035,0.03051804379333589
1539732512362609,-24.383916990920852,-14.679179064621849,2.4719615472647547
1539732512378616,-17.853055619134693,-13.76363775082018,4.303044174868319
1539732512394622,-16.693369954985883,-12.481879911497572,5.157549401083315
1539732512410629,-14.435034714274707,-11.07804989700162,6.256198977645454
1539732512426635,-5.401693751430457,-10.040436408026153,8.270389868009488
1539732512442642,8.51453421835663,-8.6366063935302,10.833905546654478
1539732512458648,21.51522087434182,-7.598992904554734,13.885709925993751
1539732512474655,29.694056610971074,-6.317235065232353,14.862287327382319
1539732512490661,28.595407034408936,-4.486152437628789,14.312962539101136
1539732512506668,19.745174334325156,-3.0212863355459376,12.787060349431613
1539732512522674,9.002822919050914,-0.6408789196611906,10.650797283894008
1539732512538681,2.227817196917613,1.0070954451819034,8.45349813076973
1539732512554687,6.378271152819025,1.6174563210497581,6.622415503166167
1539732512570694,17.914091706721592,0.5798428320745188,3.5095750362402214
1539732512586700,26.459143968871558,-1.983672846570471,-1.0681315327688026
1539732512602707,27.557793545433697,-3.692683299000464,-4.364080262455218
1539732512618713,22.552834363317288,-5.157549401083315,-5.401693751430457
1539732512634719,17.24269474326684,-7.476920729381163,-4.669260700389032
1539732512650726,17.42580300602731,-10.162508583199724,-2.7161058976118966
1539732512666732,16.510261692225413,-10.833905546654478,-1.6784924086366573
1539732512682739,0.03051804379333589,-9.369039444571627,-3.1433585107195086
1539732512698745,-28.534370946822264,-7.476920729381163,-8.148317692835917
1539732512714752,-34.088654917219856,-4.60822461280236,-12.23773556115043
1539732512730758,-17.975127794308264,-3.1433585107195086,-12.542915999084471
1539732512746765,2.04470893415737,-4.242008087281647,-9.796292057679011
1539732512762771,12.298771648737329,-5.889982452124741,-6.9886320286868795
1539732512778778,11.322194247348762,-6.195162890058782,-7.11070420386045
1539732512794784,-2.655069810025225,-6.195162890058782,-8.697642481116873
1539732512810791,-15.045395590142562,-5.889982452124741,-9.979400320439481
1539732512826797,-14.679179064621849,-6.134126802471883,-9.73525597009234
1539732512842804,-7.17174029144735,-6.805523765926637,-8.33142595559616
1539732512858810,2.410925459678083,-7.049668116273779,-7.11070420386045
1539732512874817,8.819714656290444,-6.256198977645454,-6.439307240405924
1539732512890823,11.01701380941472,-5.157549401083315,-6.195162890058782
1539732512906829,9.918364232852582,-4.60822461280236,-5.462729839017356
1539732512922836,10.711833371480907,-4.852368963149502,-4.9134050507361735
1539732512938842,7.598992904554734,-6.012054627298312,-3.692683299000464
1539732512954849,-5.828946364538069,-6.317235065232353,-3.0212863355459376
1539732512970855,-24.994277866788707,-4.60822461280236,-3.570611123826893
1539732512986862,-44.892042420081,-3.3264667734797513,-3.7537193865873633
1539732513002868,-36.835278858625315,-2.166781109330941,-2.04470893415737
1539732513018875,-8.087281605249018,-1.8616006713969,1.4343480582895154
1539732513034881,20.843823910887295,-1.1291676203554744,5.706874189364498
1539732513050888,31.097886625467254,0.9460593575952316,8.33142595559616
1539732513066894,27.496757457846797,3.4485389486533222,8.148317692835917
1539732513082901,19.80621042191183,5.828946364538069,6.622415503166167
1539732513098907,12.909132524605184,7.2938124666209205,6.195162890058782
1539732513114914,13.214312962538997,7.537956816968062,7.4158846417944915
1539732513130920,20.477607385366582,7.17174029144735,10.162508583199724
1539732513146927,21.33211261158158,6.500343327992596,12.664988174258042
1539732513162933,14.80125123979542,6.317235065232353,12.298771648737329
1539732513178939,9.55214770733187,6.195162890058782,10.406652933546866
1539732513194946,8.697642481116873,5.584802014190927,8.6366063935302
1539732513210952,12.054627298390187,4.852368963149502,8.087281605249018
1539732513226959,16.44922560463874,3.3875028610666504,8.209353780422589
1539732513242965,15.594720378423744,2.410925459678083,7.354848554207592
1539732513258972,6.439307240405924,2.5940337224383256,5.096513313496644
1539732513274978,-3.4485389486533222,3.570611123826893,2.532997634851654
1539732513290985,-4.9134050507361735,4.242008087281647,0.5188067444876197
1539732513306991,1.739528496223329,4.242008087281647,-0.45777065690094787
1539732513323028,12.23773556115043,4.058899824521177,-0.5798428320745188
1539732513339035,21.942473487449433,3.5095750362402214,-0.15259021896690683
1539732513355041,23.773556115052997,3.0212863355459376,-0.213626306553806
1539732513371048,18.036163881895163,2.655069810025225,-1.0681315327688026
1539732513387054,11.01701380941472,2.288853284504512,-2.3498893720911838
1539732513403061,6.500343327992596,1.6174563210497581,-3.0212863355459376
1539732513419067,0.7019150072480898,0.5188067444876197,-3.570611123826893
1539732513435073,-5.0354772259097444,-0.03051804379333589,-4.791332875562603
1539732513451080,-5.889982452124741,0.213626306553806,-5.645838101777599
1539732513467086,-6.561379415579495,0.09155413138023505,-6.439307240405924
1539732513483093,-9.002822919050914,-0.45777065690094787,-7.4158846417944915
1539732513499099,-9.002822919050914,-1.1291676203554744,-7.721065079728305
1539732513515106,-6.9886320286868795,-2.3498893720911838,-7.660028992141633
1539732513531112,-5.706874189364498,-3.814755474174035,-6.8665598535133086
1539732513547119,-5.401693751430457,-4.974441138323073,-6.256198977645454
1539732513563125,-2.655069810025225,-5.401693751430457,-5.828946364538069
1539732513579132,-0.9460593575952316,-5.279621576256886,-5.828946364538069
1539732513595138,4.058899824521177,-5.828946364538069,-5.462729839017356
1539732513611145,14.129854276340893,-6.134126802471883,-4.486152437628789
1539732513627151,23.529411764705856,-6.744487678339738,-3.3264667734797513
1539732513643158,22.61387045090396,-8.087281605249018,-2.105745021744042
1539732513659164,6.561379415579495,-8.758678568703772,-2.8381780727854675
1539732513675171,-17.24269474326684,-7.11070420386045,-5.889982452124741
1539732513691177,-32.50171663996343,-5.3406576638437855,-8.575570305943302
1539732513707183,-31.219958800640825,-4.42511635004189,-9.308003356984727
1539732513723190,-16.693369954985883,-3.2654306858930795,-7.904173342488775
1539732513739196,-4.180971999694748,-2.655069810025225,-5.76791027695117
1539732513755203,-4.303044174868319,-1.8005645838102282,-4.058899824521177
1539732513771209,-20.538643472953254,-0.09155413138023505,-3.6316472114137923
1539732513787216,-44.037537193866,1.983672846570471,-6.073090714885211
1539732513803222,-39.215686274509835,5.279621576256886,-7.782101167315204
1539732513819229,-55.939574273289054,4.242008087281647,-9.918364232852582
1539732513835235,-63.996337834744736,3.814755474174035,-6.378271152819025
1539732513851242,-46.72312504768456,5.645838101777599,-4.60822461280236
1539732513867248,-33.051041428244616,6.012054627298312,-5.401693751430457
1539732513883255,-17.303730830853738,8.941786831464015,-6.9886320286868795
1539732513899261,-0.5188067444876197,10.589761196307336,-7.354848554207592
1539732513915268,10.89494163424115,9.369039444571627,-4.791332875562603
1539732513931274,21.637293049515392,7.660028992141633,-2.7161058976118966
1539732513947281,42.20645456626221,9.124895094224485,-2.3498893720911838
1539732513963287,63.38597695887711,11.505302510109004,-2.227817196917613
1539732513979293,69.7337300679028,12.542915999084471,-3.3264667734797513
1539732513995300,67.41435873960518,11.505302510109004,-1.8616006713969
1539732514011306,73.15175097276278,8.209353780422589,0.2746623941404778
1539732514027313,146.9443808651863,31.036850537880355,-1.983672846570471
1539732514043319,92.62226291294746,25.665674830243233,-3.6316472114137923
1539732514059326,35.49248493171581,11.810482948043045,-9.979400320439481
1539732514075332,12.481879911497572,3.0212863355459376,-14.129854276340893
1539732514091339,-8.941786831464015,-5.096513313496644,-18.70756084534969
1539732514107345,-28.717479209582507,-10.040436408026153,-20.538643472953254
1539732514123352,-40.619516289006015,-9.491111619745197,-20.782787823300396
1539732514139358,-27.496757457846797,-6.622415503166167,-20.294499122606112
1539732514155365,2.7161058976118966,-3.7537193865873633,-18.524452582589447
1539732514171371,29.571984435797503,-4.180971999694748,-14.618142977035177
1539732514187378,33.722438391698915,-5.096513313496644,-12.603952086671143
1539732514203384,19.073777370870403,-4.242008087281647,-10.406652933546866
1539732514219390,-5.584802014190927,-1.983672846570471,-11.139085984588291
1539732514235397,-23.651483939879427,-0.2746623941404778,-11.322194247348762
1539732514251403,-30.30441748683893,1.739528496223329,-9.73525597009234
1539732514267410,-32.44068055237676,2.5940337224383256,-8.45349813076973
1539732514283416,-33.5393301289389,2.288853284504512,-6.378271152819025
1539732514299423,-27.496757457846797,1.5564202334630863,-4.547188525215461
1539732514315429,-32.99000534065772,-0.8239871824216607,-4.180971999694748
1539732514331436,-48.00488288700694,-1.8616006713969,-5.3406576638437855
1539732514347442,-51.42290379186693,-2.288853284504512,-6.317235065232353
1539732514363449,-41.901274128328396,-2.8381780727854675,-5.096513313496644
1539732514379455,-28.412298771648693,-3.3264667734797513,-2.7771419851987957
1539732514395462,-15.838864728770886,-1.739528496223329,1.0681315327688026
1539732514411468,-21.087968261234437,-2.288853284504512,2.288853284504512
1539732514427475,-30.792706187533213,-0.7019150072480898,1.0070954451819034
1539732514443481,-22.73594262607753,1.983672846570471,0.2746623941404778
1539732514459488,-5.645838101777599,2.655069810025225,0.7019150072480898
1539732514475494,9.613183794918768,2.8381780727854675,2.8992141603723667
1539732514491500,20.599679560540153,1.983672846570471,3.692683299000464
1539732514507507,16.754406042572555,1.0681315327688026,3.2654306858930795
1539732514523513,4.303044174868319,-0.09155413138023505,2.3498893720911838
1539732514539520,3.3264667734797513,-1.5564202334630863,2.655069810025225
1539732514555526,5.889982452124741,-2.532997634851654,4.058899824521177
1539732514571533,14.618142977035177,-2.288853284504512,6.195162890058782
1539732514587539,7.537956816968062,-1.2512397955290453,7.2938124666209205
1539732514603546,-26.153963530937517,-0.5188067444876197,3.7537193865873633
1539732514619552,-51.85015640497454,0.45777065690094787,-0.7629510948347615
1539732514635559,-51.42290379186693,0.5798428320745188,0.213626306553806
1539732514651565,-41.29091325246054,-2.4719615472647547,2.410925459678083
1539732514667572,-39.94811932555126,-4.60822461280236,3.875791561760934
1539732514683578,-52.338445105668825,-3.7537193865873633,1.4953841458761872
1539732514699585,-65.64431219958806,-1.9226367589837992,-2.532997634851654
1539732514715591,-64.9729152361333,0.03051804379333589,-4.669260700389032
1539732514731598,-42.20645456626244,1.9226367589837992,-4.669260700389032
1539732514747604,26.947432669565842,10.223544670786623,-2.105745021744042
1539732514763610,198.39780270084702,16.632333867398984,8.148317692835917
1539732514779617,272.5566491187915,4.60822461280236,21.33211261158158
1539732514795623,250.1564049744411,1.0681315327688026,26.764324406805372
1539732514811630,186.73990997177043,0.8850232700083325,19.195849546043974
1539732514827636,74.00625619897801,-1.6174563210497581,7.782101167315204
1539732514843643,-32.99000534065772,-2.9602502479590385,-3.3264667734797513
1539732514859649,-119.78332188906688,5.0354772259097444,-5.645838101777599
1539732514875656,-193.51491569390396,0.7019150072480898,-10.650797283894008
1539732514891662,-168.79530022125596,3.5095750362402214,-9.979400320439481
1539732514907669,-102.44907301441981,3.3875028610666504,-7.476920729381163
1539732514923706,-51.48393987945383,1.739528496223329,1.9226367589837992
1539732514939712,-7.660028992141633,5.95101853971164,14.80125123979542
1539732514955719,-8.087281605249018,4.42511635004189,20.782787823300396
1539732514971725,-24.933241779201808,2.655069810025225,17.42580300602731
1539732514987732,-49.591821164263365,2.7771419851987957,8.392462043183059
1539732515003738,-77.30220492866397,5.462729839017356,1.4953841458761872
1539732515019744,-79.98779278248253,12.909132524605184,3.2043945983061803
1539732515035751,-39.215686274509835,14.190890363927565,5.2185854886702145
1539732515051757,7.721065079728305,5.3406576638437855,5.523765926604028
1539732515067764,35.79766536964962,0.09155413138023505,8.392462043183059
1539732515083770,40.192263675898175,-0.8850232700083325,7.843137254901876
1539732515099777,22.003509575036105,-1.4343480582895154,1.2512397955290453
1539732515115783,0.6408789196611906,0.15259021896690683,-5.2185854886702145
1539732515131790,-14.373998626688035,0.5798428320745188,-8.45349813076973
1539732515147796,-15.594720378423744,-0.5798428320745188,-9.55214770733187
1539732515163803,-10.467689021133765,-2.8992141603723667,-9.002822919050914
1539732515179809,-4.180971999694748,-6.378271152819025,-5.76791027695117
1539732515195816,-9.613183794918768,-8.209353780422589,-3.2043945983061803
1539732515211822,-24.322880903333953,-7.11070420386045,-4.119935912108076
1539732515227829,-36.89631494621199,-6.073090714885211,-8.270389868009488
1539732515243835,-41.41298542763411,-4.180971999694748,-10.040436408026153
1539732515259842,-25.48256656748299,-1.4343480582895154,-9.369039444571627
1539732515275848,10.101472495613052,-0.2746623941404778,-8.758678568703772
1539732515291854,-7.721065079728305,-3.692683299000464,-7.598992904554734
1539732515307861,1.8616006713969,-2.7161058976118966,-5.157549401083315
1539732515323867,19.745174334325156,-2.227817196917613,-2.9602502479590385
1539732515339874,31.158922713053926,-1.8616006713969,0.45777065690094787
1539732515355880,33.05104142824439,-1.0681315327688026,3.814755474174035
1539732515371887,26.153963530937517,-0.7019150072480898,5.0354772259097444
1539732515387893,11.932555123216616,-1.9226367589837992,3.875791561760934
1539732515403900,10.528725108720437,-3.0212863355459376,2.105745021744042
1539732515419906,10.223544670786623,-2.8381780727854675,0.8239871824216607
1539732515435913,8.758678568703772,-2.8992141603723667,0.09155413138023505
1539732515451919,3.997863736934505,-2.8992141603723667,0.09155413138023505
1539732515467926,4.730296787975931,-3.3264667734797513,0.6408789196611906
1539732515483932,9.55214770733187,-3.6316472114137923,0.5188067444876197
1539732515499939,12.176699473563758,-4.42511635004189,0.3967345693140487
1539732515515945,11.810482948043045,-5.096513313496644,0.6408789196611906
1539732515531952,2.8381780727854675,-5.76791027695117,-0.213626306553806
1539732515547958,-13.153276874952326,-6.744487678339738,-2.105745021744042
1539732515563964,-26.031891355763946,-6.439307240405924,-4.242008087281647
1539732515579971,-35.370412756542464,-5.0354772259097444,-5.3406576638437855
1539732515595977,-47.7607385366598,-3.1433585107195086,-5.889982452124741
1539732515611984,-64.54566262302592,-1.6174563210497581,-6.256198977645454
1539732515627990,-89.63149462119463,0.7019150072480898,-7.4158846417944915
1539732515643997,-107.45403219653622,4.486152437628789,-9.796292057679011
1539732515660003,-106.35538261997408,5.279621576256886,-6.805523765926637
1539732515676010,-55.14610513466096,5.828946364538069,3.6316472114137923
1539732515692016,-15.716792553597315,-0.5798428320745188,8.392462043183059
1539732515708023,19.80621042191183,-2.655069810025225,14.679179064621849
1539732515724029,33.96658274204606,-0.5798428320745188,13.885709925993751
1539732515740036,25.970855268177274,-0.03051804379333589,9.73525597009234
1539732515756042,9.73525597009234,-0.33569848172737693,4.180971999694748
1539732515772049,-12.176699473563758,-1.3122758831159445,1.4953841458761872
1539732515788055,-31.586175326161765,-3.4485389486533222,-2.3498893720911838
1539732515804062,-39.45983062485698,-3.692683299000464,-5.462729839017356
1539732515820068,-35.431448844129136,-2.532997634851654,-7.476920729381163
1539732515836074,-24.872205691615136,-2.9602502479590385,-8.697642481116873
1539732515852081,-5.828946364538069,-4.242008087281647,-8.026245517662346
1539732515868087,13.702601663233281,-5.401693751430457,-6.439307240405924
1539732515884094,28.656443121995835,-5.76791027695117,-4.852368963149502
1539732515900100,36.53009842069105,-4.60822461280236,-3.2654306858930795
1539732515916107,37.75082017242676,-4.303044174868319,-2.5940337224383256
1539732515932113,33.53933012893867,-4.730296787975931,-2.5940337224383256
1539732515948120,25.909819180590375,-4.303044174868319,-1.4343480582895154
1539732515964126,28.96162355992965,-3.936827649347606,0.15259021896690683
1539732515980133,9.613183794918768,-3.5095750362402214,2.532997634851654
1539732515996139,7.537956816968062,-2.166781109330941,3.0212863355459376
1539732516012146,23.407339589532285,0.8239871824216607,2.655069810025225
1539732516028152,35.248340581368666,-0.7019150072480898,2.227817196917613
1539732516044159,40.192263675898175,-2.04470893415737,5.0354772259097444
1539732516060165,45.5634393835353,-2.166781109330941,5.279621576256886
1539732516076172,37.384603646906044,-0.9460593575952316,3.7537193865873633
1539732516092178,31.89135576409535,-0.09155413138023505,1.4343480582895154
1539732516108184,26.764324406805372,-0.3967345693140487,0.3967345693140487
1539732516124191,27.92401007095441,-0.45777065690094787,1.3733119707026162
1539732516140197,23.529411764705856,-1.2512397955290453,2.105745021744042
1539732516156204,-33.23414969100486,-2.410925459678083,1.3733119707026162
1539732516172210,-129.4880598153659,5.0354772259097444,-12.176699473563758
1539732516188217,-98.3596551461053,2.8992141603723667,-16.510261692225413
1539732516204254,-108.67475394827193,2.5940337224383256,-12.603952086671143
1539732516220260,-78.0956740672923,1.1902037079423735,-9.85732814526591
1539732516236267,-21.51522087434182,-0.5798428320745188,-1.1291676203554744
1539732516252273,42.20645456626221,-1.4953841458761872,3.6316472114137923
1539732516268280,85.72518501564082,-3.2043945983061803,6.012054627298312
1539732516284286,96.46753643091506,-3.4485389486533222,6.744487678339738
1539732516300293,73.94522011139088,-3.3875028610666504,2.7161058976118966
1539732516316299,38.17807278553437,-3.3875028610666504,-2.227817196917613
1539732516332306,4.974441138323073,-2.227817196917613,-4.791332875562603
1539732516348312,-14.92332341496899,-2.04470893415737,-6.500343327992596
1539732516364318,-17.36476691844041,-2.105745021744042,-6.012054627298312
1539732516380325,-6.073090714885211,-2.04470893415737,-3.875791561760934
1539732516396331,15.228503852903032,-2.105745021744042,-1.4343480582895154
1539732516412338,37.32356755931937,-2.105745021744042,1.3733119707026162
1539732516428344,60.39520866712428,-1.983672846570471,4.303044174868319
1539732516444351,71.44274052033279,-2.227817196917613,6.195162890058782
1539732516460357,74.49454489967229,-2.288853284504512,7.11070420386045
1539732516476364,68.45197222858042,-1.983672846570471,6.744487678339738
1539732516492370,49.591821164263365,-2.532997634851654,5.2185854886702145
1539732516508377,20.965896086060866,-2.8992141603723667,2.9602502479590385
1539732516524383,-4.9134050507361735,-3.0823224231326094,1.2512397955290453
1539732516540390,-17.730983443961122,-2.4719615472647547,0.213626306553806
1539732516556396,-21.57625696192872,-2.655069810025225,0.8850232700083325
1539732516572403,-18.463416495002548,-3.3264667734797513,1.3733119707026162
1539732516588409,-13.824673838406852,-3.7537193865873633,1.4953841458761872
1539732516604416,-13.64156557564661,-3.997863736934505,1.1291676203554744
1539732516620422,-19.562066071564686,-3.5095750362402214,0.5798428320745188
1539732516636428,-24.383916990920852,-2.7161058976118966,0.33569848172737693
1539732516652435,-20.904859998473967,-2.4719615472647547,1.0070954451819034
1539732516668441,-12.542915999084471,-2.166781109330941,2.8381780727854675
1539732516684448,-6.927595941100208,-2.8992141603723667,3.5095750362402214
1539732516700454,-9.918364232852582,-3.4485389486533222,2.9602502479590385
1539732516716461,-13.45845731288614,-2.8992141603723667,1.1902037079423735
1539732516732467,-12.848096437018285,-2.166781109330941,0.6408789196611906
1539732516748474,-3.936827649347606,-1.983672846570471,1.8616006713969
1539732516764480,6.622415503166167,-2.5940337224383256,3.5095750362402214
1539732516780487,10.101472495613052,-3.0212863355459376,3.814755474174035
1539732516796493,6.9886320286868795,-3.0212863355459376,2.8381780727854675
1539732516812500,3.4485389486533222,-2.8381780727854675,2.227817196917613
1539732516828506,6.012054627298312,-2.9602502479590385,2.410925459678083
1539732516844513,11.322194247348762,-3.692683299000464,3.3875028610666504
1539732516860519,12.054627298390187,-3.6316472114137923,4.547188525215461
1539732516876526,5.706874189364498,-2.410925459678083,5.462729839017356
1539732516892532,-6.317235065232353,-2.655069810025225,6.073090714885211
1539732516908538,-22.552834363317288,-2.4719615472647547,4.180971999694748
1539732516924545,-30.182345311665358,-1.3122758831159445,3.7537193865873633
1539732516940551,-34.3938353551539,-2.532997634851654,3.936827649347606
1539732516956558,-36.530098420691274,-3.997863736934505,6.012054627298312
1539732516972564,-16.937514305333025,-0.33569848172737693,5.95101853971164
1539732516988571,-16.632333867398984,-0.45777065690094787,4.242008087281647
1539732517004577,-7.965209430075447,1.2512397955290453,4.058899824521177
1539732517020584,1.9226367589837992,0.3967345693140487,4.180971999694748
1539732517036590,4.547188525215461,-1.0070954451819034,4.60822461280236
1539732517052597,6.073090714885211,-0.8239871824216607,3.4485389486533222
1539732517068603,1.0070954451819034,-1.3122758831159445,1.1291676203554744
1539732517084610,-5.828946364538069,-1.8005645838102282,-0.33569848172737693
1539732517100616,-8.758678568703772,-2.105745021744042,-1.3733119707026162
1539732517116623,-8.026245517662346,-1.9226367589837992,-0.9460593575952316
1539732517132629,-5.462729839017356,-2.105745021744042,-0.9460593575952316
1539732517148635,-2.9602502479590385,-2.04470893415737,-1.0681315327688026
1539732517164642,-2.9602502479590385,-2.4719615472647547,-1.983672846570471
1539732517180648,-4.180971999694748,-2.3498893720911838,-2.8992141603723667
1539732517196655,-5.584802014190927,-2.410925459678083,-3.6316472114137923
1539732517212661,-4.669260700389032,-2.655069810025225,-3.5095750362402214
1539732517228668,-0.33569848172737693,-2.8992141603723667,-2.7161058976118966
1539732517244674,6.134126802471883,-3.0823224231326094,-1.8005645838102282
1539732517260681,8.026245517662346,-2.5940337224383256,-1.3122758831159445
1539732517276687,0.6408789196611906,-2.105745021744042,-1.3122758831159445
1539732517292694,-4.303044174868319,-1.739528496223329,-1.3733119707026162
1539732517308700,-9.246967269398056,-1.4343480582895154,-1.8005645838102282
1539732517324707,-10.528725108720437,-1.3122758831159445,-1.5564202334630863
1539732517340713,-4.486152437628789,-1.4953841458761872,-0.09155413138023505
1539732517356720,3.0823224231326094,-2.04470893415737,1.3733119707026162
1539732517372726,7.4158846417944915,-2.9602502479590385,2.655069810025225
1539732517388733,4.791332875562603,-3.2043945983061803,3.692683299000464
1539732517404739,3.570611123826893,-2.655069810025225,3.692683299000464
1539732517420745,2.5940337224383256,-3.0823224231326094,3.4485389486533222
1539732517436752,2.9602502479590385,-3.7537193865873633,2.8992141603723667
1539732517452758,3.2654306858930795,-4.42511635004189,1.4953841458761872
1539732517468765,1.6784924086366573,-4.974441138323073,-0.5188067444876197
1539732517484771,-3.5095750362402214,-5.462729839017356,-1.0681315327688026
1539732517500778,-7.598992904554734,-5.157549401083315,-1.8616006713969
1539732517516784,-11.20012207217519,-4.730296787975931,-2.655069810025225
1539732517532791,-14.251926451514464,-4.364080262455218,-3.3875028610666504
1539732517548797,-11.810482948043045,-3.875791561760934,-4.119935912108076
1539732517564804,-4.9134050507361735,-3.814755474174035,-3.692683299000464
1539732517580810,1.2512397955290453,-4.242008087281647,-2.7161058976118966
1539732517596817,3.0823224231326094,-4.242008087281647,-2.288853284504512
1539732517612823,1.0681315327688026,-3.3875028610666504,-2.288853284504512
1539732517628830,0.45777065690094787,-2.410925459678083,-2.8381780727854675
1539732517644836,3.2043945983061803,-1.6174563210497581,-2.8381780727854675
1539732517660843,8.026245517662346,-1.4343480582895154,-1.9226367589837992
1539732517676849,9.185931181811156,-1.8616006713969,-0.8850232700083325
1539732517692855,11.871519035629717,-1.3733119707026162,-0.45777065690094787
1539732517708862,12.115663385976859,-1.0681315327688026,-0.5188067444876197
1539732517724868,9.308003356984727,-1.739528496223329,-0.8239871824216607
1539732517740875,7.4158846417944915,-2.532997634851654,-1.1291676203554744
1539732517756881,3.1433585107195086,-3.7537193865873633,-2.166781109330941
1539732517772888,-2.410925459678083,-4.974441138323073,-3.1433585107195086
1539732517788894,-9.67421988250544,-6.134126802471883,-3.997863736934505
1539732517804931,-18.95170519569683,-6.683451590753066,-4.9134050507361735
1539732517820938,-24.13977264057371,-6.683451590753066,-5.462729839017356
1539732517836945,-23.102159151598244,-6.622415503166167,-5.645838101777599
1539732517852952,-19.562066071564686,-6.683451590753066,-5.889982452124741
1539732517868959,-18.097199969481835,-7.11070420386045,-6.195162890058782
1539732517884966,-21.087968261234437,-7.782101167315204,-6.073090714885211
1539732517900973,-26.459143968871558,-8.45349813076973,-5.706874189364498
1539732517916980,-23.346303501945386,-8.758678568703772,-6.500343327992596
1539732517932987,-20.660715648126825,-8.6366063935302,-8.148317692835917
1539732517948994,-23.651483939879427,-7.904173342488775,-6.805523765926637
1539732517965001,-27.191577019912984,-6.378271152819025,1.0070954451819034
1539732517981008,-25.23842221713585,-3.4485389486533222,11.688410772869474
1539732517997015,-15.655756466010416,0.6408789196611906,21.210040436408008
1539732518013022,-2.227817196917613,7.232776379034021,29.022659647516548
1539732518029029,-0.15259021896690683,15.472648203250174,38.36118104829461
1539732518045035,-9.796292057679011,25.116350041962278,47.6997024490729
1539732518061042,-22.186617837796575,35.67559319447605,57.221332112611435
1539732518077049,-24.444953078507524,46.23483634699005,65.94949263752233
1539732518093056,-14.679179064621849,56.79407949950382,74.31143663691182
1539732518109063,-13.397421225299468,66.43778133821661,82.42923628595418
1539732518125061,-22.186617837796575,74.55558098725896,92.62226291294746
1539732518141067,-26.459143968871558,81.20851453421847,102.69321736476695
1539732518157074,-16.44922560463874,86.82383459220273,109.65133134966072
1539732518173080,-3.692683299000464,90.8522163729308,112.33691920347928
1539732518189087,-0.213626306553806,90.730144197757,110.87205310139643
1539732518205093,-10.833905546654478,87.12901503013654,107.02677958342883
1539732518221099,-19.9282825970854,82.12405584802036,101.59456778820504
1539732518237106,-22.552834363317288,75.5931944762342,94.27023727779078
1539732518253112,-34.88212405584818,67.47539482719185,84.26031891355797
1539732518269119,-39.70397497520412,59.723811703669526,74.92179751277945
1539732518285125,-38.60532539864198,52.52155336842907,65.46120393682804
1539732518301132,-37.994964522774126,45.25825894560148,55.45128557259477
1539732518317138,-23.346303501945386,35.85870145723652,43.73235675593173
1539732518333145,11.871519035629717,26.764324406805372,28.04608224612798
1539732518349151,43.79339284351863,15.472648203250174,12.4208438239109
1539732518365158,48.126955062180514,-0.09155413138023505,-2.8381780727854675
1539732518381164,37.628747997253186,-19.80621042191183,-19.80621042191183
1539732518397171,36.95735103379866,-41.1078049897003,-38.60532539864198
1539732518413177,48.6152437628748,-60.94453345540546,-55.81750209811548
1539732518429184,44.037537193865774,-78.0956740672923,-73.64003967345684
1539732518445190,34.39383535515367,-92.50019073777366,-95.24681467917912
1539732518461197,69.48958571755566,-106.59952697032122,-123.75066758220805
1539732518477203,193.75906004425133,-136.07995727473872,-151.94934004730294
1539732518493209,310.76523994811896,-212.1919584954603,-165.92660410467693
1539732518509216,243.62554360265494,-335.72899977111456,-182.9556725413902
1539732518525222,-106.53849088273455,-339.8184176394293,-130.34256504158088
1539732518541229,454.0169375143055,23.346303501945386,96.77271686884887
1539732518557235,126.00900282291923,-68.57404440375376,14.129854276340893
1539732518573242,-52.94880598153668,-39.70397497520412,-20.599679560540153
1539732518589248,-215.54894331273363,-7.232776379034021,-37.872892347600555
1539732518605255,-260.89875638971534,-29.877164873731545,-56.54993514915691
1539732518621261,-198.3978027008468,-11.505302510109004,-48.85938811322194
1539732518637268,-167.87975890745406,16.510261692225413,-34.45487144274057
1539732518653274,-115.81597619592594,34.02761882963296,-23.407339589532285
1539732518669281,-45.31929503318838,49.83596551461051,-11.01701380941472
1539732518685287,-15.411612115663274,60.090028229190466,2.8992141603723667
1539732518701294,-0.8239871824216607,59.540703440909056,14.92332341496899
1539732518717300,-2.3498893720911838,48.493171587701,24.933241779201808
1539732518733307,-3.997863736934505,31.158922713053926,28.839551384756078
1539732518749313,0.9460593575952316,13.946746013580423,26.764324406805372
1539732518765319,-4.486152437628789,0.3967345693140487,22.980086976424673
1539732518781326,-19.073777370870403,-10.711833371480907,18.097199969481835
1539732518797332,-18.219272144655406,-19.623102159151586,10.528725108720437
1539732518813339,-14.435034714274707,-24.994277866788707,1.5564202334630863
1539732518829345,-0.7629510948347615,-24.689097428854666,-6.134126802471883
1539732518845352,2.7161058976118966,-23.407339589532285,-11.01701380941472
1539732518861358,-8.209353780422589,-22.064545662623004,-14.92332341496899
1539732518877365,-5.706874189364498,-18.76859693293659,-18.280308232242305
1539732518893371,-0.8239871824216607,-14.007782101167322,-18.219272144655406
1539732518909378,7.049668116273779,-8.209353780422589,-14.557106889448278
1539732518925384,12.176699473563758,-3.814755474174035,-12.23773556115043
1539732518941391,7.721065079728305,-3.3875028610666504,-9.918364232852582
1539732518957397,-4.242008087281647,-4.303044174868319,-7.232776379034021
1539732518973404,-2.7161058976118966,-5.157549401083315,-6.622415503166167
1539732518989410,5.401693751430457,-5.3406576638437855,-7.11070420386045
1539732519005416,3.814755474174035,-4.60822461280236,-8.392462043183059
1539732519021423,2.410925459678083,-3.2654306858930795,-10.101472495613052
1539732519037429,-3.5095750362402214,-3.814755474174035,-11.505302510109004
1539732519053436,-8.33142595559616,-4.669260700389032,-12.054627298390187
1539732519069442,-0.33569848172737693,-4.974441138323073,-10.833905546654478
1539732519085449,2.105745021744042,-5.279621576256886,-9.491111619745197
1539732519101455,1.5564202334630863,-5.645838101777599,-7.537956816968062
1539732519117462,1.4343480582895154,-5.3406576638437855,-6.622415503166167
1539732519133468,-5.523765926604028,-5.584802014190927,-6.195162890058782
1539732519149475,-16.754406042572555,-7.537956816968062,-5.76791027695117
1539732519165481,-12.23773556115043,-7.11070420386045,-6.439307240405924
1539732519181488,-1.5564202334630863,-5.0354772259097444,-6.8665598535133086
1539732519197494,-0.8239871824216607,-4.180971999694748,-7.354848554207592
1539732519213501,0.03051804379333589,-3.4485389486533222,-9.124895094224485
1539732519229507,2.5940337224383256,-2.8992141603723667,-10.528725108720437
1539732519245514,-0.3967345693140487,-3.570611123826893,-10.040436408026153
1539732519261520,-17.36476691844041,-4.791332875562603,-7.476920729381163
1539732519277526,-19.684138246738257,-2.655069810025225,-3.692683299000464
1539732519293533,-10.345616845960194,0.03051804379333589,0.09155413138023505
1539732519309539,1.0681315327688026,1.0681315327688026,2.04470893415737
1539732519325546,10.223544670786623,1.739528496223329,1.4953841458761872
1539732519341552,4.60822461280236,1.1902037079423735,-0.45777065690094787
1539732519357559,-6.378271152819025,-0.3967345693140487,-4.547188525215461
1539732519373565,-5.76791027695117,-1.9226367589837992,-7.843137254901876
1539732519389572,5.462729839017356,-1.0070954451819034,-6.439307240405924
1539732519405609,22.67490653849086,2.105745021744042,-1.8005645838102282
1539732519421616,35.004196231021524,2.7161058976118966,-0.09155413138023505
1539732519437623,28.534370946822264,1.4343480582895154,-1.0070954451819034
1539732519453630,9.796292057679011,1.4953841458761872,-2.5940337224383256
1539732519469637,-6.622415503166167,3.0212863355459376,-3.3875028610666504
1539732519485643,1.1291676203554744,5.401693751430457,-4.791332875562603
1539732519501650,-18.158236057068734,5.645838101777599,-8.209353780422589
1539732519517657,-29.938200961318216,4.974441138323073,-9.246967269398056
1539732519533664,-12.909132524605184,6.317235065232353,-8.697642481116873
1539732519549671,8.758678568703772,4.9134050507361735,-7.843137254901876
1539732519565678,24.872205691615136,1.5564202334630863,-6.256198977645454
1539732519581685,32.74586099031035,-0.2746623941404778,-5.95101853971164
1539732519597692,19.562066071564686,-3.0212863355459376,-5.95101853971164
1539732519613699,-19.9893186846723,-5.157549401083315,-5.828946364538069
1539732519629706,-34.088654917219856,-2.7771419851987957,-9.002822919050914
1539732519645713,-31.952391851682478,-0.5798428320745188,-10.101472495613052
1539732519661720,-24.322880903333953,-0.213626306553806,-7.4158846417944915
1539732519677727,-6.9886320286868795,-3.0212863355459376,-3.3264667734797513
1539732519693734,7.11070420386045,-5.2185854886702145,-0.15259021896690683
1539732519709741,12.4208438239109,-5.523765926604028,1.1291676203554744
1539732519725738,7.049668116273779,-5.3406576638437855,0.8850232700083325
1539732519741745,-7.965209430075447,-4.852368963149502,0.3967345693140487
1539732519757752,-30.60959792477297,-4.669260700389032,-0.6408789196611906
1539732519773759,-47.27244983596552,-4.730296787975931,-1.6784924086366573
1539732519789766,-45.44136720836195,-4.364080262455218,-1.0070954451819034
1539732519805773,-41.0467689021134,-4.974441138323073,1.4953841458761872
1539732519821780,-38.42221713588174,-4.791332875562603,2.655069810025225
1539732519837787,-36.957351033798886,-5.096513313496644,2.655069810025225
1539732519853794,-35.309376668955565,-6.195162890058782,1.0681315327688026
1539732519869801,-26.6422522316318,-5.889982452124741,-1.1291676203554744
1539732519885808,-14.92332341496899,-4.730296787975931,-1.983672846570471
1539732519901815,-2.8381780727854675,-4.486152437628789,-1.5564202334630863
1539732519917822,3.570611123826893,-5.096513313496644,-1.9226367589837992
1539732519933828,1.3122758831159445,-6.012054627298312,-4.791332875562603
1539732519949835,-5.523765926604028,-6.927595941100208,-8.6366063935302
1539732519965842,-14.190890363927565,-7.598992904554734,-11.261158159761862
1539732519981849,-25.116350041962278,-6.683451590753066,-12.4208438239109
1539732519997856,-36.774242771038416,-4.364080262455218,-12.970168612191856
1539732520013863,-40.497444113832444,-3.0212863355459376,-11.932555123216616
1539732520029870,-32.745860990310575,-2.288853284504512,-9.67421988250544
1539732520045868,-16.510261692225413,-2.288853284504512,-6.195162890058782
1539732520061874,5.95101853971164,-2.3498893720911838,-1.983672846570471
1539732520077881,21.33211261158158,-3.5095750362402214,1.8616006713969
1539732520093888,24.322880903333953,-4.791332875562603,3.692683299000464
1539732520109895,19.80621042191183,-5.0354772259097444,3.0823224231326094
1539732520125902,15.167467765316132,-4.058899824521177,1.0070954451819034
1539732520141909,9.063859006637585,-3.3264667734797513,-1.1902037079423735
1539732520157916,4.60822461280236,-2.9602502479590385,-2.9602502479590385
1539732520173923,1.5564202334630863,-1.1902037079423735,-5.2185854886702145
1539732520189930,4.547188525215461,-0.213626306553806,-6.378271152819025
1539732520205937,15.228503852903032,0.33569848172737693,-4.669260700389032
1539732520221944,19.9893186846723,-0.03051804379333589,-2.3498893720911838
1539732520237951,4.9134050507361735,-0.2746623941404778,-1.5564202334630863
1539732520253958,-19.684138246738257,0.3967345693140487,-2.166781109330941
1539732520269965,-42.51163500419625,0.3967345693140487,-1.6784924086366573
1539732520285972,-61.55489433127332,0.45777065690094787,-0.45777065690094787
1539732520301979,-67.9636835278859,1.8005645838102282,1.9226367589837992
1539732520317986,-60.273136491950936,3.3875028610666504,4.60822461280236
1539732520333993,-38.30014496070817,4.486152437628789,7.904173342488775
1539732520350000,-7.598992904554734,4.42511635004189,10.467689021133765
1539732520365997,26.337071793697987,4.364080262455218,11.993591210803288
1539732520382003,56.000610360875726,5.2185854886702145,11.810482948043045
1539732520398010,76.75288014038324,6.012054627298312,11.444266422522333
1539732520414016,78.46189059281323,6.805523765926637,10.89494163424115
1539732520430023,67.59746700236519,6.744487678339738,8.758678568703772
1539732520446029,57.28236820019811,7.721065079728305,3.997863736934505
1539732520462036,71.32066834515945,11.993591210803288,-0.8239871824216607
1539732520478042,85.23689631494653,14.251926451514464,-1.1902037079423735
1539732520494049,69.42854962996898,11.505302510109004,-0.5188067444876197
1539732520510055,59.60173952849618,13.45845731288614,-2.9602502479590385
1539732520526062,51.728084229800515,13.824673838406852,-5.2185854886702145
1539732520542068,46.540016784923864,12.970168612191856,-6.012054627298312
1539732520558075,44.58686198214673,11.139085984588291,-3.0212863355459376
1539732520574081,39.88708323796436,8.758678568703772,0.3967345693140487
1539732520590088,32.99000534065749,7.232776379034021,3.4485389486533222
1539732520606094,26.58121614404513,4.60822461280236,6.073090714885211
1539732520622100,14.618142977035177,2.5940337224383256,7.232776379034021
1539732520638107,5.096513313496644,1.8616006713969,8.148317692835917
1539732520654113,-7.782101167315204,0.33569848172737693,10.406652933546866
1539732520670120,-21.14900434882111,0.15259021896690683,10.040436408026153
1539732520686157,-26.031891355763946,0.15259021896690683,8.880750743877343
1539732520702164,-22.186617837796575,-1.0070954451819034,8.209353780422589
1539732520718171,-17.79201953154802,-2.532997634851654,7.660028992141633
1539732520734178,-12.359807736324,-3.0823224231326094,6.9886320286868795
1539732520750185,-11.444266422522333,-3.3875028610666504,5.95101853971164
1539732520766192,-8.819714656290444,-3.570611123826893,5.2185854886702145
1539732520782199,-2.3498893720911838,-4.486152437628789,5.0354772259097444
1539732520798205,0.5188067444876197,-5.584802014190927,5.645838101777599
1539732520814212,-7.4158846417944915,-6.500343327992596,5.645838101777599
1539732520830219,-21.27107652399468,-6.256198977645454,5.157549401083315
1539732520846226,-31.89135576409558,-6.317235065232353,4.242008087281647
1539732520862233,-32.623788815137004,-5.76791027695117,4.669260700389032
1539732520878240,-27.435721370260126,-5.096513313496644,6.683451590753066
1539732520894247,-20.35553521019301,-3.7537193865873633,8.51453421835663
1539732520910254,-19.378957808804444,-2.410925459678083,9.430075532158298
1539732520926261,-27.80193789578084,-0.2746623941404778,8.45349813076973
1539732520942268,-31.89135576409558,3.0212863355459376,6.805523765926637
1539732520958275,-24.322880903333953,5.828946364538069,5.889982452124741
1539732520974282,-2.166781109330941,7.232776379034021,6.683451590753066
1539732520990289,22.186617837796575,7.17174029144735,9.002822919050914
1539732521006286,30.121309224078686,6.073090714885211,10.589761196307336
1539732521022293,23.89562829022657,5.096513313496644,9.308003356984727
1539732521038300,12.4208438239109,4.058899824521177,5.828946364538069
1539732521054307,0.03051804379333589,2.8992141603723667,2.5940337224383256
1539732521070314,-13.031204699778755,1.739528496223329,0.45777065690094787
1539732521086321,-16.754406042572555,1.2512397955290453,-1.0070954451819034
1539732521102328,-5.401693751430457,0.7629510948347615,-1.739528496223329
1539732521118335,4.730296787975931,-1.1291676203554744,-1.983672846570471
1539732521134342,11.20012207217519,-1.8005645838102282,-0.7019150072480898
1539732521150349,19.073777370870403,-1.5564202334630863,1.3122758831159445
1539732521166356,17.853055619134693,-1.8005645838102282,1.1902037079423735
1539732521182363,19.1348134584573,-2.166781109330941,0.2746623941404778
1539732521198370,21.45418478675515,-2.227817196917613,-0.15259021896690683
1539732521214377,22.73594262607753,-2.04470893415737,-0.45777065690094787
1539732521230383,21.637293049515392,-1.6174563210497581,-1.0070954451819034
1539732521246390,23.83459220263967,-2.7771419851987957,-1.4343480582895154
1539732521262397,22.8580148012511,-3.997863736934505,-1.9226367589837992
1539732521278404,18.036163881895163,-4.669260700389032,-1.8616006713969
1539732521294411,12.23773556115043,-4.486152437628789,-2.166781109330941
1539732521310418,7.476920729381163,-3.692683299000464,-2.8992141603723667
1539732521326416,8.880750743877343,-2.532997634851654,-3.7537193865873633
1539732521342423,19.01274128328373,-2.227817196917613,-3.0212863355459376
1539732521358430,25.909819180590375,-5.706874189364498,-1.1902037079423735
1539732521374436,18.82963302052326,-8.51453421835663,-1.6174563210497581
1539732521390443,-2.105745021744042,-7.782101167315204,-3.6316472114137923
1539732521406450,-18.097199969481835,-6.317235065232353,-4.42511635004189
1539732521422457,-18.219272144655406,-5.096513313496644,-3.936827649347606
1539732521438464,-7.537956816968062,-5.462729839017356,-2.227817196917613
1539732521454471,-0.213626306553806,-5.645838101777599,-0.45777065690094787
1539732521470478,0.45777065690094787,-5.584802014190927,-0.8850232700083325
1539732521486485,-3.0212863355459376,-4.791332875562603,-1.5564202334630863
1539732521502492,-6.744487678339738,-4.42511635004189,-1.9226367589837992
1539732521518499,-8.697642481116873,-3.997863736934505,-1.9226367589837992
1539732521534506,-5.401693751430457,-3.3875028610666504,-1.8005645838102282
1539732521550513,1.0070954451819034,-2.410925459678083,-1.4343480582895154
1539732521566520,5.828946364538069,-1.4953841458761872,-0.8239871824216607
1539732521582527,8.51453421835663,-0.8850232700083325,-0.3967345693140487
1539732521598534,9.430075532158298,-0.7629510948347615,-0.3967345693140487
1539732521614541,6.805523765926637,-0.7019150072480898,-0.33569848172737693
1539732521630548,3.997863736934505,-0.5188067444876197,-0.03051804379333589
1539732521646545,4.486152437628789,-0.09155413138023505,0.7019150072480898
1539732521662552,5.645838101777599,-0.33569848172737693,1.4953841458761872
1539732521678559,7.476920729381163,-0.7629510948347615,1.983672846570471
1539732521694566,8.45349813076973,-0.8239871824216607,2.105745021744042
1539732521710573,8.51453421835663,-0.7629510948347615,2.288853284504512
1539732521726580,6.927595941100208,-1.0070954451819034,2.7161058976118966
1539732521742587,5.889982452124741,-1.4343480582895154,2.532997634851654
1539732521758594,7.598992904554734,-2.166781109330941,2.655069810025225
1539732521774601,9.73525597009234,-2.7771419851987957,2.9602502479590385
1539732521790608,12.481879911497572,-2.9602502479590385,3.3264667734797513
1539732521806615,12.603952086671143,-2.5940337224383256,3.6316472114137923
1539732521822621,10.772869459067579,-2.166781109330941,3.570611123826893
1539732521838628,7.2938124666209205,-1.983672846570471,2.8381780727854675
1539732521854635,2.410925459678083,-1.6784924086366573,1.9226367589837992
1539732521870642,0.09155413138023505,-1.6174563210497581,1.1902037079423735
1539732521886649,2.288853284504512,-2.166781109330941,1.1902037079423735
1539732521902656,4.852368963149502,-2.4719615472647547,1.5564202334630863
1539732521918663,4.180971999694748,-2.8992141603723667,1.4343480582895154
1539732521934670,2.7161058976118966,-3.3264667734797513,1.0070954451819034
1539732521950677,-2.4719615472647547,-3.570611123826893,0.5798428320745188
1539732521966674,-4.669260700389032,-3.4485389486533222,0.2746623941404778
1539732521982681,-1.5564202334630863,-3.6316472114137923,0.8850232700083325
1539732521998688,0.7629510948347615,-4.119935912108076,1.6784924086366573
1539732522014695,0.9460593575952316,-4.119935912108076,1.739528496223329
1539732522030702,-1.2512397955290453,-3.4485389486533222,0.8850232700083325
1539732522046709,-3.2043945983061803,-2.7161058976118966,0.09155413138023505
1539732522062716,-2.8992141603723667,-2.227817196917613,-0.3967345693140487
1539732522078723,-1.3733119707026162,-2.105745021744042,-0.33569848172737693
1539732522094730,-0.7629510948347615,-2.166781109330941,-0.3967345693140487
1539732522110737,-2.7161058976118966,-1.983672846570471,-0.5188067444876197
1539732522126744,-3.3875028610666504,-1.8005645838102282,-0.7019150072480898
1539732522142751,-1.6784924086366573,-1.8005645838102282,-0.45777065690094787
1539732522158758,1.8616006713969,-1.9226367589837992,0.15259021896690683
1539732522174765,4.180971999694748,-2.3498893720911838,0.8239871824216607
1539732522190772,3.7537193865873633,-2.655069810025225,0.9460593575952316
1539732522206779,0.9460593575952316,-2.655069810025225,0.6408789196611906
1539732522222786,-1.3733119707026162,-2.410925459678083,0.15259021896690683
1539732522238793,-0.9460593575952316,-2.166781109330941,0.03051804379333589
1539732522254799,3.1433585107195086,-1.9226367589837992,0.2746623941404778
1539732522270806,6.439307240405924,-1.739528496223329,0.5798428320745188
1539732522286834,8.45349813076973,-1.1902037079423735,0.5798428320745188
1539732522302841,8.45349813076973,-0.9460593575952316,0.5798428320745188
1539732522318848,7.476920729381163,-0.8239871824216607,0.3967345693140487
1539732522334855,4.60822461280236,-0.7019150072480898,0.3967345693140487
1539732522350862,1.6174563210497581,-0.2746623941404778,-0.03051804379333589
1539732522366869,0.7629510948347615,0.03051804379333589,-0.15259021896690683
1539732522382876,1.5564202334630863,0.09155413138023505,0.15259021896690683
1539732522398883,4.547188525215461,0.15259021896690683,0.5798428320745188
1539732522414890,6.744487678339738,-0.2746623941404778,0.8239871824216607
1539732522430897,5.3406576638437855,-0.8239871824216607,0.7629510948347615
1539732522446904,2.9602502479590385,-0.7629510948347615,0.45777065690094787
1539732522462911,1.8616006713969,-1.1291676203554744,0.213626306553806
1539732522478918,0.9460593575952316,-1.3122758831159445,0.2746623941404778
1539732522494925,1.4343480582895154,-1.4343480582895154,0.213626306553806
1539732522510932,1.4343480582895154,-1.3733119707026162,-0.15259021896690683
1539732522526939,2.04470893415737,-1.3122758831159445,-0.3967345693140487
1539732522542945,2.7161058976118966,-1.1902037079423735,-0.7019150072480898
1539732522558952,3.2043945983061803,-1.2512397955290453,-0.8239871824216607
1539732522574959,2.227817196917613,-1.4953841458761872,-1.1902037079423735
1539732522590966,0.7629510948347615,-1.4953841458761872,-1.4343480582895154
1539732522606964,0.33569848172737693,-1.4953841458761872,-1.5564202334630863
1539732522622971,1.1291676203554744,-1.8616006713969,-1.2512397955290453
1539732522638978,2.7771419851987957,-2.288853284504512,-0.8850232700083325
1539732522654985,3.2654306858930795,-2.5940337224383256,-0.5188067444876197
1539732522670992,2.166781109330941,-3.0212863355459376,-0.33569848172737693
1539732522686998,0.5188067444876197,-3.0212863355459376,-0.33569848172737693
1539732522703005,-1.5564202334630863,-3.0823224231326094,-0.15259021896690683
1539732522719012,-2.3498893720911838,-3.3264667734797513,0.03051804379333589
1539732522735019,-2.288853284504512,-3.2654306858930795,0.45777065690094787
1539732522751026,-1.8005645838102282,-3.3875028610666504,1.1291676203554744
1539732522767033,-2.288853284504512,-3.4485389486533222,1.6174563210497581
1539732522783040,-3.570611123826893,-3.3264667734797513,1.739528496223329
1539732522799047,-4.364080262455218,-3.3264667734797513,1.6784924086366573
1539732522815054,-3.3875028610666504,-3.570611123826893,1.8005645838102282
1539732522831061,-2.5940337224383256,-3.6316472114137923,2.166781109330941
1539732522847068,-2.410925459678083,-3.4485389486533222,2.410925459678083
1539732522863075,-2.166781109330941,-3.2654306858930795,2.532997634851654
1539732522879082,-3.0823224231326094,-2.7161058976118966,2.166781109330941
1539732522895089,-5.157549401083315,-1.9226367589837992,1.1902037079423735
1539732522911096,-6.195162890058782,-1.3733119707026162,0.03051804379333589
1539732522927093,-4.42511635004189,-1.3122758831159445,-0.45777065690094787
1539732522943100,-0.2746623941404778,-1.6784924086366573,-0.45777065690094787
1539732522959107,2.8992141603723667,-2.3498893720911838,0.15259021896690683
1539732522975114,2.532997634851654,-3.0823224231326094,0.7629510948347615
1539732522991121,-0.6408789196611906,-3.5095750362402214,0.7629510948347615
1539732523007128,-4.42511635004189,-3.7537193865873633,0.3967345693140487
1539732523023135,-5.096513313496644,-4.058899824521177,0.5798428320745188
1539732523039142,-4.242008087281647,-4.42511635004189,1.0681315327688026
1539732523055149,-4.791332875562603,-4.60822461280236,1.6174563210497581
1539732523071156,-7.049668116273779,-4.364080262455218,1.4953841458761872
1539732523087163,-9.67421988250544,-3.814755474174035,1.1291676203554744
1539732523103170,-10.89494163424115,-3.5095750362402214,1.1291676203554744
1539732523119176,-9.308003356984727,-3.2043945983061803,1.4953841458761872
1539732523135183,-6.256198977645454,-3.1433585107195086,2.04470893415737
1539732523151190,-3.4485389486533222,-3.0823224231326094,2.5940337224383256
1539732523167197,-2.105745021744042,-2.7771419851987957,3.0212863355459376
1539732523183204,-1.8005645838102282,-2.410925459678083,3.0823224231326094
1539732523199211,-2.655069810025225,-2.04470893415737,2.655069810025225
1539732523215218,-1.3122758831159445,-1.6784924086366573,2.166781109330941
1539732523231225,1.6784924086366573,-1.4953841458761872,1.8616006713969
1539732523247253,3.0823224231326094,-1.4953841458761872,1.6174563210497581
1539732523263260,1.1902037079423735,-1.3122758831159445,1.1291676203554744
1539732523279267,-1.983672846570471,-1.0070954451819034,0.3967345693140487
1539732523295274,-3.2654306858930795,-1.1291676203554744,0.09155413138023505
1539732523311281,-3.0823224231326094,-1.6784924086366573,0.09155413138023505
1539732523327288,-4.974441138323073,-2.166781109330941,-0.2746623941404778
1539732523343295,-8.575570305943302,-2.3498893720911838,-1.3122758831159445
1539732523359302,-11.505302510109004,-2.105745021744042,-2.4719615472647547
1539732523375309,-9.918364232852582,-2.105745021744042,-2.5940337224383256
1539732523391316,-4.791332875562603,-2.410925459678083,-1.0070954451819034
1539732523407323,-1.3733119707026162,-2.7771419851987957,0.7629510948347615
1539732523423329,-3.7537193865873633,-2.9602502479590385,1.0681315327688026
1539732523439336,-6.500343327992596,-2.9602502479590385,0.3967345693140487
1539732523455343,-6.317235065232353,-3.2654306858930795,-0.03051804379333589
1539732523471350,-4.364080262455218,-3.2043945983061803,-0.213626306553806
1539732523487357,-0.09155413138023505,-2.410925459678083,-0.09155413138023505
1539732523503364,4.058899824521177,-1.4953841458761872,0.03051804379333589
1539732523519371,5.401693751430457,-0.7629510948347615,0.213626306553806
1539732523535378,4.852368963149502,-0.09155413138023505,0.15259021896690683
1539732523551385,3.814755474174035,0.45777065690094787,-0.45777065690094787
1539732523567382,3.3875028610666504,0.15259021896690683,-0.8850232700083325
1539732523583389,2.410925459678083,-0.2746623941404778,-1.4343480582895154
1539732523599396,1.1291676203554744,-0.3967345693140487,-1.8616006713969
1539732523615403,0.45777065690094787,-0.45777065690094787,-1.9226367589837992
1539732523631410,1.3733119707026162,-0.7019150072480898,-1.4953841458761872
1539732523647417,3.1433585107195086,-0.9460593575952316,-1.0681315327688026
1539732523663424,3.1433585107195086,-1.2512397955290453,-1.0070954451819034
1539732523679431,1.4343480582895154,-1.4953841458761872,-1.0070954451819034
1539732523695438,-0.2746623941404778,-1.8005645838102282,-1.0070954451819034
1539732523711445,-0.8239871824216607,-2.166781109330941,-0.6408789196611906
1539732523727452,-0.15259021896690683,-2.7771419851987957,-0.15259021896690683
1539732523743459,-0.2746623941404778,-3.2654306858930795,0.213626306553806
1539732523759466,-0.9460593575952316,-3.5095750362402214,0.3967345693140487
1539732523775473,-2.532997634851654,-3.570611123826893,0.5188067444876197
1539732523791480,-3.6316472114137923,-3.1433585107195086,0.45777065690094787
1539732523807487,-3.5095750362402214,-2.655069810025225,0.7019150072480898
1539732523823494,-0.45777065690094787,-2.3498893720911838,1.0070954451819034
1539732523839501,3.2043945983061803,-2.3498893720911838,1.3733119707026162
1539732523855507,3.692683299000464,-2.3498893720911838,1.6174563210497581
1539732523871514,0.7629510948347615,-2.7771419851987957,1.4343480582895154
1539732523887512,-2.7771419851987957,-3.5095750362402214,1.2512397955290453
1539732523903519,-4.9134050507361735,-3.7537193865873633,1.0070954451819034
1539732523919526,-4.303044174868319,-3.5095750362402214,0.9460593575952316
1539732523935533,-2.8381780727854675,-2.9602502479590385,1.0070954451819034
1539732523951540,-1.9226367589837992,-2.227817196917613,0.8850232700083325
1539732523967547,-0.8239871824216607,-1.1291676203554744,0.5188067444876197
1539732523983554,1.8005645838102282,-0.03051804379333589,0.8239871824216607
1539732523999560,4.058899824521177,0.8850232700083325,1.739528496223329
1539732524015567,6.439307240405924,2.105745021744042,3.2654306858930795
1539732524031574,9.55214770733187,2.9602502479590385,4.791332875562603
1539732524047581,11.932555123216616,3.2043945983061803,5.95101853971164
1539732524063588,12.298771648737329,2.7771419851987957,6.195162890058782
1539732524079595,10.589761196307336,2.105745021744042,5.76791027695117
1539732524095602,6.8665598535133086,1.6784924086366573,4.730296787975931
1539732524111609,3.875791561760934,1.0070954451819034,3.3264667734797513
1539732524127616,3.0212863355459376,0.33569848172737693,2.410925459678083
1539732524143623,3.570611123826893,-0.09155413138023505,1.6174563210497581
1539732524159630,2.655069810025225,-0.3967345693140487,0.8850232700083325
1539732524175637,1.2512397955290453,-0.7019150072480898,-0.15259021896690683
1539732524191644,-0.03051804379333589,-0.9460593575952316,-1.2512397955290453
1539732524207641,0.03051804379333589,-1.4343480582895154,-2.04470893415737
1539732524223648,-0.5188067444876197,-2.04470893415737,-2.532997634851654
1539732524239655,-1.2512397955290453,-2.288853284504512,-2.8992141603723667
1539732524255662,-3.2654306858930795,-2.532997634851654,-3.0212863355459376
1539732524271669,-3.814755474174035,-2.7161058976118966,-3.0823224231326094
1539732524287676,-1.1902037079423735,-2.288853284504512,-2.7771419851987957
1539732524303683,6.683451590753066,-2.105745021744042,-1.4953841458761872
1539732524319690,12.970168612191856,-2.8992141603723667,0.213626306553806
1539732524335697,12.176699473563758,-4.058899824521177,0.6408789196611906
1539732524351704,3.936827649347606,-4.486152437628789,-0.2746623941404778
1539732524367711,-7.2938124666209205,-4.547188525215461,-1.5564202334630863
1539732524383718,-13.397421225299468,-4.180971999694748,-2.410925459678083
1539732524399725,-12.481879911497572,-3.3875028610666504,-2.532997634851654
1539732524415732,-8.209353780422589,-2.3498893720911838,-2.410925459678083
