Timestamp (microseconds),Accel X (g),Accel Y (g),Accel Z (g)
1539731597761383,0.9890897993438621,-0.0470588235294116,0.1541161211566342
1539731597777385,0.9883573662928207,-0.060975051499198685,0.1544823376821549
1539731597793388,0.9835965514610514,-0.0715953307392998,0.14666971847104637
1539731597809391,0.9793240253299764,-0.0800183108262762,0.1372701609826814
1539731597825393,0.97602807660029,-0.08636606393530188,0.12774853131914288
1539731597841396,0.9732204165712979,-0.0858777752346076,0.11883726253147131
1539731597857399,0.9671168078126193,-0.08722056916151688,0.11590753032730561
1539731597873401,0.9607690547035936,-0.09015030136568258,0.10638590066376707
1539731597889404,0.9607690547035936,-0.09576562142366685,0.09710841535057568
1539731597905407,0.9635767147325858,-0.08953994048981473,0.08844129091325215
1539731597921409,0.9601586938277258,-0.07574578469520121,0.09100480659189714
1539731597937412,0.9632104982070651,-0.06341649500267055,0.09100480659189714
1539731597953415,0.9735866330968186,-0.05035477225909801,0.09564354924849283
1539731597969417,0.9778591592278936,-0.04205386434729519,0.10052643625543567
1539731597985420,0.9827420462348364,-0.032288090333409514,0.09893949797817925
1539731598001423,0.9859159227893493,-0.025818265049210254,0.1004043640802621
1539731598017425,0.9846952010376135,-0.02679484245059882,0.10760662241550278
1539731598033428,0.9855497062638285,-0.026306553749904538,0.11798275730525631
1539731598049430,0.9827420462348364,-0.025696192874036683,0.12408636606393486
1539731598065433,0.9805447470817121,-0.028259708552681673,0.12457465476462914
1539731598081451,0.9762722209506371,-0.036316472114137355,0.1255512321660186
1539731598097454,0.9735866330968186,-0.05352864881361086,0.12567330434119217
1539731598113456,0.9779812314030671,-0.0695201037613491,0.12872510872053144
1539731598129459,0.9798123140306707,-0.07660028992141621,0.13202105745021786
1539731598145462,0.9788357366292821,-0.07953002212558191,0.12909132524605216
1539731598161464,0.980300602731365,-0.08416876478217761,0.12286564431219915
1539731598177467,0.9866483558403907,-0.08709849698634331,0.1214007782101163
1539731598193470,0.9921416037232014,-0.08734264133669045,0.11700617990386775
1539731598209472,0.9993438620584421,-0.08746471351186402,0.11432059205004919
1539731598225475,1.0039826047150378,-0.08258182650492119,0.10809491111619707
1539731598241478,1.0050812542916,-0.0745250629434655,0.10077058060578281
1539731598257480,1.0054474708171206,-0.07122911421377909,0.09967193102922067
1539731598273483,1.0041046768902113,-0.05914396887159512,0.09820706492713782
1539731598289486,0.9969024185549706,-0.04754711223010588,0.09906157015335282
1539731598305488,0.9904325932707714,-0.03814755474174092,0.09857328145265853
1539731598321491,0.9846952010376135,-0.03533989471274879,0.09674219882505497
1539731598337494,0.982009613183795,-0.03814755474174092,0.09820706492713782
1539731598353496,0.9843289845120928,-0.03997863736934448,0.10370031280994851
1539731598369499,0.9792019531548029,-0.03692683299000521,0.10748455024032921
1539731598385501,0.9718776226443886,-0.038757915617608774,0.10772869459067635
1539731598401489,0.9696803234912643,-0.049500267032883016,0.10931563286793278
1539731598417492,0.9719996948195622,-0.06170748455024011,0.11212329289692491
1539731598433494,0.9750514991989014,-0.07135118638895266,0.11822690165560346
1539731598449497,0.9771267261768521,-0.07684443427176335,0.11822690165560346
1539731598465500,0.9737087052719922,-0.07843137254901977,0.11456473640039633
1539731598481502,0.9639429312581065,-0.0850232700083926,0.10907148851758564
1539731598497505,0.9567406729228658,-0.09222552834363329,0.10675211718928779
1539731598513507,0.9513694972152287,-0.10272373540856039,0.10028229190508853
1539731598529510,0.9569848172732129,-0.10382238498512253,0.09478904402227784
1539731598545513,0.9541771572442208,-0.09662012664988184,0.08599984740978073
1539731598561515,0.9541771572442208,-0.09503318837262542,0.07061875333791079
1539731598577518,0.9459983215075916,-0.09417868314641042,0.06158541237506654
1539731598593521,0.9505149919890137,-0.07965209430075548,0.05609216449225585
1539731598609523,0.9668726634622722,-0.08221560997940047,0.049256122682535874
1539731598625526,0.9767605096513314,-0.07525749599450693,0.04510566872663446
1539731598641529,0.9881132219424735,-0.07940794995040834,0.037659266041046635
1539731598657531,1.0114290074006256,-0.07318226901655622,0.03985656519417091
1539731598673534,1.018142977035172,-0.06817730983443981,0.04827954528114731
1539731598689537,1.0193636987869077,-0.07574578469520121,0.04876783398184159
1539731598705539,1.0182650492103456,-0.08307011520561547,0.051819638361180864
1539731598721710,1.0109407186999313,-0.08050659952697048,0.0567025253681237
1539731598737713,1.0004425116350042,-0.07525749599450693,0.06305027847714939
1539731598753716,0.9967803463797971,-0.07110704203860552,0.06768902113374509
1539731598769719,0.9947051194018464,-0.06158541237506654,0.06439307240405867
1539731598785722,0.9928740367742428,-0.05621423666742942,0.06353856717784367
1539731598801725,0.9889677271686885,-0.056946669718470844,0.0642710002288851
1539731598817729,0.9835965514610514,-0.05389486533913157,0.06414892805371153
1539731598833732,0.982009613183795,-0.05267414358739586,0.06268406195162868
1539731598849735,0.9801785305561914,-0.05804531929503298,0.0604867627985044
1539731598865738,0.9793240253299764,-0.06793316548409267,0.05902189669642155
1539731598881741,0.9776150148775464,-0.07989623865110262,0.058411535820553695
1539731598897744,0.973464560921645,-0.09381246662088971,0.05511558709086728
1539731598913747,0.970901045243,-0.1060196841382468,0.05267414358739586
1539731598929751,0.9702906843671322,-0.11798275730525676,0.04388494697489875
1539731598945754,0.9710231174181736,-0.127870603494316,0.041687647821774476
1539731598961757,0.9838406958113985,-0.1354390783550774,0.038879987792782345
1539731598977760,1.001052872510872,-0.14373998626688023,0.0394903486686502
1539731598993763,1.0086213473716334,-0.14227512016479738,0.03717097734035235
1539731599009766,1.007034409094377,-0.13482871747920955,0.03826962691691449
1539731599025769,1.0011749446860456,-0.13018997482261385,0.03790341039139378
1539731599041961,0.9969024185549706,-0.12982375829709314,0.037781338216220206
1539731599057965,0.9987335011825742,-0.12811474784466315,0.034851606012054503
1539731599073969,0.9953154802777142,-0.12652780956740672,0.03790341039139378
1539731599089974,0.9873807888914321,-0.11798275730525676,0.04119935912108019
1539731599105978,0.97944609750515,-0.1077286945906768,0.042908369573510186
1539731599121982,0.9807888914320593,-0.10064850843060968,0.040222781719691625
1539731599137986,0.9886015106431678,-0.09954985885404755,0.037537193865873064
1539731599153990,0.9934843976501107,-0.08978408484016187,0.034851606012054503
1539731599169994,0.9943389028763256,-0.08892957961394687,0.03302052338445094
1539731599185998,0.9949492637521935,-0.08990615701533544,0.029480430304417382
1539731599202002,0.9949492637521935,-0.08990615701533544,0.02642862592507811
1539731599218006,0.9931181811245899,-0.08770885786221116,0.0252079041733424
1539731599234010,0.9959258411535821,-0.08917372396429402,0.025940337224383825
1539731599250014,0.9965362020294499,-0.091737239642939,0.019226367589837423
1539731599266018,0.9990997177080949,-0.09735255970092327,0.013366903181506018
1539731599282023,0.9926298924238957,-0.09832913710231184,0.01617456321049815
1539731599298027,0.9840848401617457,-0.0963759822995347,0.017273212787060288
1539731599314031,0.9800564583810178,-0.09454489967193114,0.009338521400778177
1539731599330035,0.9876249332417792,-0.10553139543755252,-0.0016479743648432077
1539731599346039,0.990554665445945,-0.12176699473563746,-0.005554283970397478
1539731599362182,0.9923857480735485,-0.1299458304722667,0.002868696116578917
1539731599378187,0.9906767376211185,-0.12982375829709314,0.002990768291752488
1539731599394191,0.9907988097962921,-0.12567330434119173,1.831082627603564E-4
1539731599410196,0.9921416037232014,-0.12042420080872818,-0.0040894178683146265
1539731599426200,0.990554665445945,-0.12152285038529032,-0.00579842832074462
1539731599442205,0.9883573662928207,-0.11627374685282676,-0.0026245517662317752
1539731599458210,0.9843289845120928,-0.1152971694514382,0.0036011291676203427
1539731599474214,0.9844510566872664,-0.10638590066376752,0.0038452735179674846
1539731599490219,0.9799343862058443,-0.10406652933546967,0.011902037079423167
1539731599506223,0.9799343862058443,-0.10443274586099038,0.013977264057373873
1539731599522228,0.9839627679865721,-0.11419851987487606,0.01361104753185316
1539731599538232,0.9877470054169528,-0.11407644769970249,0.018371862363622427
1539731599554237,0.9835965514610514,-0.10785076676585037,0.0252079041733424
1539731599570242,0.9817654688334478,-0.10711833371480894,0.026916914625772392
1539731599586246,0.9826199740596628,-0.11700617990386819,0.027161058976119534
1539731599602251,0.9870145723659114,-0.12921339742122528,0.02398718242160669
1539731599618255,0.9860379949645228,-0.13434042877851526,0.027161058976119534
1539731599634260,0.9876249332417792,-0.1362935835812924,0.03399710078583951
1539731599650264,0.98457312886244,-0.13519493400473026,0.025940337224383825
1539731599666269,0.9840848401617457,-0.13653772793163954,0.024719615472648115
1539731599682434,0.9817654688334478,-0.1392233157854581,0.023498893720912406
1539731599698439,0.9805447470817121,-0.14435034714274808,0.023010605020218122
1539731599714444,0.9772487983520257,-0.14398413061722737,0.027649347676813818
1539731599730449,0.9738307774471657,-0.14068818188754095,0.026306553749904538
1539731599746454,0.9728542000457772,-0.13861295490959025,0.026306553749904538
1539731599762459,0.97773708705272,-0.14117647058823524,0.02410925459678026
1539731599778464,0.9783474479285879,-0.14142061493858238,0.0214236667429617
1539731599794469,0.9773708705271993,-0.14398413061722737,0.020691233691920274
1539731599810474,0.9735866330968186,-0.14105439841306167,0.020935378042267416
1539731599826479,0.9756618600747693,-0.13678187228198668,0.020935378042267416
1539731599842484,0.9759060044251164,-0.13409628442816812,0.022278171969176697
1539731599858489,0.9771267261768521,-0.1345845731288624,0.01617456321049815
1539731599874494,0.9813992523079271,-0.13775844968337525,0.01483176928358887
1539731599890499,0.9849393453879607,-0.13482871747920955,0.015930418860151008
1539731599906504,0.9879911497673,-0.1325093461509117,0.014099336232547444
1539731599922509,0.9909208819714657,-0.1257953765163653,0.013244831006332447
1539731599938514,0.9912870984969864,-0.12652780956740672,0.010681315327687457
1539731599954519,0.9927519645990692,-0.12762645914396886,0.008239871824216038
1539731599970524,0.9953154802777142,-0.13067826352330814,0.009460593575951748
1539731599986529,0.9936064698252842,-0.12347600518806745,0.013244831006332447
1539731600002655,0.9892118715190357,-0.1152971694514382,0.017029068436713146
1539731600018661,0.9843289845120928,-0.10919356069275965,0.01861600671396957
1539731600034667,0.9781033035782407,-0.11053635461966893,0.017883573662928143
1539731600050673,0.97602807660029,-0.11456473640039677,0.02276646066987098
1539731600066679,0.9718776226443886,-0.11700617990386819,0.026306553749904538
1539731600082685,0.9735866330968186,-0.12274357213702602,0.02642862592507811
1539731600098691,0.9784695201037614,-0.1283588921950103,0.025696192874036683
1539731600114697,0.980300602731365,-0.1342183566033417,0.027283131151293105
1539731600130703,0.9835965514610514,-0.13617151140611883,0.022278171969176697
1539731600146709,0.9856717784390021,-0.14947737850003806,0.019470511940184565
1539731600162715,0.9861600671396964,-0.15448233768215447,0.01739528496223386
1539731600178721,0.9781033035782407,-0.1535057602807659,0.02264438849469741
1539731600194727,0.9782253757534143,-0.14776836804760807,0.023743038071259548
1539731600210733,0.9767605096513314,-0.13995574883649953,0.021179522392614558
1539731600226739,0.9761501487754636,-0.13739223315785454,0.02020294499122599
1539731600242745,0.9798123140306707,-0.13678187228198668,0.0214236667429617
1539731600258751,0.9796902418554971,-0.13495078965438312,0.020569161516746703
1539731600274757,0.9817654688334478,-0.13018997482261385,0.018493934538795997
1539731600290763,0.9824979018844893,-0.12591744869153887,0.016784924086366004
1539731600306769,0.9790798809796293,-0.12982375829709314,0.013000686655985305
1539731600322906,0.9770046540016786,-0.13775844968337525,0.01239032578011745
1539731600338913,0.9755397878995957,-0.13910124361028453,0.01361104753185316
1539731600354919,0.9746852826733807,-0.13775844968337525,0.01483176928358887
1539731600370926,0.9779812314030671,-0.13275349050125884,0.01751735713740743
1539731600386932,0.978591592278935,-0.12860303654535743,0.017151140611886717
1539731600402938,0.9793240253299764,-0.13434042877851526,0.015564202334630295
1539731600418945,0.9809109636072328,-0.13897917143511096,0.019470511940184565
1539731600434951,0.9822537575341421,-0.13604943923094526,0.024353398947127403
1539731600450958,0.9866483558403907,-0.13092240787365528,0.027649347676813818
1539731600466964,0.9898222323949035,-0.13055619134813456,0.02667277027542525
1539731600482971,0.9867704280155642,-0.13604943923094526,0.024353398947127403
1539731600498977,0.9835965514610514,-0.13971160448615239,0.022156099794003126
1539731600514984,0.9839627679865721,-0.14117647058823524,0.026306553749904538
1539731600530990,0.9877470054169528,-0.1404440375371938,0.02398718242160669
1539731600546997,0.9886015106431678,-0.1354390783550774,0.024597543297474544
1539731600563003,0.98628213931487,-0.1342183566033417,0.022400244144350268
1539731600579010,0.9835965514610514,-0.13202105745021742,0.018127718013275285
1539731600595016,0.9816433966582743,-0.13104448004882885,0.023132677195391693
1539731600611023,0.9795681696803236,-0.12860303654535743,0.02264438849469741
1539731600627029,0.9799343862058443,-0.12555123216601816,0.02288853284504455
1539731600643158,0.982009613183795,-0.12933546959639886,0.019226367589837423
1539731600659165,0.9835965514610514,-0.1337300679026474,0.015075913633936011
1539731600675171,0.9783474479285879,-0.13519493400473026,0.016540779736018862
1539731600691178,0.9744411383230336,-0.1350728618295567,0.01995880064087885
1539731600707185,0.9783474479285879,-0.1426413366903181,0.016540779736018862
1539731600723192,0.9850614175631343,-0.14947737850003806,0.011169604028381741
1539731600739199,0.9887235828183414,-0.14996566720073234,0.011657892729076025
1539731600755206,0.9903105210955978,-0.14752422369726093,0.01617456321049815
1539731600771213,0.9926298924238957,-0.14520485236896308,0.015320057984283153
1539731600787220,0.9906767376211185,-0.1400778210116731,0.015808346684977437
1539731600803227,0.9893339436942092,-0.1359273670557717,0.01739528496223386
1539731600819234,0.9877470054169528,-0.1337300679026474,0.01641870756084529
1539731600835241,0.9851834897383078,-0.12567330434119173,0.02008087281605242
1539731600851248,0.9817654688334478,-0.1190814068818189,0.021179522392614558
1539731600867255,0.9773708705271993,-0.1144426642252232,0.027649347676813818
1539731600883262,0.9772487983520257,-0.12091248950942246,0.026306553749904538
1539731600899269,0.9906767376211185,-0.13519493400473026,0.028259708552681673
1539731600915276,0.9955596246280614,-0.14312962539101237,0.029602502479590953
1539731600931283,0.9923857480735485,-0.14435034714274808,0.03265430685893023
1539731600947290,0.9909208819714657,-0.1450827801937895,0.03460746166170736
1539731600963409,0.9921416037232014,-0.13690394445716025,0.02386511024643312
1539731600979416,0.9972686350804914,-0.14654764629587236,0.024353398947127403
1539731600995423,0.9940947585259785,-0.14630350194552522,0.02679484245059882
1539731601011430,0.988845654993515,-0.14227512016479738,0.025818265049210254
1539731601027437,0.9895780880445564,-0.13104448004882885,0.028747997253375956
1539731601043444,0.9923857480735485,-0.11554131380178534,0.03045700770580595
1539731601059451,0.9960479133287556,-0.10504310673685824,0.03741512169069949
1539731601075458,0.9969024185549706,-0.09967193102922112,0.042664225223163044
1539731601091465,0.9998321507591363,-0.09881742580300612,0.042908369573510186
1539731601107472,1.001907377737087,-0.09625391012436113,0.04119935912108019
1539731601123479,0.9988555733577478,-0.09222552834363329,0.03558403906309593
1539731601139485,0.990554665445945,-0.09027237354085615,0.0357061112382695
1539731601155492,0.9787136644541086,-0.09369039444571614,0.03472953383688093
1539731601171499,0.96748302433814,-0.10418860151064324,0.027405203326466676
1539731601187506,0.9616235599298086,-0.1182269016556039,0.019348439765010994
1539731601203513,0.9616235599298086,-0.130434119172961,0.014709697108415298
1539731601219520,0.9636987869077593,-0.1359273670557717,0.013000686655985305
1539731601235527,0.9658960860608836,-0.13958953231097881,0.015930418860151008
1539731601251534,0.9629663538567179,-0.1412985427634088,0.014221408407721015
1539731601267541,0.9601586938277258,-0.14605935759517807,0.009582665751125319
1539731601283630,0.9586938277256429,-0.14666971847104593,0.005188067444876765
1539731601299637,0.9550316624704358,-0.14019989318684667,0.00457770656900891
1539731601315645,0.9486839093614101,-0.13263141832608527,0.009460593575951748
1539731601331652,0.9522240024414437,-0.12774853131914243,0.008239871824216038
1539731601347660,0.9580834668497751,-0.1240863660639353,0.010803387502861028
1539731601363667,0.9634546425574122,-0.12054627298390175,0.012878614480811734
1539731601379675,0.96406500343328,-0.1182269016556039,0.02008087281605242
1539731601395682,0.9667505912870986,-0.11590753032730605,0.023254749370565264
1539731601411689,0.9732204165712979,-0.11517509727626463,0.02935835812924381
1539731601427697,0.97602807660029,-0.1152971694514382,0.027405203326466676
1539731601443704,0.9799343862058443,-0.11786068513008319,0.03033493553063238
1539731601459712,0.9821316853589686,-0.11944762340733961,0.0394903486686502
1539731601475719,0.9875028610666057,-0.1106584267948425,0.03961242084382377
1539731601491727,0.9918974593728542,-0.10516517891203181,0.03802548256656735
1539731601507734,0.9920195315480278,-0.10614175631342038,0.03741512169069949
1539731601523741,0.9949492637521935,-0.1115129320210575,0.036316472114137355
1539731601539749,0.9951934081025406,-0.11017013809414822,0.03558403906309593
1539731601555756,0.9890897993438621,-0.09979400320439469,0.03741512169069949
1539731601571764,0.9827420462348364,-0.09356832227054257,0.034851606012054503
1539731601587771,0.9886015106431678,-0.10040436408026254,0.034851606012054503
1539731601603912,0.9986114290074006,-0.10638590066376752,0.03558403906309593
1539731601619920,1.0014190890363928,-0.10467689021133753,0.039002059967955915
1539731601635928,1.003616388189517,-0.10125886930647754,0.042786297398336615
1539731601651936,1.0081330586709392,-0.10235751888303968,0.041443503471427334
1539731601667944,1.0131380178530556,-0.10846112764171822,0.04315251392385733
1539731601683951,1.0115510795757992,-0.11017013809414822,0.04644846265354374
1539731601699959,1.0056916151674677,-0.10797283894102394,0.04852368963149445
1539731601715967,0.9973907072556649,-0.10626382848859395,0.04571602960250232
1539731601731975,0.9873807888914321,-0.10638590066376752,0.04473945220111375
1539731601747983,0.9839627679865721,-0.11432059205004963,0.04339665827420447
1539731601763991,0.9838406958113985,-0.12005798428320746,0.037781338216220206
1539731601779999,0.980300602731365,-0.12567330434119173,0.03314259555962451
1539731601796007,0.97773708705272,-0.12713817044327458,0.03338673990997165
1539731601812015,0.9721217669947357,-0.12249942778667888,0.031067368581673804
1539731601828023,0.9634546425574122,-0.12481879911497673,0.02789349202716096
1539731601844030,0.9553978789959565,-0.13519493400473026,0.023254749370565264
1539731601860038,0.950148775463493,-0.14349584191653308,0.024475471122300974
1539731601876046,0.9525902189669644,-0.15216296635385662,0.020447089341573133
1539731601892054,0.9524681467917908,-0.15008773937590592,0.02020294499122599
1539731601908062,0.9534447241931794,-0.15033188372625306,0.02130159456778813
1539731601924163,0.953566796368353,-0.15069810025177377,0.02130159456778813
1539731601940172,0.9512474250400551,-0.15619134813458446,0.019714656290531707
1539731601956180,0.9497825589379723,-0.16058594644083302,0.01898222323949028
1539731601972189,0.9534447241931794,-0.16339360646982515,0.02410925459678026
1539731601988197,0.9563744563973451,-0.15704585336079946,0.027038986800945963
1539731602004205,0.9619897764553293,-0.15326161593041876,0.023498893720912406
1539731602020214,0.9622339208056765,-0.1505760280766002,0.029968719005111666
1539731602036222,0.9555199511711301,-0.14752422369726093,0.034851606012054503
1539731602052230,0.9596704051270315,-0.1493553063248645,0.036438544289310926
1539731602068239,0.970046540016785,-0.1493553063248645,0.03302052338445094
1539731602084247,0.9855497062638285,-0.15082017242694734,0.03045700770580595
1539731602100256,0.9989776455329213,-0.15252918287937733,0.03265430685893023
1539731602116264,1.0097199969481956,-0.15460440985732804,0.036438544289310926
1539731602132272,1.0219272144655527,-0.1505760280766002,0.03302052338445094
1539731602148281,1.0282749675745784,-0.13556115053025097,0.0319218738078888
1539731602164289,1.0310826276035705,-0.12225528343633174,0.03460746166170736
1539731602180297,1.0358434424353398,-0.11700617990386819,0.03216601815823594
1539731602196306,1.033524071107042,-0.10833905546654465,0.036438544289310926
1539731602212314,1.0296177615014876,-0.09735255970092327,0.040100709544518054
1539731602228323,1.0263218127718012,-0.0879530022125583,0.04046692607003877
1539731602244415,1.0272983901731898,-0.08844129091325259,0.037537193865873064
1539731602260424,1.0200961318379491,-0.08856336308842616,0.03607232776379021
1539731602276433,1.0170443274586098,-0.0963759822995347,0.03680476081483164
1539731602292441,1.0154573891813534,-0.11126878767071036,0.03399710078583951
1539731602308450,1.0119172961013199,-0.12042420080872818,0.036316472114137355
1539731602324459,1.0103303578240634,-0.1283588921950103,0.03717097734035235
1539731602340468,1.0111848630502784,-0.132143129625391,0.03216601815823594
1539731602356477,1.0098420691233692,-0.13897917143511096,0.03167772945754166
1539731602372486,1.0012970168612192,-0.1450827801937895,0.030823224231326662
1539731602388495,0.9929961089494164,-0.1464255741206988,0.03143358510719452
1539731602404503,0.9857938506141757,-0.14544899671931022,0.03350881208514522
1539731602420512,0.9800564583810178,-0.14361791409170666,0.029724574654764524
1539731602436521,0.9730983443961243,-0.14569314106965736,0.030212863355458808
1539731602452530,0.9665064469367515,-0.1509422446021209,0.030823224231326662
1539731602468539,0.9673609521629665,-0.15680170901045232,0.02667277027542525
1539731602484548,0.9652857251850158,-0.15802243076218803,0.028747997253375956
1539731602500557,0.9577172503242544,-0.15863279163805588,0.02642862592507811
1539731602516565,0.9534447241931794,-0.16546883344777585,0.02020294499122599
1539731602532574,0.9557640955214772,-0.17315938048371082,0.01995880064087885
1539731602548583,0.9634546425574122,-0.18060578316929865,0.015197985809109582
1539731602564636,0.9784695201037614,-0.1820706492713815,0.009094377050431035
1539731602580645,0.9805447470817121,-0.16754406042572656,0.005554283970397478
1539731602596654,0.9730983443961243,-0.15545891508354304,0.0016479743648432077
1539731602612662,0.954421301594568,-0.14032196536202024,0.005065995269703194
1539731602628671,0.9302510109102009,-0.12982375829709314,0.0017700465400167786
1539731602644680,0.9223163195239188,-0.12762645914396886,7.934691386282111E-4
1539731602660689,0.9263447013046466,-0.1249408712901503,0.0038452735179674846
1539731602676698,0.9378194857709623,-0.12127870603494317,0.006652933546959616
1539731602692707,0.9477073319600215,-0.12164492256046389,0.012756542305638163
1539731602708716,0.9573510337987337,-0.12652780956740672,0.019226367589837423
1539731602724724,0.9687037460898758,-0.13446250095368883,0.015808346684977437
1539731602740733,0.9853055619134814,-0.13702601663233382,0.015197985809109582
1539731602756742,0.9934843976501107,-0.14190890363927666,0.023620965896085977
1539731602772751,0.9934843976501107,-0.14325169756618594,0.030945296406500233
1539731602788760,0.9950713359273671,-0.1412985427634088,0.03326466773479808
1539731602804769,0.9954375524528878,-0.13470664530403598,0.032532234683756656
1539731602820778,0.9916533150225071,-0.13177691309987027,0.03546196688792236
1539731602836786,0.99140917067216,-0.13116655222400242,0.03436331731136022
1539731602852795,0.9956816968032349,-0.12921339742122528,0.0365606164644845
1539731602868804,0.9911650263218128,-0.12359807736324102,0.0365606164644845
1539731602884918,0.9861600671396964,-0.12469672693980316,0.03057907988097952
1539731602900927,0.9856717784390021,-0.12518501564049744,0.030945296406500233
1539731602916936,0.9846952010376135,-0.12457465476462959,0.03314259555962451
1539731602932946,0.9859159227893493,-0.12506294346532387,0.027283131151293105
1539731602948955,0.9864042114900435,-0.12481879911497673,0.023254749370565264
1539731602964964,0.9872587167162585,-0.12274357213702602,0.023254749370565264
1539731602980974,0.988845654993515,-0.1165178912031739,0.023254749370565264
1539731602996983,0.9922636758983749,-0.1144426642252232,0.022278171969176697
1539731603012992,0.9970244907301442,-0.11273365377279321,0.021789883268482413
1539731603029002,0.9951934081025406,-0.11371023117418178,0.0214236667429617
1539731603045011,0.9959258411535821,-0.1161516746776532,0.024719615472648115
1539731603061020,0.9960479133287556,-0.11993591210803389,0.026184481574730967
1539731603077030,0.9921416037232014,-0.12506294346532387,0.02532997634851597
1539731603093039,0.9933623254749371,-0.13202105745021742,0.025574120698863112
1539731603109048,0.9932402532997635,-0.13763637750820168,0.02532997634851597
1539731603125058,0.99140917067216,-0.14325169756618594,0.027527275501640247
1539731603141067,0.9873807888914321,-0.14544899671931022,0.021667811093308842
1539731603157076,0.9823758297093157,-0.14959945067521163,0.019104295414663852
1539731603173086,0.97602807660029,-0.15045395590142663,0.017151140611886717
1539731603189095,0.970901045243,-0.14862287327382306,0.012878614480811734
1539731603205169,0.9635767147325858,-0.1447165636682688,0.015808346684977437
1539731603221179,0.9600366216525522,-0.1412985427634088,0.01861600671396957
1539731603237189,0.9602807660028994,-0.1392233157854581,0.01995880064087885
1539731603253199,0.96577401388571,-0.13910124361028453,0.017273212787060288
1539731603269209,0.9774929427023729,-0.13580529488059812,0.018371862363622427
1539731603285218,0.9817654688334478,-0.1283588921950103,0.02130159456778813
1539731603301228,0.9789578088044557,-0.1220111390859846,0.02276646066987098
1539731603317238,0.9790798809796293,-0.11932555123216604,0.02264438849469741
1539731603333248,0.9771267261768521,-0.12433051041428245,0.024719615472648115
1539731603349258,0.9763942931258107,-0.13104448004882885,0.021911955443655984
1539731603365267,0.9729762722209507,-0.13409628442816812,0.023743038071259548
1539731603381277,0.9728542000457772,-0.13824673838406953,0.027405203326466676
1539731603397287,0.9774929427023729,-0.14190890363927666,0.02935835812924381
1539731603413297,0.9850614175631343,-0.14789044022278164,0.02423132677195383
1539731603429307,0.9910429541466392,-0.14923323414969092,0.0252079041733424
1539731603445316,0.9926298924238957,-0.1467917906462195,0.023254749370565264
1539731603461326,0.9944609750514992,-0.1392233157854581,0.021789883268482413
1539731603477336,0.9934843976501107,-0.12921339742122528,0.024353398947127403
1539731603493346,0.9911650263218128,-0.12079041733424889,0.028503852903028815
1539731603509356,0.9886015106431678,-0.11371023117418178,0.029846646829938095
1539731603525421,0.9861600671396964,-0.10638590066376752,0.02679484245059882
1539731603541431,0.9856717784390021,-0.10064850843060968,0.028259708552681673
1539731603557440,0.9904325932707714,-0.09600976577401399,0.030212863355458808
1539731603573450,0.9948271915770199,-0.08990615701533544,0.032532234683756656
1539731603589460,0.9966582742046235,-0.08636606393530188,0.02935835812924381
1539731603605470,0.9920195315480278,-0.09185931181811258,0.028259708552681673
1539731603621480,0.9929961089494164,-0.10638590066376752,0.031189440756847375
1539731603637489,0.9956816968032349,-0.11786068513008319,0.0357061112382695
1539731603653499,1.0004425116350042,-0.12054627298390175,0.04205386434729519
1539731603669509,1.0102082856488899,-0.11920347905699247,0.0386358434424352
1539731603685519,1.0194857709620813,-0.12372014953841459,0.040100709544518054
1539731603701529,1.0221713588158998,-0.12921339742122528,0.04193179217212162
1539731603717538,1.0191195544365605,-0.13409628442816812,0.045471885252155175
1539731603733548,1.0117952239261463,-0.1220111390859846,0.04608224612802303
1539731603749558,1.0004425116350042,-0.1085831998168918,0.044007019150072324
1539731603765568,0.9927519645990692,-0.09893949797817969,0.03961242084382377
1539731603781578,0.9829861905851836,-0.09600976577401399,0.037537193865873064
1539731603797587,0.9744411383230336,-0.0955214770733197,0.038757915617608774
1539731603813597,0.9672388799877929,-0.09478904402227828,0.041443503471427334
1539731603829607,0.9639429312581065,-0.09735255970092327,0.03790341039139378
1539731603845672,0.9606469825284201,-0.10003814755474183,0.03314259555962451
1539731603861682,0.9579613946746015,-0.10516517891203181,0.03155565728236809
1539731603877692,0.9550316624704358,-0.11041428244449536,0.03338673990997165
1539731603893702,0.9585717555504694,-0.11920347905699247,0.03143358510719452
1539731603909711,0.9665064469367515,-0.12567330434119173,0.02410925459678026
1539731603925721,0.9718776226443886,-0.12799267566948958,0.018127718013275285
1539731603941731,0.9667505912870986,-0.12567330434119173,0.01898222323949028
1539731603957741,0.952712291142138,-0.12384222171358816,0.011902037079423167
1539731603973751,0.9420920119020373,-0.1240863660639353,0.009338521400778177
1539731603989761,0.9387960631723509,-0.12384222171358816,0.009094377050431035
1539731604005770,0.9464866102082858,-0.12652780956740672,0.007629510948348184
1539731604021780,0.955275806820783,-0.1190814068818189,0.010681315327687457
1539731604037790,0.9619897764553293,-0.10943770504310679,0.01751735713740743
1539731604053800,0.9661402304112308,-0.10736247806515609,0.02655069810025168
1539731604069810,0.9741969939726864,-0.10748455024032966,0.032410162508583085
1539731604085819,0.9890897993438621,-0.10846112764171822,0.033630884260318794
1539731604101829,0.9969024185549706,-0.10052643625543611,0.04254215304798947
1539731604117839,0.9998321507591363,-0.09149309529259186,0.05108720531013944
1539731604133849,1.0032501716639963,-0.08465705348287189,0.05267414358739586
1539731604149859,1.0045929655909056,-0.07940794995040834,0.062195773250934394
1539731604165924,1.0077668421454185,-0.08038452735179691,0.06976424811169579
1539731604181934,1.0099641412985427,-0.07318226901655622,0.06524757763027367
1539731604197944,1.0098420691233692,-0.06500343327992697,0.06573586633096795
1539731604213955,1.0005645838101778,-0.053406576638437286,0.0659800106813151
1539731604229965,0.9893339436942092,-0.04840161745632088,0.05914396887159512
1539731604245975,0.9798123140306707,-0.05743495841916513,0.06012054627298369
1539731604261985,0.9739528496223393,-0.07611200122072193,0.05621423666742942
1539731604277996,0.980300602731365,-0.09185931181811258,0.05011062790875087
1539731604294006,0.98970016021973,-0.09710841535057613,0.047913328755626594
1539731604310016,0.9958037689784085,-0.09857328145265898,0.045471885252155175
1539731604326027,0.9965362020294499,-0.1039444571602961,0.040222781719691625
1539731604342037,0.9972686350804914,-0.12323186083772031,0.032532234683756656
1539731604358047,0.9988555733577478,-0.1404440375371938,0.028747997253375956
1539731604374057,1.0060578316929885,-0.14447241931792165,0.03045700770580595
1539731604390068,1.0071564812695506,-0.12640573739223315,0.031189440756847375
1539731604406078,0.9975127794308385,-0.10052643625543611,0.03399710078583951
1539731604422088,0.9911650263218128,-0.09137102311741829,0.03436331731136022
1539731604438099,0.9890897993438621,-0.0963759822995347,0.030823224231326662
1539731604454109,0.9853055619134814,-0.09906157015335326,0.030090791180285237
1539731604470119,0.9810330357824064,-0.091737239642939,0.03741512169069949
1539731604486175,0.9759060044251164,-0.08172732127870619,0.04449530785076661
1539731604502185,0.9763942931258107,-0.08026245517662334,0.04962233920805659
1539731604518196,0.980300602731365,-0.08990615701533544,0.050720988784618726
1539731604534206,0.9842069123369193,-0.1018692301823454,0.050598916609445155
1539731604550216,0.9917753871976807,-0.11017013809414822,0.04876783398184159
1539731604566227,0.9909208819714657,-0.11139085984588393,0.05218585488670158
1539731604582237,0.9907988097962921,-0.11700617990386819,0.05255207141222229
1539731604598247,0.9816433966582743,-0.11456473640039677,0.04974441138323016
1539731604614257,0.9671168078126193,-0.1106584267948425,0.048035400930800165
1539731604630268,0.9611352712291144,-0.10492103456168467,0.04730296787975874
1539731604646278,0.9626001373311972,-0.1022354467078661,0.045593957427328746
1539731604662288,0.9636987869077593,-0.10150301365682468,0.04315251392385733
1539731604678299,0.9604028381780729,-0.10724040588998252,0.030212863355458808
1539731604694309,0.9561303120469979,-0.11993591210803389,0.02130159456778813
1539731604710319,0.9461203936827651,-0.12469672693980316,0.02642862592507811
1539731604726329,0.942458228427558,-0.12921339742122528,0.023376821545738835
1539731604742340,0.9496604867627987,-0.13531700617990383,0.01629663538567172
1539731604758350,0.9602807660028994,-0.14227512016479738,0.013488975356679589
1539731604774360,0.9696803234912643,-0.14752422369726093,0.017151140611886717
1539731604790371,0.9787136644541086,-0.14325169756618594,0.0319218738078888
1539731604806427,0.9889677271686885,-0.13116655222400242,0.04071107042038591
1539731604822437,1.0081330586709392,-0.11334401464866106,0.042908369573510186
1539731604838448,1.027542534523537,-0.10370031280994896,0.044129091325245895
1539731604854459,1.038040741588464,-0.1018692301823454,0.050598916609445155
1539731604870470,1.038651102464332,-0.09234760051880686,0.05792324711985941
1539731604886480,1.030960555428397,-0.08050659952697048,0.06207370107576082
1539731604902491,1.0139925230792706,-0.06207370107576082,0.06317235065232296
1539731604918502,0.9956816968032349,-0.05426108186465228,0.055970092317082276
1539731604934513,0.9798123140306707,-0.058533607995727266,0.04876783398184159
1539731604950523,0.9705348287174793,-0.06903181506065481,0.04449530785076661
1539731604966534,0.9750514991989014,-0.08136110475318548,0.040100709544518054
1539731604982545,0.9771267261768521,-0.09369039444571614,0.03997863736934448
1539731604998556,0.9782253757534143,-0.10675211718928823,0.033630884260318794
1539731605014567,0.9853055619134814,-0.11969176775768675,0.02679484245059882
1539731605030577,0.9920195315480278,-0.12555123216601816,0.03045700770580595
1539731605046588,1.0014190890363928,-0.12774853131914243,0.03399710078583951
1539731605062599,1.0074006256198977,-0.1275043869687953,0.03741512169069949
1539731605078610,1.0065461203936827,-0.11993591210803389,0.037781338216220206
1539731605094620,1.0058136873426413,-0.11627374685282676,0.03802548256656735
1539731605110631,0.9997100785839628,-0.11517509727626463,0.03961242084382377
1539731605126678,0.9926298924238957,-0.1123674372472725,0.044129091325245895
1539731605142689,0.9864042114900435,-0.11273365377279321,0.044007019150072324
1539731605158700,0.9789578088044557,-0.11578545815213248,0.04254215304798947
1539731605174710,0.9741969939726864,-0.11981383993286032,0.042908369573510186
1539731605190721,0.9643091477836272,-0.12433051041428245,0.04229800869764233
1539731605206732,0.9578393224994279,-0.13385214007782098,0.03997863736934448
1539731605222743,0.9572289616235601,-0.14898908979934378,0.035217822537575216
1539731605238753,0.9584496833752958,-0.15655756466010518,0.036316472114137355
1539731605254764,0.9560082398718244,-0.15374990463111304,0.039002059967955915
1539731605270775,0.9578393224994279,-0.1438620584420538,0.03595025558861664
1539731605286786,0.9636987869077593,-0.13910124361028453,0.03216601815823594
1539731605302796,0.9658960860608836,-0.13006790264744028,0.03143358510719452
1539731605318807,0.9636987869077593,-0.12628366521705958,0.03399710078583951
1539731605334818,0.9672388799877929,-0.12091248950942246,0.037537193865873064
1539731605350829,0.9773708705271993,-0.11322194247348749,0.03399710078583951
1539731605366840,0.9860379949645228,-0.10211337453269254,0.03216601815823594
1539731605382850,0.9940947585259785,-0.09771877622644398,0.03216601815823594
1539731605398861,0.9981231403067063,-0.09796292057679112,0.03045700770580595
1539731605414872,0.9984893568322271,-0.10089265278095683,0.03045700770580595
1539731605430883,0.9958037689784085,-0.10052643625543611,0.03033493553063238
1539731605446930,0.9965362020294499,-0.09893949797817969,0.028259708552681673
1539731605462940,0.9977569237811856,-0.0955214770733197,0.024597543297474544
1539731605478951,0.9961699855039292,-0.09527733272297256,0.023743038071259548
1539731605494962,0.9927519645990692,-0.10162508583199825,0.023743038071259548
1539731605510973,0.9926298924238957,-0.1098039215686275,0.028137636377508102
1539731605526983,0.9960479133287556,-0.11102464332036321,0.03216601815823594
1539731605542994,0.9989776455329213,-0.10846112764171822,0.03436331731136022
1539731605559005,1.0034943160143435,-0.10443274586099038,0.03338673990997165
1539731605575016,1.0022735942626078,-0.10614175631342038,0.0357061112382695
1539731605591026,0.9951934081025406,-0.11053635461966893,0.03704890516517878
1539731605607037,0.9877470054169528,-0.11346608682383463,0.04071107042038591
1539731605623048,0.980300602731365,-0.11432059205004963,0.04132143129625376
1539731605639059,0.9813992523079271,-0.11432059205004963,0.038757915617608774
1539731605655069,0.9831082627603571,-0.11810482948043033,0.04071107042038591
1539731605671080,0.9846952010376135,-0.12530708781567101,0.04205386434729519
1539731605687091,0.988845654993515,-0.13055619134813456,0.041443503471427334
1539731605703102,0.98970016021973,-0.13556115053025097,0.03680476081483164
1539731605719112,0.9928740367742428,-0.13739223315785454,0.032288090333409514
1539731605735123,0.9892118715190357,-0.13348592355230027,0.035095750362401645
1539731605751134,0.9857938506141757,-0.129579613946746,0.03472953383688093
1539731605767181,0.9822537575341421,-0.12860303654535743,0.026916914625772392
1539731605783192,0.9798123140306707,-0.12726024261844815,0.023498893720912406
1539731605799203,0.9728542000457772,-0.12774853131914243,0.025818265049210254
1539731605815215,0.96748302433814,-0.12384222171358816,0.023620965896085977
1539731605831226,0.9677271686884872,-0.12091248950942246,0.025574120698863112
1539731605847237,0.9694361791409172,-0.11773861295490962,0.022156099794003126
1539731605863248,0.9732204165712979,-0.11969176775768675,0.025818265049210254
1539731605879260,0.9762722209506371,-0.1240863660639353,0.026062409399557396
1539731605895271,0.9784695201037614,-0.12738231479362172,0.025940337224383825
1539731605911282,0.9857938506141757,-0.13189898527504385,0.031311512932020946
1539731605927293,0.9911650263218128,-0.12689402609292744,0.03558403906309593
1539731605943305,0.9920195315480278,-0.12188906691081103,0.034851606012054503
1539731605959316,0.9911650263218128,-0.11944762340733961,0.03472953383688093
1539731605975327,0.9872587167162585,-0.11505302510109106,0.03582818341344307
1539731605991338,0.9883573662928207,-0.11004806591897465,0.03424124513618665
1539731606007350,0.9882352941176471,-0.10345616845960182,0.03460746166170736
1539731606023361,0.9861600671396964,-0.1001602197299154,0.03143358510719452
1539731606039372,0.9848172732127871,-0.1010147249561304,0.028747997253375956
1539731606055383,0.9839627679865721,-0.10504310673685824,0.03289845120927737
1539731606071395,0.9843289845120928,-0.10699626153963537,0.033630884260318794
1539731606087432,0.98970016021973,-0.11078049897001607,0.032410162508583085
1539731606103444,0.9964141298542764,-0.11859311818112461,0.029602502479590953
1539731606119455,0.9965362020294499,-0.11688410772869462,0.028870069428549527
1539731606135466,0.9917753871976807,-0.11712825207904176,0.02935835812924381
1539731606151477,0.9870145723659114,-0.11493095292591748,0.028870069428549527
1539731606167489,0.9843289845120928,-0.11175707637140464,0.028747997253375956
1539731606183500,0.9790798809796293,-0.11285572594796678,0.0252079041733424
1539731606199511,0.9711451895933472,-0.10785076676585037,0.02545204852368954
1539731606215522,0.9655298695353629,-0.10540932326237895,0.02679484245059882
1539731606231534,0.9643091477836272,-0.1098039215686275,0.031067368581673804
1539731606247545,0.9699244678416115,-0.11895933470664533,0.03216601815823594
1539731606263556,0.9722438391699093,-0.11993591210803389,0.03802548256656735
1539731606279567,0.9809109636072328,-0.12384222171358816,0.0357061112382695
1539731606295579,0.9859159227893493,-0.12384222171358816,0.03729304951552592
1539731606311590,0.9887235828183414,-0.12823682001983672,0.034973678187228074
1539731606327601,0.9842069123369193,-0.1316548409246967,0.03350881208514522
1539731606343612,0.9792019531548029,-0.13189898527504385,0.02667277027542525
1539731606359624,0.9778591592278936,-0.130434119172961,0.025574120698863112
1539731606375635,0.9792019531548029,-0.12762645914396886,0.020569161516746703
1539731606391646,0.9824979018844893,-0.12396429388876173,0.019714656290531707
1539731606407684,0.9800564583810178,-0.11712825207904176,0.018127718013275285
1539731606423695,0.9723659113450829,-0.11322194247348749,0.019104295414663852
1539731606439706,0.9680933852140079,-0.11029221026932179,0.018127718013275285
1539731606455718,0.9728542000457772,-0.11102464332036321,0.019226367589837423
1539731606471729,0.9834744792858778,-0.10943770504310679,0.020935378042267416
1539731606487740,0.9904325932707714,-0.10675211718928823,0.029724574654764524
1539731606503751,0.9945830472266728,-0.10650797283894109,0.02911421377889667
1539731606519763,1.0004425116350042,-0.11322194247348749,0.029602502479590953
1539731606535774,1.0004425116350042,-0.11383230334935535,0.029968719005111666
1539731606551785,0.9987335011825742,-0.10992599374380108,0.03155565728236809
1539731606567796,0.9950713359273671,-0.10565346761272609,0.03533989471274879
1539731606583808,0.9886015106431678,-0.10235751888303968,0.034851606012054503
1539731606599819,0.9796902418554971,-0.10235751888303968,0.03424124513618665
1539731606615830,0.9805447470817121,-0.10455481803616395,0.037537193865873064
1539731606631841,0.982009613183795,-0.10577553978789966,0.03595025558861664
1539731606647853,0.9875028610666057,-0.11004806591897465,0.03289845120927737
1539731606663864,0.9937285420004578,-0.1203021286335546,0.03472953383688093
1539731606679875,0.9939726863508049,-0.12347600518806745,0.035095750362401645
1539731606695886,0.9929961089494164,-0.12225528343633174,0.03436331731136022
1539731606711897,0.9917753871976807,-0.12042420080872818,0.029602502479590953
1539731606727935,0.9886015106431678,-0.11786068513008319,0.024597543297474544
1539731606743947,0.9846952010376135,-0.11847104600595104,0.026062409399557396
1539731606759958,0.9864042114900435,-0.12079041733424889,0.02423132677195383
1539731606775969,0.9848172732127871,-0.11786068513008319,0.021179522392614558
1539731606791980,0.9767605096513314,-0.11297779812314035,0.015930418860151008
1539731606807992,0.9716334782940415,-0.11480888075074391,0.015564202334630295
1539731606824003,0.9694361791409172,-0.11944762340733961,0.014221408407721015
1539731606840014,0.9680933852140079,-0.12164492256046389,0.016540779736018862
1539731606856025,0.9694361791409172,-0.12445258258945602,0.017761501487754572
1539731606872037,0.9738307774471657,-0.1249408712901503,0.01629663538567172
1539731606888048,0.9774929427023729,-0.12640573739223315,0.020569161516746703
1539731606904059,0.9812771801327536,-0.12542915999084459,0.02545204852368954
1539731606920070,0.9812771801327536,-0.12140077821011674,0.028137636377508102
1539731606936082,0.97944609750515,-0.1211566338597696,0.024841687647821686
1539731606952093,0.9827420462348364,-0.12103456168459603,0.02789349202716096
1539731606968104,0.9829861905851836,-0.11749446860456247,0.03167772945754166
1539731606984115,0.98628213931487,-0.1123674372472725,0.033752956435492365
1539731607000126,0.9892118715190357,-0.10968184939345393,0.034973678187228074
1539731607016138,0.9907988097962921,-0.11248950942244607,0.03717097734035235
1539731607032149,0.9929961089494164,-0.11468680857557034,0.03704890516517878
1539731607048217,0.9965362020294499,-0.10760662241550323,0.042786297398336615
1539731607064229,0.9988555733577478,-0.09942778667887398,0.04510566872663446
1539731607080241,0.9954375524528878,-0.10174715800717182,0.038757915617608774
1539731607096253,0.9916533150225071,-0.10614175631342038,0.03704890516517878
1539731607112264,0.9839627679865721,-0.10833905546654465,0.04058899824521234
1539731607128276,0.9859159227893493,-0.10785076676585037,0.03582818341344307
1539731607144288,0.9833524071107043,-0.10406652933546967,0.03265430685893023
1539731607160299,0.976882581826505,-0.10357824063477539,0.024597543297474544
1539731607176311,0.9740749217975129,-0.11041428244449536,0.019714656290531707
1539731607192323,0.9699244678416115,-0.1190814068818189,0.013488975356679589
1539731607208335,0.9701686121919586,-0.12542915999084459,0.01641870756084529
1539731607224346,0.9776150148775464,-0.12823682001983672,0.017883573662928143
1539731607240358,0.9881132219424735,-0.12396429388876173,0.016906996261539575
1539731607256370,0.9909208819714657,-0.11334401464866106,0.016662851911192433
1539731607272381,0.9918974593728542,-0.11334401464866106,0.01898222323949028
1539731607288393,0.9925078202487221,-0.11847104600595104,0.02020294499122599
1539731607304405,0.9892118715190357,-0.11676203555352105,0.024597543297474544
1539731607320417,0.9843289845120928,-0.10870527199206537,0.027527275501640247
1539731607336428,0.9824979018844893,-0.10504310673685824,0.02532997634851597
1539731607352440,0.9812771801327536,-0.10467689021133753,0.02410925459678026
1539731607368469,0.9746852826733807,-0.10321202410925467,0.029602502479590953
1539731607384481,0.96406500343328,-0.1060196841382468,0.03216601815823594
1539731607400492,0.9645532921339743,-0.11273365377279321,0.03692683299000521
1539731607416504,0.9744411383230336,-0.11859311818112461,0.037659266041046635
1539731607432516,0.9818875410086214,-0.11566338597695891,0.03997863736934448
1539731607448527,0.987136644541085,-0.11578545815213248,0.03741512169069949
1539731607464539,0.9870145723659114,-0.11139085984588393,0.04119935912108019
1539731607480551,0.9870145723659114,-0.1123674372472725,0.040344853894865196
1539731607496563,0.9903105210955978,-0.12005798428320746,0.03729304951552592
1539731607512574,0.9904325932707714,-0.12079041733424889,0.03448538948653379
1539731607528586,0.9855497062638285,-0.11285572594796678,0.03326466773479808
1539731607544598,0.9835965514610514,-0.10455481803616395,0.03692683299000521
1539731607560609,0.9865262836652171,-0.1018692301823454,0.03265430685893023
1539731607576621,0.9860379949645228,-0.1039444571602961,0.028381780727855244
1539731607592633,0.9849393453879607,-0.10431067368581681,0.026306553749904538
1539731607608645,0.98457312886244,-0.10235751888303968,0.02801556420233453
1539731607624656,0.9926298924238957,-0.10284580758373396,0.027527275501640247
1539731607640668,1.000808728160525,-0.10211337453269254,0.028503852903028815
1539731607656680,1.0059357595178149,-0.10333409628442825,0.02667277027542525
1539731607672691,1.013870450904097,-0.11090257114518964,0.019714656290531707
1539731607688720,1.0143587396047913,-0.1144426642252232,0.020691233691920274
1539731607704732,1.007034409094377,-0.10028229190508897,0.025085831998168828
1539731607720744,0.9938506141756314,-0.08441290913252475,0.029846646829938095
1539731607736755,0.9831082627603571,-0.07696650644693692,0.02777141985198739
1539731607752767,0.9748073548485543,-0.07940794995040834,0.027649347676813818
1539731607768779,0.9661402304112308,-0.08331425955596261,0.03399710078583951
1539731607784791,0.970901045243,-0.08807507438773188,0.03924620431830306
1539731607800802,0.9779812314030671,-0.09076066224155044,0.04364080262455161
1539731607816814,0.9818875410086214,-0.09478904402227828,0.04437323567559304
1539731607832826,0.9817654688334478,-0.10663004501411466,0.04254215304798947
1539731607848837,0.9815213244831007,-0.11883726253147175,0.046692607003890885
1539731607864849,0.9818875410086214,-0.12396429388876173,0.04058899824521234
1539731607880861,0.9823758297093157,-0.12921339742122528,0.04083314259555948
1539731607896873,0.9807888914320593,-0.12884718089570457,0.03851377126726163
1539731607912884,0.9778591592278936,-0.12530708781567101,0.034973678187228074
1539731607928896,0.9729762722209507,-0.1228656443121996,0.03033493553063238
1539731607944908,0.9690699626153965,-0.12079041733424889,0.0252079041733424
1539731607960919,0.96748302433814,-0.11798275730525676,0.02386511024643312
1539731607976931,0.968337529564355,-0.11004806591897465,0.02398718242160669
1539731607992943,0.9744411383230336,-0.10699626153963537,0.023010605020218122
1539731608008972,0.9783474479285879,-0.10528725108720538,0.020935378042267416
1539731608024984,0.9796902418554971,-0.10846112764171822,0.019714656290531707
1539731608040995,0.9792019531548029,-0.10809491111619751,0.02020294499122599
1539731608057007,0.9799343862058443,-0.10528725108720538,0.023010605020218122
1539731608073019,0.9827420462348364,-0.09771877622644398,0.020935378042267416
1539731608089030,0.9842069123369193,-0.09308003356984829,0.01605249103532458
1539731608105042,0.983718623636225,-0.09442282749675757,0.014465552758068156
1539731608121054,0.9813992523079271,-0.0980849927519647,0.020569161516746703
1539731608137066,0.97944609750515,-0.0955214770733197,0.02655069810025168
1539731608153077,0.9843289845120928,-0.09124895094224472,0.03070115205615309
1539731608169089,0.990554665445945,-0.09185931181811258,0.031067368581673804
1539731608185101,0.9918974593728542,-0.09308003356984829,0.03167772945754166
1539731608201112,0.9937285420004578,-0.09515526054779899,0.03741512169069949
1539731608217124,1.0017853055619135,-0.09784084840161755,0.03997863736934448
1539731608233136,1.004226749065385,-0.09967193102922112,0.04364080262455161
1539731608249148,1.0006866559853513,-0.0980849927519647,0.043030441748683756
1539731608265159,0.9965362020294499,-0.09832913710231184,0.04583810177767589
1539731608281171,0.9928740367742428,-0.09710841535057613,0.044251163500419466
1539731608297183,0.9910429541466392,-0.09906157015335326,0.042908369573510186
1539731608313194,0.9894560158693828,-0.0963759822995347,0.041687647821774476
1539731608329223,0.9873807888914321,-0.09771877622644398,0.043030441748683756
1539731608345235,0.9859159227893493,-0.09979400320439469,0.03839169909208806
1539731608361247,0.9838406958113985,-0.0993057145037004,0.03985656519417091
1539731608377258,0.9807888914320593,-0.10113679713130397,0.03546196688792236
1539731608393270,0.9788357366292821,-0.10528725108720538,0.03595025558861664
1539731608409282,0.97602807660029,-0.10931563286793322,0.031189440756847375
1539731608425294,0.9790798809796293,-0.11322194247348749,0.03326466773479808
1539731608441305,0.9866483558403907,-0.11493095292591748,0.028747997253375956
1539731608457317,0.9889677271686885,-0.11554131380178534,0.02777141985198739
1539731608473329,0.9866483558403907,-0.11578545815213248,0.028625925078202386
1539731608489340,0.9856717784390021,-0.11700617990386819,0.02789349202716096
1539731608505352,0.9848172732127871,-0.11175707637140464,0.026916914625772392
1539731608521364,0.9827420462348364,-0.10589761196307323,0.024719615472648115
1539731608537376,0.9799343862058443,-0.1001602197299154,0.023743038071259548
1539731608553387,0.975173571374075,-0.09698634317540256,0.026184481574730967
1539731608569399,0.9749294270237279,-0.09735255970092327,0.02801556420233453
1539731608585411,0.9784695201037614,-0.094300755321584,0.031067368581673804
1539731608601422,0.9849393453879607,-0.09356832227054257,0.03350881208514522
1539731608617434,0.9909208819714657,-0.09356832227054257,0.04083314259555948
1539731608633446,0.9970244907301442,-0.09845120927748541,0.04693675135423803
1539731608649444,0.9998321507591363,-0.0980849927519647,0.04718089570458517
1539731608665456,0.9993438620584421,-0.09845120927748541,0.04571602960250232
1539731608681468,0.9971465629053178,-0.10235751888303968,0.04693675135423803
1539731608697479,0.9929961089494164,-0.10370031280994896,0.048035400930800165
1539731608713491,0.9922636758983749,-0.10296787975890753,0.04180971999694805
1539731608729503,0.9881132219424735,-0.0980849927519647,0.040344853894865196
1539731608745514,0.9875028610666057,-0.09869535362783255,0.03558403906309593
1539731608761526,0.9895780880445564,-0.10174715800717182,0.032410162508583085
1539731608777538,0.9894560158693828,-0.1039444571602961,0.030945296406500233
1539731608793550,0.9932402532997635,-0.10089265278095683,0.0289921416037231
1539731608809561,0.9936064698252842,-0.09869535362783255,0.025696192874036683
1539731608825573,0.9961699855039292,-0.09564354924849328,0.026184481574730967
1539731608841585,0.9954375524528878,-0.09478904402227828,0.025696192874036683
1539731608857596,-0.27704280155642014,0.32953383688105564,0.10211337453269209
1539731608873608,1.2917067215991453,-0.4804150453955902,-0.17694361791409152
1539731608889620,1.1233691920347901,-0.20050354772259116,-0.008728160524910322
1539731608905632,1.070511940184634,-0.13092240787365528,-0.015930418860151008
1539731608921643,1.0635538261997404,-0.1190814068818189,0.019836728465705278
1539731608937655,1.0341344319829098,-0.045593957427328746,0.025085831998168828
1539731608953667,0.9868925001907378,-0.04644846265354374,-0.046692607003890885
1539731608969726,0.9483176928358894,-0.07672236209658978,-0.013977264057373873
1539731608985738,0.947585259784848,-0.08599984740978117,0.011535820553902454
1539731609001751,0.9572289616235601,-0.08392462043183047,0.0252079041733424
1539731609017763,0.9672388799877929,-0.05023270008392444,0.028503852903028815
1539731609033775,0.9761501487754636,-0.052063782711528006,0.029602502479590953
1539731609049787,0.987136644541085,-0.07415884641794479,0.03582818341344307
1539731609065799,0.9997100785839628,-0.09356832227054257,0.044251163500419466
1539731609081812,1.0072785534447242,-0.10235751888303968,0.052063782711528006
1539731609097824,1.0066681925688563,-0.10382238498512253,0.060975051499198685
1539731609113836,1.0047150377660792,-0.11419851987487606,0.06390478370336439
1539731609129848,1.0011749446860456,-0.12945754177157243,0.06146334019989297
1539731609145860,1.000198367284657,-0.14544899671931022,0.051941710536354435
1539731609161872,0.9978789959563592,-0.14276340886549166,0.050476844434271584
1539731609177885,0.9921416037232014,-0.13055619134813456,0.05145342183566015
1539731609193897,0.9857938506141757,-0.12298771648737317,0.05011062790875087
1539731609209909,0.9829861905851836,-0.12298771648737317,0.04742504005493231
1539731609225921,0.9831082627603571,-0.12518501564049744,0.045349813076981604
1539731609241933,0.9804226749065386,-0.11871519035629818,0.04180971999694805
1539731609257946,0.9805447470817121,-0.11004806591897465,0.03595025558861664
1539731609273958,0.9806668192568857,-0.10455481803616395,0.033630884260318794
1539731609289978,0.98115510795758,-0.10064850843060968,0.02801556420233453
1539731609305990,0.9796902418554971,-0.09845120927748541,0.02386511024643312
1539731609322002,0.9805447470817121,-0.10443274586099038,0.02252231631952384
1539731609338014,0.9827420462348364,-0.1047989623865111,0.02008087281605242
1539731609354026,0.98457312886244,-0.10418860151064324,0.01605249103532458
1539731609370039,0.9857938506141757,-0.10003814755474183,0.013488975356679589
1539731609386051,0.9868925001907378,-0.09405661097123685,0.009338521400778177
1539731609402063,0.9873807888914321,-0.09308003356984829,0.007263294422827471
1539731609418075,0.985427634088655,-0.09356832227054257,0.008239871824216038
1539731609434087,0.9849393453879607,-0.09100480659189758,0.010681315327687457
1539731609450100,0.9838406958113985,-0.0838025482566569,0.011657892729076025
1539731609466112,0.9817654688334478,-0.07989623865110262,0.014709697108415298
1539731609482124,0.9787136644541086,-0.07867551689936692,0.011902037079423167
1539731609498136,0.9795681696803236,-0.08477912565804546,0.016906996261539575
1539731609514148,0.9835965514610514,-0.09124895094224472,0.021179522392614558
1539731609530161,0.9895780880445564,-0.09332417792019543,0.023620965896085977
1539731609546173,0.9917753871976807,-0.09539940489814613,0.027527275501640247
1539731609562185,0.9945830472266728,-0.09784084840161755,0.03204394598306237
1539731609578197,0.9926298924238957,-0.1018692301823454,0.031189440756847375
1539731609594209,0.9923857480735485,-0.1060196841382468,0.03289845120927737
1539731609610260,0.9900663767452507,-0.10846112764171822,0.036316472114137355
1539731609626272,0.9867704280155642,-0.10919356069275965,0.037659266041046635
1539731609642284,0.9818875410086214,-0.10809491111619751,0.0424200808728159
1539731609658296,0.9816433966582743,-0.10467689021133753,0.04376287479972518
1539731609674308,0.9832303349355307,-0.10235751888303968,0.041687647821774476
1539731609690321,0.9823758297093157,-0.10431067368581681,0.045471885252155175
1539731609706333,0.983718623636225,-0.11139085984588393,0.04522774090180803
1539731609722345,0.9882352941176471,-0.11456473640039677,0.04229800869764233
1539731609738357,0.9895780880445564,-0.11285572594796678,0.04376287479972518
1539731609754369,0.9796902418554971,-0.10565346761272609,0.04376287479972518
1539731609770382,0.9745632104982072,-0.1068741893644618,0.03729304951552592
1539731609786394,0.9746852826733807,-0.11456473640039677,0.029724574654764524
1539731609802406,0.975173571374075,-0.12066834515907532,0.028747997253375956
1539731609818418,0.9749294270237279,-0.11810482948043033,0.0327763790341038
1539731609834430,0.9781033035782407,-0.11285572594796678,0.027649347676813818
1539731609850443,0.9806668192568857,-0.10809491111619751,0.024963759822995257
1539731609866455,0.980300602731365,-0.10614175631342038,0.023132677195391693
1539731609882467,0.9744411383230336,-0.10492103456168467,0.02008087281605242
1539731609898479,0.9699244678416115,-0.10504310673685824,0.02288853284504455
1539731609914491,0.9669947356374458,-0.10370031280994896,0.024841687647821686
1539731609930511,0.9677271686884872,-0.10345616845960182,0.02423132677195383
1539731609946523,0.9733424887464714,-0.10870527199206537,0.02545204852368954
1539731609962535,0.9839627679865721,-0.1152971694514382,0.027527275501640247
1539731609978548,0.9907988097962921,-0.11700617990386819,0.029480430304417382
1539731609994560,0.9925078202487221,-0.11346608682383463,0.032410162508583085
1539731610010572,0.9977569237811856,-0.11041428244449536,0.032532234683756656
1539731610026584,0.9960479133287556,-0.10748455024032966,0.027649347676813818
1539731610042596,0.9912870984969864,-0.10321202410925467,0.03204394598306237
1539731610058609,0.983718623636225,-0.09820706492713827,0.03595025558861664
1539731610074621,0.9810330357824064,-0.09308003356984829,0.03717097734035235
1539731610090633,0.9789578088044557,-0.09112687876707115,0.040100709544518054
1539731610106645,0.9788357366292821,-0.09015030136568258,0.040222781719691625
1539731610122657,0.9829861905851836,-0.09356832227054257,0.04364080262455161
1539731610138670,0.9878690775921264,-0.10138094148165111,0.04364080262455161
1539731610154682,0.9967803463797971,-0.10675211718928823,0.042908369573510186
1539731610170694,1.0012970168612192,-0.11273365377279321,0.04364080262455161
1539731610186706,1.0028839551384756,-0.11383230334935535,0.04095521477073305
1539731610202718,0.9992217898832685,-0.11395437552452892,0.04193179217212162
1539731610218731,0.9958037689784085,-0.11432059205004963,0.03839169909208806
1539731610234743,0.990554665445945,-0.11297779812314035,0.03558403906309593
1539731610250763,0.9835965514610514,-0.10894941634241251,0.032532234683756656
1539731610266775,0.98115510795758,-0.10833905546654465,0.031189440756847375
1539731610282787,0.9832303349355307,-0.10577553978789966,0.035217822537575216
1539731610298799,0.9868925001907378,-0.10736247806515609,0.03533989471274879
1539731610314811,0.9868925001907378,-0.10833905546654465,0.036316472114137355
1539731610330824,0.9864042114900435,-0.10797283894102394,0.03314259555962451
1539731610346836,0.9832303349355307,-0.10870527199206537,0.032410162508583085
1539731610362848,0.9807888914320593,-0.1098039215686275,0.035095750362401645
1539731610378860,0.9798123140306707,-0.1106584267948425,0.037659266041046635
1539731610394872,0.9782253757534143,-0.10748455024032966,0.03607232776379021
1539731610410884,0.97431906614786,-0.10833905546654465,0.032532234683756656
1539731610426897,0.9762722209506371,-0.11285572594796678,0.03399710078583951
1539731610442909,0.9826199740596628,-0.1173723964293889,0.03741512169069949
1539731610458921,0.9894560158693828,-0.11810482948043033,0.03924620431830306
1539731610474933,0.9918974593728542,-0.11383230334935535,0.036438544289310926
1539731610490945,0.9877470054169528,-0.11248950942244607,0.03314259555962451
1539731610506958,0.9866483558403907,-0.11541924162661177,0.03289845120927737
1539731610522970,0.9878690775921264,-0.11810482948043033,0.036438544289310926
1539731610538982,0.9879911497673,-0.11554131380178534,0.034851606012054503
1539731610554994,0.988845654993515,-0.10907148851758608,0.03704890516517878
1539731610571014,0.9912870984969864,-0.10565346761272609,0.03717097734035235
1539731610587026,0.9894560158693828,-0.10321202410925467,0.036316472114137355
1539731610603038,0.9875028610666057,-0.10211337453269254,0.03582818341344307
1539731610619051,0.9884794384679942,-0.10162508583199825,0.03399710078583951
1539731610635063,0.9923857480735485,-0.09857328145265898,0.03729304951552592
1539731610651075,0.9928740367742428,-0.09381246662088971,0.03704890516517878
1539731610667087,0.9926298924238957,-0.09478904402227828,0.037659266041046635
1539731610683099,0.99140917067216,-0.09478904402227828,0.040222781719691625
1539731610699112,0.9882352941176471,-0.10077058060578326,0.03839169909208806
1539731610715124,0.9875028610666057,-0.10296787975890753,0.038879987792782345
1539731610731136,0.9831082627603571,-0.10540932326237895,0.03741512169069949
1539731610747148,0.9856717784390021,-0.10809491111619751,0.039124132143129486
1539731610763160,0.9846952010376135,-0.11126878767071036,0.036438544289310926
1539731610779173,0.9810330357824064,-0.1115129320210575,0.03595025558861664
1539731610795185,0.9793240253299764,-0.11371023117418178,0.033752956435492365
1539731610811197,0.9774929427023729,-0.11419851987487606,0.03326466773479808
1539731610827209,0.9756618600747693,-0.11212329289692535,0.031189440756847375
1539731610843221,0.9716334782940415,-0.11053635461966893,0.033630884260318794
1539731610859233,0.97602807660029,-0.11175707637140464,0.034851606012054503
1539731610875246,0.9826199740596628,-0.11322194247348749,0.03314259555962451
1539731610891265,0.9834744792858778,-0.10955977721828036,0.03216601815823594
1539731610907278,0.9842069123369193,-0.1098039215686275,0.03143358510719452
1539731610923290,0.9816433966582743,-0.10968184939345393,0.037659266041046635
1539731610939302,0.9818875410086214,-0.10736247806515609,0.03790341039139378
1539731610955314,0.9793240253299764,-0.10296787975890753,0.03668268863965807
1539731610971326,0.97944609750515,-0.10370031280994896,0.03216601815823594
1539731610987339,0.9824979018844893,-0.10492103456168467,0.029480430304417382
1539731611003351,0.9796902418554971,-0.10675211718928823,0.031311512932020946
1539731611019363,0.9795681696803236,-0.1030899519340811,0.03460746166170736
1539731611035375,0.9831082627603571,-0.10113679713130397,0.03350881208514522
1539731611051387,0.9884794384679942,-0.10296787975890753,0.028503852903028815
1539731611067400,0.9909208819714657,-0.10589761196307323,0.027649347676813818
1539731611083412,0.9922636758983749,-0.10785076676585037,0.031189440756847375
1539731611099424,0.9940947585259785,-0.10516517891203181,0.0357061112382695
1539731611115436,0.9950713359273671,-0.10235751888303968,0.03851377126726163
1539731611131448,0.9949492637521935,-0.10211337453269254,0.03692683299000521
1539731611147461,0.9932402532997635,-0.10040436408026254,0.037659266041046635
1539731611163473,0.9894560158693828,-0.09869535362783255,0.037781338216220206
1539731611179485,0.9855497062638285,-0.09759670405127041,0.04095521477073305
1539731611195497,0.9861600671396964,-0.09747463187609684,0.04193179217212162
1539731611211517,0.9851834897383078,-0.09796292057679112,0.04315251392385733
1539731611227529,0.9877470054169528,-0.1010147249561304,0.04376287479972518
1539731611243541,0.9873807888914321,-0.10272373540856039,0.042786297398336615
1539731611259554,0.9855497062638285,-0.10577553978789966,0.04217593652246876
1539731611275566,0.9834744792858778,-0.10833905546654465,0.04107728694590662
1539731611291578,0.9824979018844893,-0.11114671549553679,0.03985656519417091
1539731611307590,0.9798123140306707,-0.11139085984588393,0.039124132143129486
1539731611323602,0.9783474479285879,-0.11285572594796678,0.03472953383688093
1539731611339614,0.9783474479285879,-0.11468680857557034,0.03424124513618665
1539731611355627,0.9782253757534143,-0.11810482948043033,0.02911421377889667
1539731611371639,0.9759060044251164,-0.11798275730525676,0.026916914625772392
1539731611387651,0.9784695201037614,-0.11248950942244607,0.024475471122300974
1539731611403663,0.97602807660029,-0.10907148851758608,0.02386511024643312
1539731611419675,0.9728542000457772,-0.10907148851758608,0.023132677195391693
1539731611435688,0.9711451895933472,-0.11285572594796678,0.022156099794003126
1539731611451700,0.9754177157244222,-0.11419851987487606,0.02923628595407024
1539731611467712,0.9823758297093157,-0.11456473640039677,0.032532234683756656
1539731611483724,0.9868925001907378,-0.10846112764171822,0.033752956435492365
1539731611499736,0.9890897993438621,-0.10748455024032966,0.03448538948653379
1539731611515749,0.9915312428473335,-0.10675211718928823,0.034851606012054503
1539731611531768,0.9931181811245899,-0.10821698329137108,0.040222781719691625
1539731611547781,0.9951934081025406,-0.1039444571602961,0.03961242084382377
1539731611563793,0.9942168307011521,-0.0980849927519647,0.04046692607003877
1539731611579805,0.9901884489204242,-0.09454489967193114,0.03973449301899734
1539731611595817,0.9887235828183414,-0.09503318837262542,0.042908369573510186
1539731611611829,0.9886015106431678,-0.09710841535057613,0.04058899824521234
1539731611627842,0.9901884489204242,-0.09698634317540256,0.04315251392385733
1539731611643854,0.9904325932707714,-0.0980849927519647,0.04339665827420447
1539731611659866,0.99140917067216,-0.09942778667887398,0.03790341039139378
1539731611675878,0.9927519645990692,-0.10614175631342038,0.03839169909208806
1539731611691890,0.9945830472266728,-0.11053635461966893,0.03924620431830306
1539731611707903,0.9929961089494164,-0.11200122072175178,0.0386358434424352
1539731611723915,0.9928740367742428,-0.11200122072175178,0.036316472114137355
1539731611739927,0.9895780880445564,-0.10992599374380108,0.03436331731136022
1539731611755939,0.9853055619134814,-0.1098039215686275,0.03607232776379021
1539731611771951,0.9816433966582743,-0.11041428244449536,0.032532234683756656
1539731611787963,0.9792019531548029,-0.10540932326237895,0.03338673990997165
1539731611803976,0.9765163653009843,-0.10284580758373396,0.03167772945754166
1539731611819988,0.9795681696803236,-0.10504310673685824,0.029724574654764524
1539731611836000,0.9801785305561914,-0.1098039215686275,0.02923628595407024
1539731611852050,0.9818875410086214,-0.11187914854657821,0.028870069428549527
1539731611868063,0.9812771801327536,-0.11078049897001607,0.03216601815823594
1539731611884075,0.9789578088044557,-0.1115129320210575,0.030212863355458808
1539731611900087,0.9798123140306707,-0.11456473640039677,0.028747997253375956
1539731611916099,0.98115510795758,-0.11578545815213248,0.030212863355458808
1539731611932111,0.9782253757534143,-0.11285572594796678,0.03143358510719452
1539731611948124,0.978591592278935,-0.11248950942244607,0.03033493553063238
1539731611964136,0.9795681696803236,-0.11053635461966893,0.03057907988097952
1539731611980148,0.9778591592278936,-0.10736247806515609,0.03338673990997165
1539731611996160,0.9805447470817121,-0.10443274586099038,0.033875028610665936
1539731612012172,0.9799343862058443,-0.1039444571602961,0.03204394598306237
1539731612028185,0.983718623636225,-0.10247959105821325,0.03314259555962451
1539731612044197,0.9855497062638285,-0.09954985885404755,0.03460746166170736
1539731612060209,0.9850614175631343,-0.09710841535057613,0.036316472114137355
1539731612076221,0.9844510566872664,-0.10003814755474183,0.029846646829938095
1539731612092233,0.9861600671396964,-0.10260166323338682,0.03143358510719452
1539731612108245,0.9906767376211185,-0.10663004501411466,0.03350881208514522
1539731612124258,0.9932402532997635,-0.10626382848859395,0.035217822537575216
1539731612140270,0.9950713359273671,-0.10357824063477539,0.030823224231326662
1539731612156282,0.9945830472266728,-0.10064850843060968,0.03216601815823594
1539731612172271,0.9890897993438621,-0.09991607537956826,0.03179980163271523
1539731612188284,0.9840848401617457,-0.10138094148165111,0.03326466773479808
1539731612204296,0.9826199740596628,-0.10235751888303968,0.03314259555962451
1539731612220308,0.9813992523079271,-0.10260166323338682,0.029968719005111666
1539731612236320,0.9804226749065386,-0.10296787975890753,0.029602502479590953
1539731612252332,0.9787136644541086,-0.10418860151064324,0.03326466773479808
1539731612268345,0.9813992523079271,-0.10663004501411466,0.032532234683756656
1539731612284357,0.9806668192568857,-0.10638590066376752,0.03265430685893023
1539731612300369,0.9787136644541086,-0.1098039215686275,0.032288090333409514
1539731612316381,0.9789578088044557,-0.1152971694514382,0.03448538948653379
1539731612332393,0.9790798809796293,-0.11725032425421533,0.03558403906309593
1539731612348405,0.9810330357824064,-0.11676203555352105,0.037659266041046635
1539731612364418,0.9850614175631343,-0.11712825207904176,0.036438544289310926
1539731612380430,0.9840848401617457,-0.11676203555352105,0.03314259555962451
1539731612396442,0.9787136644541086,-0.11676203555352105,0.035217822537575216
1539731612412454,0.9761501487754636,-0.11285572594796678,0.034851606012054503
1539731612428466,0.9783474479285879,-0.10907148851758608,0.03582818341344307
1539731612444479,0.9806668192568857,-0.10406652933546967,0.034851606012054503
1539731612460491,0.9849393453879607,-0.1047989623865111,0.03033493553063238
1539731612476503,0.9859159227893493,-0.10467689021133753,0.028625925078202386
1539731612492553,0.9889677271686885,-0.10455481803616395,0.0319218738078888
1539731612508566,0.9894560158693828,-0.10199130235751896,0.03411917296101308
1539731612524578,0.98970016021973,-0.10064850843060968,0.029846646829938095
1539731612540590,0.9922636758983749,-0.09918364232852683,0.028625925078202386
1539731612556602,0.9915312428473335,-0.09710841535057613,0.032410162508583085
1539731612572614,0.9929961089494164,-0.09308003356984829,0.03533989471274879
1539731612588626,0.9982452124818799,-0.09185931181811258,0.041687647821774476
1539731612604639,1.0014190890363928,-0.08929579613946759,0.04449530785076661
1539731612620651,1.003616388189517,-0.08526741435873975,0.04730296787975874
1539731612636663,1.0052033264667735,-0.08136110475318548,0.05145342183566015
1539731612652675,1.0075226977950713,-0.08026245517662334,0.04986648355840373
1539731612668687,1.0115510795757992,-0.08709849698634331,0.044129091325245895
1539731612684700,1.0099641412985427,-0.09320210574502186,0.04315251392385733
1539731612700712,1.004470893415732,-0.094300755321584,0.04510566872663446
1539731612716724,0.9951934081025406,-0.09332417792019543,0.04217593652246876
1539731612732736,0.9866483558403907,-0.08868543526359973,0.036194399938963784
1539731612748748,0.9770046540016786,-0.09088273441672401,0.03314259555962451
1539731612764761,0.9680933852140079,-0.09869535362783255,0.028747997253375956
1539731612780773,0.9689478904402229,-0.10955977721828036,0.03155565728236809
1539731612796785,0.9729762722209507,-0.10882734416723894,0.033752956435492365
1539731612812805,0.9779812314030671,-0.1039444571602961,0.03326466773479808
1539731612828817,0.978591592278935,-0.10296787975890753,0.029602502479590953
1539731612844829,0.9749294270237279,-0.11017013809414822,0.027405203326466676
1539731612860841,0.9735866330968186,-0.11969176775768675,0.027649347676813818
1539731612876854,0.9722438391699093,-0.1211566338597696,0.02923628595407024
1539731612892866,0.9711451895933472,-0.11663996337834748,0.025574120698863112
1539731612908878,0.9678492408636608,-0.1123674372472725,0.02642862592507811
1539731612924890,0.96577401388571,-0.11212329289692535,0.02398718242160669
1539731612940902,0.9647974364843215,-0.10821698329137108,0.02679484245059882
1539731612956915,0.9669947356374458,-0.10638590066376752,0.028137636377508102
1539731612972927,0.9706569008926529,-0.10077058060578326,0.028625925078202386
1539731612988939,0.9721217669947357,-0.10028229190508897,0.03704890516517878
1539731613004951,0.9784695201037614,-0.09967193102922112,0.03973449301899734
1539731613020963,0.9855497062638285,-0.09698634317540256,0.042786297398336615
1539731613036975,0.9889677271686885,-0.09405661097123685,0.04449530785076661
1539731613052988,0.9925078202487221,-0.0980849927519647,0.04510566872663446
1539731613069000,0.9973907072556649,-0.09649805447470827,0.04730296787975874
1539731613085012,0.9981231403067063,-0.0905165178912033,0.05011062790875087
1539731613101024,0.9951934081025406,-0.08136110475318548,0.04852368963149445
1539731613117036,0.9933623254749371,-0.07806515602349906,0.0424200808728159
1539731613133056,0.9894560158693828,-0.08282597085526833,0.0365606164644845
1539731613149068,0.9877470054169528,-0.08746471351186402,0.04119935912108019
1539731613165081,0.9866483558403907,-0.0867322804608226,0.042664225223163044
1539731613181093,0.988845654993515,-0.08136110475318548,0.040100709544518054
1539731613197105,0.9901884489204242,-0.08258182650492119,0.036194399938963784
1539731613213117,0.9928740367742428,-0.09112687876707115,0.031067368581673804
1539731613229129,0.9910429541466392,-0.09491111619745185,0.03472953383688093
1539731613245142,0.9861600671396964,-0.09674219882505541,0.0365606164644845
1539731613261154,0.98286411841001,-0.09747463187609684,0.03302052338445094
1539731613277166,0.98286411841001,-0.10064850843060968,0.029968719005111666
1539731613293178,0.987136644541085,-0.1060196841382468,0.028381780727855244
1539731613309190,0.9821316853589686,-0.10736247806515609,0.03326466773479808
1539731613325203,0.9809109636072328,-0.10528725108720538,0.03546196688792236
1539731613341215,0.9799343862058443,-0.10199130235751896,0.03350881208514522
1539731613357227,0.9806668192568857,-0.10113679713130397,0.03460746166170736
1539731613373239,0.9822537575341421,-0.10052643625543611,0.03399710078583951
1539731613389251,0.98628213931487,-0.10211337453269254,0.03790341039139378
1539731613405264,0.9878690775921264,-0.09698634317540256,0.03680476081483164
1539731613421276,0.9859159227893493,-0.09295796139467472,0.03704890516517878
1539731613437288,0.9798123140306707,-0.09222552834363329,0.037537193865873064
1539731613453308,0.97944609750515,-0.09832913710231184,0.03704890516517878
1539731613469320,0.9824979018844893,-0.10406652933546967,0.0365606164644845
1539731613485332,0.9875028610666057,-0.10113679713130397,0.041565575646600905
1539731613501344,0.9916533150225071,-0.09674219882505541,0.040222781719691625
1539731613517356,0.9927519645990692,-0.0963759822995347,0.03582818341344307
1539731613533369,0.9929961089494164,-0.10125886930647754,0.03802548256656735
1539731613549381,0.9910429541466392,-0.09979400320439469,0.0394903486686502
1539731613565393,0.990554665445945,-0.09759670405127041,0.035095750362401645
1539731613581405,0.9901884489204242,-0.09015030136568258,0.03460746166170736
1539731613597417,0.9887235828183414,-0.08709849698634331,0.03326466773479808
1539731613613430,0.9865262836652171,-0.08783093003738474,0.03314259555962451
1539731613629442,0.9826199740596628,-0.08770885786221116,0.03265430685893023
1539731613645454,0.9821316853589686,-0.08844129091325259,0.03155565728236809
1539731613661466,0.9831082627603571,-0.08953994048981473,0.030090791180285237
1539731613677478,0.9806668192568857,-0.09112687876707115,0.03350881208514522
1539731613693491,0.9816433966582743,-0.1001602197299154,0.03839169909208806
1539731613709503,0.9861600671396964,-0.10736247806515609,0.03961242084382377
1539731613725515,0.9889677271686885,-0.1098039215686275,0.0386358434424352
1539731613741527,0.9916533150225071,-0.10589761196307323,0.037659266041046635
1539731613757539,0.9898222323949035,-0.10272373540856039,0.040344853894865196
1539731613773559,0.9900663767452507,-0.10357824063477539,0.04132143129625376
1539731613789571,0.98628213931487,-0.10199130235751896,0.037781338216220206
1539731613805584,0.9839627679865721,-0.09954985885404755,0.03692683299000521
1539731613821596,0.9822537575341421,-0.0963759822995347,0.034851606012054503
1539731613837608,0.9796902418554971,-0.09295796139467472,0.036316472114137355
1539731613853620,0.9754177157244222,-0.09222552834363329,0.03668268863965807
1539731613869632,0.9754177157244222,-0.09283588921950114,0.033752956435492365
1539731613885645,0.9756618600747693,-0.09503318837262542,0.03411917296101308
1539731613901657,0.978591592278935,-0.09710841535057613,0.0357061112382695
1539731613917669,0.983718623636225,-0.10003814755474183,0.03436331731136022
1539731613933681,0.9864042114900435,-0.10455481803616395,0.029480430304417382
1539731613949693,0.9882352941176471,-0.10797283894102394,0.03265430685893023
1539731613965705,0.9916533150225071,-0.11261158159761964,0.02911421377889667
1539731613981718,0.9943389028763256,-0.10968184939345393,0.027038986800945963
1539731613997730,0.9986114290074006,-0.10663004501411466,0.025940337224383825
1539731614013742,0.9976348516060121,-0.09600976577401399,0.02642862592507811
1539731614029754,0.9868925001907378,-0.08526741435873975,0.03155565728236809
1539731614045766,0.9842069123369193,-0.08477912565804546,0.03436331731136022
1539731614061779,0.9870145723659114,-0.08526741435873975,0.03326466773479808
1539731614077791,0.9939726863508049,-0.08441290913252475,0.034851606012054503
1539731614093811,0.9945830472266728,-0.07379262989242408,0.037537193865873064
1539731614109823,0.9860379949645228,-0.07122911421377909,0.04351873044937804
1539731614125835,0.9710231174181736,-0.07953002212558191,0.04608224612802303
1539731614141847,0.9615014877546351,-0.09381246662088971,0.04583810177767589
1539731614157859,0.9673609521629665,-0.10540932326237895,0.045593957427328746
1539731614173872,0.9787136644541086,-0.1115129320210575,0.042664225223163044
1539731614189884,0.988845654993515,-0.11432059205004963,0.0462043183031966
1539731614205896,0.9921416037232014,-0.11993591210803389,0.04437323567559304
1539731614221908,0.9917753871976807,-0.12518501564049744,0.039124132143129486
1539731614237920,0.9918974593728542,-0.1299458304722667,0.03399710078583951
1539731614253933,0.9922636758983749,-0.13153276874952313,0.030090791180285237
1539731614269945,0.9901884489204242,-0.12042420080872818,0.028747997253375956
1539731614285957,0.9831082627603571,-0.10724040588998252,0.02667277027542525
1539731614301969,0.9732204165712979,-0.09893949797817969,0.02130159456778813
1539731614317981,0.9689478904402229,-0.09515526054779899,0.01886015106431671
1539731614333994,0.9667505912870986,-0.09002822919050901,0.021667811093308842
1539731614350006,0.9671168078126193,-0.08392462043183047,0.025696192874036683
1539731614366018,0.9729762722209507,-0.0812390325780119,0.03143358510719452
1539731614382030,0.9824979018844893,-0.08685435263599617,0.03033493553063238
1539731614398042,0.9933623254749371,-0.09381246662088971,0.031311512932020946
1539731614414062,0.9993438620584421,-0.09600976577401399,0.036438544289310926
1539731614430074,1.00166323338674,-0.09796292057679112,0.040100709544518054
1539731614446087,1.006179903868162,-0.09881742580300612,0.041687647821774476
1539731614462099,1.007034409094377,-0.09918364232852683,0.04095521477073305
1539731614478111,1.00337224383917,-0.09539940489814613,0.0432745860990309
1539731614494123,0.9959258411535821,-0.09185931181811258,0.04254215304798947
1539731614510135,0.9933623254749371,-0.09320210574502186,0.04351873044937804
1539731614526147,0.990554665445945,-0.09369039444571614,0.041565575646600905
1539731614542160,0.9894560158693828,-0.09222552834363329,0.04229800869764233
1539731614558172,0.9866483558403907,-0.09466697184710471,0.04132143129625376
1539731614574184,0.9843289845120928,-0.09735255970092327,0.038757915617608774
1539731614590196,0.985427634088655,-0.10406652933546967,0.03692683299000521
1539731614606208,0.9859159227893493,-0.10907148851758608,0.03350881208514522
1539731614622221,0.9832303349355307,-0.1115129320210575,0.03424124513618665
1539731614638233,0.9824979018844893,-0.11725032425421533,0.032532234683756656
1539731614654245,0.9844510566872664,-0.11566338597695891,0.028259708552681673
1539731614670257,0.98457312886244,-0.11248950942244607,0.025818265049210254
1539731614686269,0.9812771801327536,-0.10821698329137108,0.026306553749904538
1539731614702282,0.9763942931258107,-0.10492103456168467,0.02130159456778813
1539731614718294,0.9735866330968186,-0.1022354467078661,0.022156099794003126
1539731614734314,0.9711451895933472,-0.09735255970092327,0.02667277027542525
1539731614750326,0.971755550469215,-0.09381246662088971,0.0319218738078888
1539731614766338,0.9750514991989014,-0.09405661097123685,0.028870069428549527
1539731614782350,0.978591592278935,-0.09735255970092327,0.026062409399557396
1539731614798362,0.975173571374075,-0.09954985885404755,0.03045700770580595
1539731614814375,0.9732204165712979,-0.10492103456168467,0.035095750362401645
1539731614830387,0.9813992523079271,-0.10870527199206537,0.03924620431830306
1539731614846399,0.9951934081025406,-0.11139085984588393,0.03595025558861664
1539731614862411,1.0045929655909056,-0.10894941634241251,0.03582818341344307
1539731614878423,1.0069123369192035,-0.10516517891203181,0.03546196688792236
1539731614894436,1.0032501716639963,-0.10162508583199825,0.0357061112382695
1539731614910448,0.9981231403067063,-0.09674219882505541,0.032288090333409514
1539731614926460,0.9907988097962921,-0.08661020828564903,0.03448538948653379
1539731614942472,0.9884794384679942,-0.08538948653391332,0.03338673990997165
1539731614958484,0.9842069123369193,-0.08477912565804546,0.031311512932020946
1539731614974496,0.9829861905851836,-0.08490119783321903,0.03204394598306237
1539731614990509,0.9817654688334478,-0.08722056916151688,0.03338673990997165
1539731615006521,0.9801785305561914,-0.08892957961394687,0.03668268863965807
1539731615022533,0.9848172732127871,-0.09393453879606328,0.03558403906309593
1539731615038545,0.9894560158693828,-0.09832913710231184,0.03717097734035235
1539731615054626,0.9894560158693828,-0.10174715800717182,0.037537193865873064
1539731615070639,0.9901884489204242,-0.10577553978789966,0.0365606164644845
1539731615086651,0.9918974593728542,-0.10919356069275965,0.0357061112382695
1539731615102664,0.9950713359273671,-0.11041428244449536,0.03070115205615309
1539731615118677,0.9910429541466392,-0.10968184939345393,0.03179980163271523
1539731615134689,0.98286411841001,-0.10894941634241251,0.03057907988097952
1539731615150702,0.9759060044251164,-0.10748455024032966,0.030090791180285237
1539731615166715,0.9724879835202564,-0.10492103456168467,0.02642862592507811
1539731615182727,0.970046540016785,-0.09625391012436113,0.024719615472648115
1539731615198740,0.9702906843671322,-0.09674219882505541,0.02777141985198739
1539731615214753,0.9765163653009843,-0.10113679713130397,0.028747997253375956
1539731615230765,0.9806668192568857,-0.10162508583199825,0.02923628595407024
1539731615246778,0.9772487983520257,-0.10162508583199825,0.02545204852368954
1539731615262791,0.9790798809796293,-0.10382238498512253,0.024963759822995257
1539731615278803,0.9754177157244222,-0.10540932326237895,0.0289921416037231
1539731615294816,0.9744411383230336,-0.10589761196307323,0.031189440756847375
1539731615310829,0.9716334782940415,-0.10418860151064324,0.03033493553063238
1539731615326841,0.9712672617685207,-0.10247959105821325,0.028137636377508102
1539731615342854,0.9767605096513314,-0.10882734416723894,0.027161058976119534
1539731615358867,0.9817654688334478,-0.10675211718928823,0.03216601815823594
1539731615374878,0.9865262836652171,-0.10516517891203181,0.0365606164644845
1539731615390890,0.9953154802777142,-0.10003814755474183,0.036194399938963784
1539731615406903,1.004226749065385,-0.09784084840161755,0.03546196688792236
1539731615422916,1.0094758525978484,-0.09564354924849328,0.03057907988097952
1539731615438928,1.0110627908751049,-0.09515526054779899,0.03546196688792236
1539731615454941,1.003616388189517,-0.092591744869154,0.03533989471274879
1539731615470954,0.9909208819714657,-0.08697642481116974,0.03314259555962451
1539731615486966,0.9824979018844893,-0.08331425955596261,0.03314259555962451
1539731615502979,0.9801785305561914,-0.0867322804608226,0.03314259555962451
1539731615518992,0.9867704280155642,-0.09198138399328615,0.03436331731136022
1539731615535004,0.9933623254749371,-0.09417868314641042,0.04046692607003877
1539731615551017,0.9929961089494164,-0.09234760051880686,0.044129091325245895
1539731615567030,0.9954375524528878,-0.09295796139467472,0.042786297398336615
1539731615583042,0.9949492637521935,-0.09466697184710471,0.04119935912108019
1539731615599055,0.9954375524528878,-0.09649805447470827,0.045349813076981604
1539731615615068,0.9910429541466392,-0.09564354924849328,0.04522774090180803
1539731615631080,0.9866483558403907,-0.09137102311741829,0.04132143129625376
1539731615647093,0.9843289845120928,-0.093446250095369,0.035217822537575216
1539731615663106,0.9839627679865721,-0.09869535362783255,0.03265430685893023
1539731615679118,0.9813992523079271,-0.09942778667887398,0.030212863355458808
1539731615695129,0.9787136644541086,-0.10077058060578326,0.027405203326466676
1539731615711142,0.9715114061188679,-0.10528725108720538,0.027649347676813818
1539731615727154,0.9732204165712979,-0.11212329289692535,0.02777141985198739
1539731615743167,0.9761501487754636,-0.11407644769970249,0.026184481574730967
1539731615759180,0.9821316853589686,-0.11297779812314035,0.02410925459678026
1539731615775192,0.9860379949645228,-0.11126878767071036,0.02911421377889667
1539731615791205,0.9867704280155642,-0.11187914854657821,0.03179980163271523
1539731615807218,0.988845654993515,-0.11175707637140464,0.03350881208514522
1539731615823230,0.9915312428473335,-0.10821698329137108,0.032410162508583085
1539731615839243,0.9881132219424735,-0.09906157015335326,0.03314259555962451
1539731615855256,0.9843289845120928,-0.09356832227054257,0.037781338216220206
1539731615871268,0.9846952010376135,-0.09491111619745185,0.037659266041046635
1539731615887281,0.9864042114900435,-0.09625391012436113,0.039124132143129486
1539731615903294,0.9850614175631343,-0.09674219882505541,0.03924620431830306
1539731615919306,0.9876249332417792,-0.0972304875257497,0.039124132143129486
1539731615935319,0.9875028610666057,-0.0955214770733197,0.040222781719691625
1539731615951332,0.9856717784390021,-0.09832913710231184,0.037659266041046635
1539731615967344,0.98628213931487,-0.10003814755474183,0.038757915617608774
1539731615983357,0.988845654993515,-0.10370031280994896,0.04119935912108019
1539731615999370,0.9922636758983749,-0.10211337453269254,0.04046692607003877
1539731616015380,0.9942168307011521,-0.09710841535057613,0.03704890516517878
1539731616031393,0.9945830472266728,-0.09442282749675757,0.03448538948653379
1539731616047406,0.9904325932707714,-0.09210345616845972,0.03472953383688093
1539731616063418,0.9860379949645228,-0.09234760051880686,0.028870069428549527
1539731616079431,0.9838406958113985,-0.09320210574502186,0.02935835812924381
1539731616095444,0.9813992523079271,-0.09149309529259186,0.027283131151293105
1539731616111456,0.9823758297093157,-0.08978408484016187,0.0252079041733424
1539731616127469,0.9824979018844893,-0.09076066224155044,0.02252231631952384
1539731616143482,0.9792019531548029,-0.09466697184710471,0.02288853284504455
1539731616159495,0.9749294270237279,-0.10174715800717182,0.0252079041733424
1539731616175507,0.9798123140306707,-0.11017013809414822,0.02935835812924381
1539731616191520,0.9890897993438621,-0.11248950942244607,0.0319218738078888
1539731616207533,0.9907988097962921,-0.10357824063477539,0.034851606012054503
1539731616223545,0.9900663767452507,-0.10150301365682468,0.032288090333409514
1539731616239558,0.9868925001907378,-0.10382238498512253,0.03155565728236809
1539731616255571,0.9801785305561914,-0.10565346761272609,0.03326466773479808
1539731616271583,0.9732204165712979,-0.10284580758373396,0.030823224231326662
1539731616287596,0.9750514991989014,-0.09918364232852683,0.029968719005111666
1539731616303609,0.9798123140306707,-0.09588769359884042,0.0319218738078888
1539731616319621,0.9842069123369193,-0.09588769359884042,0.030212863355458808
1539731616335632,0.9889677271686885,-0.0993057145037004,0.03411917296101308
1539731616351645,0.9928740367742428,-0.1018692301823454,0.03692683299000521
1539731616367657,0.9934843976501107,-0.09649805447470827,0.03790341039139378
1539731616383670,0.9961699855039292,-0.09600976577401399,0.03839169909208806
1539731616399683,0.9966582742046235,-0.09564354924849328,0.04229800869764233
1539731616415695,0.9992217898832685,-0.09845120927748541,0.04229800869764233
1539731616431708,1.0009308003356985,-0.09979400320439469,0.04376287479972518
1539731616447721,0.9940947585259785,-0.1010147249561304,0.04388494697489875
1539731616463733,0.9883573662928207,-0.10650797283894109,0.042908369573510186
1539731616479746,0.9843289845120928,-0.10809491111619751,0.04180971999694805
1539731616495759,0.9795681696803236,-0.10516517891203181,0.03936827649347663
1539731616511771,0.9776150148775464,-0.10406652933546967,0.03814755474174092
1539731616527784,0.975173571374075,-0.10577553978789966,0.037781338216220206
1539731616543797,0.9744411383230336,-0.10809491111619751,0.03448538948653379
1539731616559809,0.9724879835202564,-0.10919356069275965,0.031311512932020946
1539731616575822,0.975173571374075,-0.11261158159761964,0.031311512932020946
1539731616591835,0.9765163653009843,-0.1135881589990082,0.02911421377889667
1539731616607847,0.9807888914320593,-0.11712825207904176,0.027649347676813818
1539731616623860,0.982009613183795,-0.11834897383077747,0.021789883268482413
1539731616639873,0.9883573662928207,-0.11712825207904176,0.018493934538795997
1539731616655883,0.9877470054169528,-0.11248950942244607,0.018005645838101714
1539731616671896,0.9838406958113985,-0.10931563286793322,0.018249790188448856
1539731616687909,0.9799343862058443,-0.10333409628442825,0.017761501487754572
1539731616703921,0.9774929427023729,-0.1010147249561304,0.01898222323949028
1539731616719934,0.9772487983520257,-0.09698634317540256,0.02032501716639956
1539731616735947,0.9798123140306707,-0.0896620126649883,0.02423132677195383
1539731616751959,0.9860379949645228,-0.08831921873807902,0.025085831998168828
1539731616767972,0.9947051194018464,-0.09491111619745185,0.023376821545738835
1539731616783985,1.0004425116350042,-0.10040436408026254,0.032532234683756656
1539731616799997,1.0015411612115663,-0.09698634317540256,0.04083314259555948
1539731616816010,0.9997100785839628,-0.08722056916151688,0.04632639047837017
1539731616832023,0.9942168307011521,-0.08050659952697048,0.041565575646600905
1539731616848035,0.9906767376211185,-0.09149309529259186,0.034851606012054503
1539731616864048,0.9857938506141757,-0.10199130235751896,0.03692683299000521
1539731616880061,0.9812771801327536,-0.11102464332036321,0.037659266041046635
1539731616896073,0.9807888914320593,-0.11017013809414822,0.033875028610665936
1539731616912086,0.9721217669947357,-0.10919356069275965,0.020691233691920274
1539731616928099,0.9680933852140079,-0.1211566338597696,0.00970473792629889
1539731616944111,0.9624780651560236,-0.14776836804760807,0.006408789196612474
1539731616960124,0.9650415808346686,-0.16180666819256873,0.018371862363622427
1539731616976135,0.973464560921645,-0.16327153429465158,0.021911955443655984
1539731616992148,0.9857938506141757,-0.15570305943389018,0.02545204852368954
1539731617008160,0.9982452124818799,-0.1442282749675745,0.02801556420233453
1539731617024173,1.0075226977950713,-0.1404440375371938,0.0319218738078888
1539731617040186,1.0122835126268406,-0.13006790264744028,0.036438544289310926
1539731617056198,1.015579461356527,-0.11712825207904176,0.037781338216220206
1539731617072211,1.0111848630502784,-0.10443274586099038,0.036194399938963784
1539731617088224,1.001907377737087,-0.09869535362783255,0.03424124513618665
1539731617104236,0.9879911497673,-0.08892957961394687,0.03314259555962451
1539731617120249,0.97602807660029,-0.08245975432974761,0.03155565728236809
1539731617136262,0.9647974364843215,-0.07635614557106907,0.02911421377889667
1539731617152274,0.9525902189669644,-0.07989623865110262,0.025940337224383825
1539731617168287,0.9500267032883194,-0.0963759822995347,0.028503852903028815
1539731617184300,0.9530785076676587,-0.1135881589990082,0.03350881208514522
1539731617200312,0.9707789730678265,-0.129579613946746,0.044129091325245895
1539731617216325,0.988845654993515,-0.13470664530403598,0.04852368963149445
1539731617232338,1.0026398107881285,-0.13971160448615239,0.04754711223010588
1539731617248350,1.0148470283054856,-0.1412985427634088,0.04510566872663446
1539731617264363,1.0185091935606927,-0.13727016098268097,0.04827954528114731
1539731617280376,1.0038605325398642,-0.13409628442816812,0.045349813076981604
1539731617296386,0.9842069123369193,-0.13849088273441668,0.035217822537575216
1539731617312399,0.9766384374761579,-0.14117647058823524,0.030823224231326662
1539731617328412,0.9813992523079271,-0.1412985427634088,0.025696192874036683
1539731617344424,0.9925078202487221,-0.13116655222400242,0.018127718013275285
1539731617360437,0.9765163653009843,-0.11749446860456247,0.015686274509803866
1539731617376450,0.9533226520180058,-0.11029221026932179,0.01898222323949028
1539731617392462,0.9550316624704358,-0.11432059205004963,0.021667811093308842
1539731617408475,0.9622339208056765,-0.11578545815213248,0.02642862592507811
1539731617424488,0.9647974364843215,-0.11566338597695891,0.02398718242160669
1539731617440500,0.9695582513160907,-0.11725032425421533,0.027161058976119534
1539731617456513,0.9740749217975129,-0.12213321126115817,0.03411917296101308
1539731617472526,0.9783474479285879,-0.1290913252460517,0.038879987792782345
1539731617488538,0.9789578088044557,-0.13678187228198668,0.03790341039139378
1539731617504551,0.9757839322499429,-0.14752422369726093,0.038757915617608774
1539731617520564,0.9765163653009843,-0.15216296635385662,0.046570534828717314
1539731617536576,0.9738307774471657,-0.15033188372625306,0.05108720531013944
1539731617552589,0.9689478904402229,-0.14740215152208735,0.05169756618600729
1539731617568602,0.9696803234912643,-0.1522850385290302,0.046570534828717314
1539731617584614,0.9754177157244222,-0.1517967498283359,0.04754711223010588
1539731617600627,0.9826199740596628,-0.1517967498283359,0.054627298390172996
1539731617616638,0.98970016021973,-0.14618142977035165,0.05682459754329727
1539731617632650,0.9973907072556649,-0.13775844968337525,0.050720988784618726
1539731617648663,1.0045929655909056,-0.13067826352330814,0.04632639047837017
1539731617664676,1.0054474708171206,-0.11847104600595104,0.045471885252155175
1539731617680688,0.9972686350804914,-0.11053635461966893,0.042664225223163044
1539731617696701,0.9936064698252842,-0.10846112764171822,0.03961242084382377
1539731617712714,0.9922636758983749,-0.10736247806515609,0.03790341039139378
1539731617728726,0.9892118715190357,-0.1060196841382468,0.03448538948653379
1539731617744739,0.9882352941176471,-0.10553139543755252,0.03302052338445094
1539731617760752,0.987136644541085,-0.10247959105821325,0.03302052338445094
1539731617776764,0.9879911497673,-0.1030899519340811,0.03448538948653379
1539731617792777,0.9893339436942092,-0.10833905546654465,0.031189440756847375
1539731617808790,0.9939726863508049,-0.11493095292591748,0.029480430304417382
1539731617824803,0.9999542229343099,-0.11749446860456247,0.028381780727855244
1539731617840815,1.0045929655909056,-0.11334401464866106,0.03216601815823594
1539731617856828,1.007034409094377,-0.11493095292591748,0.03448538948653379
1539731617872841,1.0080109864957656,-0.1203021286335546,0.033875028610665936
1539731617888853,1.0064240482185092,-0.12091248950942246,0.03216601815823594
1539731617904866,1.0003204394598306,-0.12164492256046389,0.032288090333409514
1539731617920879,0.9940947585259785,-0.1211566338597696,0.03167772945754166
1539731617936920,0.9872587167162585,-0.12066834515907532,0.033875028610665936
1539731617952932,0.9807888914320593,-0.12054627298390175,0.040344853894865196
1539731617968945,0.9750514991989014,-0.1190814068818189,0.04449530785076661
1539731617984958,0.9740749217975129,-0.11688410772869462,0.04644846265354374
1539731618000970,0.9741969939726864,-0.11273365377279321,0.05474937056534657
1539731618016983,0.9735866330968186,-0.10711833371480894,0.062195773250934394
1539731618032996,0.9788357366292821,-0.09893949797817969,0.06659037155718295
1539731618049008,0.9868925001907378,-0.08746471351186402,0.07403677424277078
1539731618065021,0.9904325932707714,-0.08722056916151688,0.0739147020675972
1539731618081034,0.9959258411535821,-0.08831921873807902,0.0642710002288851
1539731618097046,0.9949492637521935,-0.0896620126649883,0.0604867627985044
1539731618113059,0.9949492637521935,-0.08404669260700404,0.0651255054551001
1539731618129072,0.9950713359273671,-0.09246967269398043,0.05023270008392444
1539731618145084,0.9867704280155642,-0.10370031280994896,0.026184481574730967
1539731618161097,0.96406500343328,-0.11273365377279321,0.016784924086366004
1539731618177110,0.9357442587930116,-0.12689402609292744,0.01483176928358887
1539731618193122,0.9241474021515224,-0.13470664530403598,0.015686274509803866
1539731618209135,0.9243915465018695,-0.1350728618295567,0.014343480582894585
1539731618225148,0.9353780422674909,-0.13018997482261385,0.007751583123521755
1539731618241160,0.9530785076676587,-0.12713817044327458,0.00579842832074462
1539731618257171,0.9711451895933472,-0.12018005645838103,0.01104753185320817
1539731618273184,0.9853055619134814,-0.10736247806515609,0.025818265049210254
1539731618289197,0.9926298924238957,-0.09417868314641042,0.04071107042038591
1539731618305209,0.9976348516060121,-0.08368047608148332,0.04449530785076661
1539731618321222,1.0009308003356985,-0.07879758907454049,0.044007019150072324
1539731618337235,0.9966582742046235,-0.08319218738078904,0.04437323567559304
1539731618353247,0.9890897993438621,-0.08905165178912045,0.04888990615701516
1539731618369260,0.9740749217975129,-0.0963759822995347,0.058289463645380124
1539731618385273,0.9651636530098422,-0.09979400320439469,0.060975051499198685
1539731618401285,0.9677271686884872,-0.10138094148165111,0.06524757763027367
1539731618417298,0.9763942931258107,-0.10492103456168467,0.06439307240405867
1539731618433311,0.9872587167162585,-0.10516517891203181,0.06292820630197582
1539731618449323,0.9915312428473335,-0.1018692301823454,0.06353856717784367
1539731618465336,0.9990997177080949,-0.10284580758373396,0.06317235065232296
1539731618481349,1.0047150377660792,-0.10431067368581681,0.06182955672541368
1539731618497361,1.0060578316929885,-0.1068741893644618,0.06036469062333083
1539731618513374,1.0058136873426413,-0.10736247806515609,0.059876401922636546
1539731618529387,1.0103303578240634,-0.10406652933546967,0.05487144274052014
1539731618545399,1.0067902647440299,-0.0955214770733197,0.057068741893644415
1539731618561412,1.002761882963302,-0.08563363088426046,0.058289463645380124
1539731618577423,0.9998321507591363,-0.08087281605249119,0.05816739147020655
1539731618593435,1.0011749446860456,-0.07574578469520121,0.05487144274052014
1539731618609448,1.000808728160525,-0.06927595941100195,0.06988632028686936
1539731618625461,0.38654154268711416,0.34039826047150346,0.2938887617303729
1539731618641473,1.1271534294651717,-0.23248645761806674,-0.12164492256046389
1539731618657486,1.0961470969710838,-0.21930266269932108,-0.024719615472648115
1539731618673499,1.0556191348134583,-0.10846112764171822,-0.012146181429770309
1539731618689511,1.0796673533226517,-0.13788052185854882,0.06414892805371153
1539731618705524,1.0635538261997404,-0.06939803158617552,0.10162508583199781
1539731618721537,0.9894560158693828,-0.013977264057373873,0.018493934538795997
1539731618737549,0.9491721980621044,-0.02276646066987098,-0.005188067444876765
1539731618753562,0.937331197070268,-0.09185931181811258,0.0037232013427939137
1539731618769575,0.9378194857709623,-0.11761654077973605,0.03582818341344307
1539731618785587,0.9447775997558558,-0.07953002212558191,0.05157549401083372
1539731618801600,0.9632104982070651,-0.039002059967955915,0.055848020141908705
1539731618817613,0.9763942931258107,-0.04962233920805659,0.0651255054551001
1539731618833625,0.9879911497673,-0.08270389868009476,0.06768902113374509
1539731618849638,0.9931181811245899,-0.10260166323338682,0.06024261844815726
1539731618865651,0.9943389028763256,-0.10540932326237895,0.06573586633096795
1539731618881663,0.9954375524528878,-0.10370031280994896,0.07928587777523433
1539731618897674,0.9967803463797971,-0.10748455024032966,0.08282597085526788
1539731618913687,0.9926298924238957,-0.11725032425421533,0.07367055771725006
1539731618929700,0.9864042114900435,-0.12152285038529032,0.06451514457923224
1539731618945712,0.9801785305561914,-0.11981383993286032,0.05902189669642155
1539731618961725,0.97773708705272,-0.11200122072175178,0.06280613412680225
1539731618977738,0.9783474479285879,-0.10284580758373396,0.06451514457923224
1539731618993750,0.9840848401617457,-0.10003814755474183,0.0613412680247194
1539731619009763,0.9910429541466392,-0.09564354924849328,0.057068741893644415
1539731619025776,0.9949492637521935,-0.08770885786221116,0.053772793163958
1539731619041788,0.9980010681315328,-0.08014038300144977,0.050476844434271584
1539731619057801,0.9983672846570535,-0.07513542381933336,0.04730296787975874
1539731619073814,0.9947051194018464,-0.07183947508964694,0.049378194857709445
1539731619089826,0.9940947585259785,-0.06854352635996053,0.051941710536354435
1539731619105839,0.9883573662928207,-0.06268406195162912,0.046570534828717314
1539731619121852,0.9868925001907378,-0.06439307240405912,0.04193179217212162
1539731619137864,0.9860379949645228,-0.06500343327992697,0.042908369573510186
1539731619153877,0.9875028610666057,-0.0678110933089191,0.043030441748683756
1539731619169890,0.9890897993438621,-0.07122911421377909,0.04693675135423803
1539731619185902,0.9894560158693828,-0.07440299076829193,0.047913328755626594
1539731619201915,0.9873807888914321,-0.07782101167315192,0.050476844434271584
1539731619217926,0.985427634088655,-0.08026245517662334,0.05120927748531301
1539731619233938,0.987136644541085,-0.0829480430304419,0.051941710536354435
1539731619249951,0.9843289845120928,-0.08844129091325259,0.05365072098878443
1539731619265964,0.98115510795758,-0.09039444571602973,0.057068741893644415
1539731619281976,0.9783474479285879,-0.09112687876707115,0.05792324711985941
1539731619297989,0.9779812314030671,-0.09295796139467472,0.059754329747462975
1539731619314002,0.9783474479285879,-0.09246967269398043,0.06073090714885154
1539731619330014,0.9787136644541086,-0.09320210574502186,0.06182955672541368
1539731619346027,0.9776150148775464,-0.09161516746776543,0.06207370107576082
1539731619362040,0.98457312886244,-0.09137102311741829,0.06549172198062081
1539731619378052,0.9864042114900435,-0.0888075074387733,0.06463721675440581
1539731619394065,0.98628213931487,-0.08856336308842616,0.061097123674372256
1539731619410078,0.9855497062638285,-0.08770885786221116,0.061097123674372256
1539731619426090,0.9832303349355307,-0.08392462043183047,0.05914396887159512
1539731619442103,0.9848172732127871,-0.0812390325780119,0.06012054627298369
1539731619458116,0.9840848401617457,-0.08050659952697048,0.05535973144121442
1539731619474128,0.9835965514610514,-0.08075074387731762,0.052918287937743
1539731619490141,0.983718623636225,-0.08404669260700404,0.05035477225909801
1539731619506154,0.9873807888914321,-0.08563363088426046,0.050476844434271584
1539731619522166,0.9918974593728542,-0.08526741435873975,0.04962233920805659
1539731619538177,0.9916533150225071,-0.08526741435873975,0.04876783398184159
1539731619554190,0.9925078202487221,-0.08331425955596261,0.048157473105973736
1539731619570202,0.9848172732127871,-0.07940794995040834,0.05230792706187515
1539731619586215,0.9781033035782407,-0.07550164034485407,0.05230792706187515
1539731619602228,0.9765163653009843,-0.07196154726482051,0.054627298390172996
1539731619618240,0.9755397878995957,-0.06927595941100195,0.055725947966735134
1539731619634253,0.9787136644541086,-0.07061875333791123,0.058533607995727266
1539731619650266,0.9779812314030671,-0.07489127946898622,0.059632257572289404
1539731619666278,0.9727321278706036,-0.07806515602349906,0.06182955672541368
1539731619682291,0.9741969939726864,-0.08709849698634331,0.06549172198062081
1539731619698304,0.980300602731365,-0.09662012664988184,0.06121919584954583
1539731619714316,0.9904325932707714,-0.10565346761272609,0.05621423666742942
1539731619730329,1.0003204394598306,-0.11566338597695891,0.05365072098878443
1539731619746342,1.004470893415732,-0.12140077821011674,0.053040360112916574
1539731619762354,1.011306935225452,-0.11810482948043033,0.04986648355840373
1539731619778367,1.0056916151674677,-0.10247959105821325,0.049500267032883016
1539731619794380,0.9940947585259785,-0.08184939345387976,0.04718089570458517
1539731619810392,0.9770046540016786,-0.06524757763027411,0.05365072098878443
1539731619826405,0.9615014877546351,-0.053162432288090145,0.05255207141222229
1539731619842418,0.9580834668497751,-0.050476844434271584,0.053040360112916574
1539731619858429,0.9596704051270315,-0.05523765926604085,0.054505226214999425
1539731619874441,0.9688258182650493,-0.06683451590753053,0.05877775234607441
1539731619890454,0.9776150148775464,-0.07306019684138265,0.06475928892957938
1539731619906467,0.9929961089494164,-0.08099488822766476,0.06353856717784367
1539731619922479,1.0098420691233692,-0.09735255970092327,0.06414892805371153
1539731619938492,1.018997482261387,-0.11175707637140464,0.05865568017090084
1539731619954505,1.0211947814145113,-0.12005798428320746,0.054627298390172996
1539731619970517,1.0128938735027084,-0.11480888075074391,0.054383154039825854
1539731619986530,1.0021515220874342,-0.09991607537956826,0.053040360112916574
1539731620002543,0.9895780880445564,-0.08709849698634331,0.05658045319295013
1539731620018555,0.97773708705272,-0.0774547951476312,0.05535973144121442
1539731620034568,0.9669947356374458,-0.06927595941100195,0.05474937056534657
1539731620050581,0.96406500343328,-0.06561379415579482,0.054505226214999425
1539731620066593,0.9660181582360572,-0.07061875333791123,0.058533607995727266
1539731620082606,0.9766384374761579,-0.07940794995040834,0.05926604104676869
1539731620098619,0.9899443045700771,-0.08612191958495474,0.06451514457923224
1539731620114631,0.9944609750514992,-0.09088273441672401,0.06451514457923224
1539731620130644,0.9922636758983749,-0.09503318837262542,0.06195162890058725
1539731620146657,0.9899443045700771,-0.09967193102922112,0.05877775234607441
1539731620162669,0.9855497062638285,-0.10150301365682468,0.05511558709086728
1539731620178680,0.9816433966582743,-0.10003814755474183,0.05633630884260299
1539731620194693,0.9787136644541086,-0.09662012664988184,0.05389486533913157
1539731620210705,0.9737087052719922,-0.09039444571602973,0.05230792706187515
1539731620226718,0.97261005569543,-0.0879530022125583,0.04901197833218873
1539731620242731,0.9698023956664379,-0.08831921873807902,0.049256122682535874
1539731620258743,0.9715114061188679,-0.08990615701533544,0.04730296787975874
1539731620274756,0.9779812314030671,-0.09454489967193114,0.049256122682535874
1539731620290769,0.9795681696803236,-0.09674219882505541,0.048035400930800165
1539731620306781,0.9796902418554971,-0.09613183794918756,0.04571602960250232
1539731620322794,0.9827420462348364,-0.10089265278095683,0.04351873044937804
1539731620338807,0.9850614175631343,-0.09759670405127041,0.04962233920805659
1539731620354819,0.9844510566872664,-0.093446250095369,0.05401693751430514
1539731620370832,0.9807888914320593,-0.08624399176012831,0.05645838101777656
1539731620386845,0.9800564583810178,-0.08514534218356618,0.05511558709086728
1539731620402857,0.9848172732127871,-0.08612191958495474,0.05352864881361086
1539731620418870,0.9933623254749371,-0.08490119783321903,0.0634164950026701
1539731620434883,0.9967803463797971,-0.08087281605249119,0.06671244373235652
1539731620450895,0.9999542229343099,-0.07782101167315192,0.06646829938200938
1539731620466908,1.001907377737087,-0.07928587777523477,0.05926604104676869
1539731620482921,0.9995880064087892,-0.08221560997940047,0.058411535820553695
1539731620498962,0.9960479133287556,-0.07843137254901977,0.06158541237506654
1539731620514975,0.9917753871976807,-0.0753795681696805,0.06268406195162868
1539731620530987,0.9875028610666057,-0.0745250629434655,0.059754329747462975
1539731620547000,0.983718623636225,-0.0791638056000612,0.05804531929503298
1539731620563013,0.98115510795758,-0.08514534218356618,0.06012054627298369
1539731620579025,0.9824979018844893,-0.08856336308842616,0.05951018539711583
1539731620595038,0.9817654688334478,-0.09503318837262542,0.06182955672541368
1539731620611051,0.9834744792858778,-0.09954985885404755,0.06488136110475295
1539731620627063,0.987136644541085,-0.10492103456168467,0.06305027847714939
1539731620643076,0.9868925001907378,-0.10675211718928823,0.06012054627298369
1539731620659089,0.9821316853589686,-0.10699626153963537,0.05951018539711583
1539731620675101,0.9787136644541086,-0.10455481803616395,0.0613412680247194
1539731620691114,0.9795681696803236,-0.10333409628442825,0.0613412680247194
1539731620707127,0.9844510566872664,-0.1022354467078661,0.05609216449225585
1539731620723139,0.9809109636072328,-0.09649805447470827,0.05255207141222229
1539731620739152,0.9771267261768521,-0.09662012664988184,0.05267414358739586
1539731620755165,0.9807888914320593,-0.09588769359884042,0.053040360112916574
1539731620771177,0.98457312886244,-0.09271381704432757,0.050720988784618726
1539731620787190,0.9901884489204242,-0.09002822919050901,0.05157549401083372
1539731620803203,0.9909208819714657,-0.08783093003738474,0.051941710536354435
1539731620819213,0.9927519645990692,-0.08831921873807902,0.05426108186465228
1539731620835226,0.9920195315480278,-0.08905165178912045,0.05352864881361086
1539731620851239,0.9918974593728542,-0.08648813611047546,0.05365072098878443
1539731620867251,0.9898222323949035,-0.08978408484016187,0.05413900968947871
1539731620883264,0.985427634088655,-0.08746471351186402,0.055970092317082276
1539731620899277,0.9853055619134814,-0.08783093003738474,0.0567025253681237
1539731620915290,0.9877470054169528,-0.0905165178912033,0.05865568017090084
1539731620931302,0.9948271915770199,-0.09356832227054257,0.06121919584954583
1539731620947315,0.9948271915770199,-0.09124895094224472,0.06573586633096795
1539731620963328,0.9936064698252842,-0.08697642481116974,0.06964217593652222
1539731620979340,0.9966582742046235,-0.0888075074387733,0.06927595941100151
1539731620995353,1.0006866559853513,-0.09076066224155044,0.06622415503166224
1539731621011366,0.9987335011825742,-0.08844129091325259,0.06585793850614152
1539731621027378,0.9892118715190357,-0.08282597085526833,0.0642710002288851
1539731621043391,0.9824979018844893,-0.08099488822766476,0.06439307240405867
1539731621059404,0.9783474479285879,-0.08160524910353262,0.05914396887159512
1539731621075416,0.9746852826733807,-0.08368047608148332,0.05487144274052014
1539731621091429,0.9702906843671322,-0.08917372396429402,0.05499351491569371
1539731621107442,0.9712672617685207,-0.09454489967193114,0.05487144274052014
1539731621123454,0.9749294270237279,-0.10125886930647754,0.051819638361180864
1539731621139495,0.9793240253299764,-0.10492103456168467,0.046692607003890885
1539731621155508,0.9804226749065386,-0.11139085984588393,0.04583810177767589
1539731621171521,0.9806668192568857,-0.11407644769970249,0.04486152437628732
1539731621187533,0.9818875410086214,-0.11554131380178534,0.04315251392385733
1539731621203546,0.9839627679865721,-0.11212329289692535,0.040100709544518054
1539731621219559,0.9815213244831007,-0.10504310673685824,0.04058899824521234
1539731621235571,0.9809109636072328,-0.09832913710231184,0.04058899824521234
1539731621251584,0.9799343862058443,-0.09869535362783255,0.044129091325245895
1539731621267597,0.9790798809796293,-0.08831921873807902,0.03985656519417091
1539731621283609,0.9795681696803236,-0.08258182650492119,0.03936827649347663
1539731621299622,0.9789578088044557,-0.0820935378042269,0.04852368963149445
1539731621315635,0.9778591592278936,-0.08148317692835905,0.058289463645380124
1539731621331647,0.9843289845120928,-0.08111696040283833,0.06036469062333083
1539731621347660,0.9890897993438621,-0.08221560997940047,0.057312886243991557
1539731621363673,0.9928740367742428,-0.08575570305943403,0.059876401922636546
1539731621379686,0.9904325932707714,-0.08978408484016187,0.06378271152819082
1539731621395698,0.9848172732127871,-0.08953994048981473,0.07122911421377864
1539731621411711,0.9849393453879607,-0.0879530022125583,0.07110704203860507
1539731621427724,0.9899443045700771,-0.0879530022125583,0.06500343327992653
1539731621443736,0.9956816968032349,-0.09381246662088971,0.06073090714885154
1539731621459747,0.9958037689784085,-0.09466697184710471,0.06195162890058725
1539731621475760,0.9970244907301442,-0.09478904402227828,0.06317235065232296
1539731621491772,1.0021515220874342,-0.09515526054779899,0.05548180361638799
1539731621507785,1.006179903868162,-0.09393453879606328,0.05011062790875087
1539731621523798,1.00166323338674,-0.09112687876707115,0.046814679179064456
1539731621539810,0.9929961089494164,-0.08307011520561547,0.05242999923704872
1539731621555823,0.9881132219424735,-0.07757686732280478,0.051819638361180864
1539731621571836,0.9851834897383078,-0.07660028992141621,0.047913328755626594
1539731621587848,0.9776150148775464,-0.0762340733958955,0.048157473105973736
1539731621603861,0.9682154573891815,-0.07733272297245763,0.05535973144121442
1539731621619874,0.9647974364843215,-0.08307011520561547,0.06182955672541368
1539731621635886,0.9667505912870986,-0.08905165178912045,0.05926604104676869
1539731621651899,0.9707789730678265,-0.09588769359884042,0.06024261844815726
1539731621667912,0.9727321278706036,-0.10431067368581681,0.05914396887159512
1539731621683924,0.9722438391699093,-0.10968184939345393,0.06060883497367797
1539731621699937,0.9699244678416115,-0.11468680857557034,0.06182955672541368
1539731621715950,0.970901045243,-0.11883726253147175,0.060852979324025114
1539731621731962,0.9728542000457772,-0.1220111390859846,0.055848020141908705
1539731621747975,0.9801785305561914,-0.12127870603494317,0.0499885557335773
1539731621763988,0.9838406958113985,-0.11688410772869462,0.049378194857709445
1539731621779998,0.9857938506141757,-0.1106584267948425,0.04827954528114731
1539731621796011,0.9867704280155642,-0.10492103456168467,0.0424200808728159
1539731621812024,0.9882352941176471,-0.09918364232852683,0.0394903486686502
1539731621828036,0.9875028610666057,-0.08929579613946759,0.03985656519417091
1539731621844049,0.9883573662928207,-0.07977416647592905,0.0432745860990309
1539731621860062,0.9882352941176471,-0.06964217593652267,0.04351873044937804
1539731621876074,0.9857938506141757,-0.06475928892957983,0.04315251392385733
1539731621892087,0.9832303349355307,-0.06744487678339839,0.04510566872663446
1539731621908100,0.9853055619134814,-0.07122911421377909,0.05389486533913157
1539731621924112,0.9918974593728542,-0.07574578469520121,0.05658045319295013
1539731621940125,0.9975127794308385,-0.0800183108262762,0.058411535820553695
1539731621956138,0.9978789959563592,-0.08429083695735118,0.06146334019989297
1539731621972150,0.9960479133287556,-0.092591744869154,0.061097123674372256
1539731621988163,0.9972686350804914,-0.09796292057679112,0.06414892805371153
1539731622004176,0.9953154802777142,-0.10077058060578326,0.06390478370336439
1539731622020188,0.9916533150225071,-0.10125886930647754,0.058289463645380124
1539731622036201,0.9840848401617457,-0.09796292057679112,0.05902189669642155
1539731622052214,0.9766384374761579,-0.09869535362783255,0.05951018539711583
1539731622068226,0.9715114061188679,-0.09942778667887398,0.0567025253681237
1539731622084239,0.96919203479057,-0.10077058060578326,0.05108720531013944
1539731622100250,0.968337529564355,-0.10321202410925467,0.04962233920805659
1539731622116263,0.9673609521629665,-0.10455481803616395,0.048157473105973736
1539731622132275,0.96748302433814,-0.10577553978789966,0.046692607003890885
1539731622148288,0.9699244678416115,-0.10736247806515609,0.03961242084382377
1539731622164301,0.9702906843671322,-0.11102464332036321,0.03607232776379021
1539731622180313,0.9682154573891815,-0.1115129320210575,0.03582818341344307
1539731622196326,0.973464560921645,-0.11602960250247962,0.03595025558861664
1539731622212339,0.9807888914320593,-0.11493095292591748,0.037659266041046635
1539731622228351,0.9856717784390021,-0.1123674372472725,0.03851377126726163
1539731622244364,0.9921416037232014,-0.11053635461966893,0.04095521477073305
1539731622260377,1.000198367284657,-0.10992599374380108,0.03826962691691449
1539731622276389,1.0063019760433356,-0.10785076676585037,0.04364080262455161
1539731622292402,1.0014190890363928,-0.09784084840161755,0.049500267032883016
1539731622308415,0.9986114290074006,-0.09271381704432757,0.04974441138323016
1539731622324427,0.9953154802777142,-0.08990615701533544,0.05096513313496587
1539731622340440,0.9927519645990692,-0.08355840390630975,0.05145342183566015
1539731622356453,0.9916533150225071,-0.07867551689936692,0.05621423666742942
1539731622372465,0.9932402532997635,-0.0762340733958955,0.058411535820553695
1539731622388478,0.9994659342336156,-0.07635614557106907,0.05780117494468584
1539731622404491,1.0034943160143435,-0.08062867170214405,0.054383154039825854
1539731622420501,1.000198367284657,-0.0858777752346076,0.050598916609445155
1539731622436514,0.9959258411535821,-0.09149309529259186,0.05096513313496587
1539731622452527,0.9938506141756314,-0.09796292057679112,0.049256122682535874
1539731622468539,0.9925078202487221,-0.09979400320439469,0.045471885252155175
1539731622484552,0.9944609750514992,-0.0993057145037004,0.04119935912108019
1539731622500565,0.9933623254749371,-0.10125886930647754,0.03717097734035235
1539731622516577,0.9875028610666057,-0.10553139543755252,0.03704890516517878
1539731622532590,0.9821316853589686,-0.10650797283894109,0.03595025558861664
1539731622548603,0.9800564583810178,-0.10821698329137108,0.03692683299000521
1539731622564615,0.9824979018844893,-0.10553139543755252,0.0357061112382695
1539731622580628,0.98628213931487,-0.10235751888303968,0.03741512169069949
1539731622596641,0.9873807888914321,-0.1010147249561304,0.037537193865873064
1539731622612653,0.9859159227893493,-0.10174715800717182,0.036316472114137355
1539731622628666,0.9851834897383078,-0.10260166323338682,0.035217822537575216
1539731622644679,0.983718623636225,-0.10247959105821325,0.036438544289310926
