Timestamp (microseconds),Gyro X (°/s),Gyro Y (°/s),Gyro Z (°/s)
1539731597761383,3.0212863355459376,-4.852368963149502,-7.354848554207592
1539731597777385,2.532997634851654,-3.2654306858930795,-7.17174029144735
1539731597793388,2.227817196917613,-1.6784924086366573,-6.927595941100208
1539731597809391,2.4719615472647547,-0.03051804379333589,-6.683451590753066
1539731597825393,2.8381780727854675,1.8005645838102282,-6.073090714885211
1539731597841396,2.8992141603723667,3.5095750362402214,-4.9134050507361735
1539731597857399,1.9226367589837992,4.791332875562603,-3.1433585107195086
1539731597873401,0.7019150072480898,4.9134050507361735,-0.8850232700083325
1539731597889404,0.33569848172737693,3.875791561760934,1.3733119707026162
1539731597905407,1.0681315327688026,2.227817196917613,3.5095750362402214
1539731597921409,1.6784924086366573,0.33569848172737693,5.95101853971164
1539731597937412,1.3733119707026162,-1.5564202334630863,8.33142595559616
1539731597953415,0.5798428320745188,-3.6316472114137923,10.406652933546866
1539731597969417,0.213626306553806,-5.645838101777599,11.871519035629717
1539731597985420,0.2746623941404778,-7.232776379034021,11.688410772869474
1539731598001423,0.5798428320745188,-7.660028992141633,10.162508583199724
1539731598017425,0.5798428320745188,-7.354848554207592,7.843137254901876
1539731598033428,0.7019150072480898,-6.9886320286868795,5.523765926604028
1539731598049430,1.0681315327688026,-6.805523765926637,3.692683299000464
1539731598065433,1.0681315327688026,-6.439307240405924,2.4719615472647547
1539731598081451,0.09155413138023505,-5.401693751430457,1.4343480582895154
1539731598097454,-1.0070954451819034,-3.936827649347606,0.33569848172737693
1539731598113456,-1.0070954451819034,-2.7161058976118966,-0.33569848172737693
1539731598129459,-0.03051804379333589,-2.04470893415737,-0.213626306553806
1539731598145462,0.5188067444876197,-1.6784924086366573,0.9460593575952316
1539731598161464,-0.09155413138023505,-1.1291676203554744,2.532997634851654
1539731598177467,-1.0070954451819034,-0.3967345693140487,4.119935912108076
1539731598193470,-1.2512397955290453,-0.03051804379333589,5.828946364538069
1539731598209472,-1.1902037079423735,-0.09155413138023505,7.232776379034021
1539731598225475,-1.1291676203554744,-0.3967345693140487,8.026245517662346
1539731598241478,-1.0681315327688026,-0.8239871824216607,8.6366063935302
1539731598257480,-0.9460593575952316,-1.2512397955290453,9.002822919050914
1539731598273483,-0.6408789196611906,-1.983672846570471,8.880750743877343
1539731598289486,-0.6408789196611906,-2.9602502479590385,8.575570305943302
1539731598305488,-0.8239871824216607,-4.119935912108076,7.904173342488775
1539731598321491,-1.1902037079423735,-5.2185854886702145,6.683451590753066
1539731598337494,-1.0070954451819034,-6.134126802471883,4.9134050507361735
1539731598353496,-0.15259021896690683,-6.9886320286868795,2.8992141603723667
1539731598369499,0.45777065690094787,-7.598992904554734,1.1291676203554744
1539731598385501,0.2746623941404778,-7.660028992141633,-0.33569848172737693
1539731598401489,-0.45777065690094787,-7.232776379034021,-1.4343480582895154
1539731598417492,-0.45777065690094787,-6.927595941100208,-2.227817196917613
1539731598433494,0.3967345693140487,-6.927595941100208,-2.7161058976118966
1539731598449497,1.2512397955290453,-7.17174029144735,-2.8992141603723667
1539731598465500,1.1902037079423735,-6.927595941100208,-2.5940337224383256
1539731598481502,0.09155413138023505,-5.889982452124741,-2.227817196917613
1539731598497505,-1.0681315327688026,-4.730296787975931,-1.6784924086366573
1539731598513507,-1.3733119707026162,-3.875791561760934,-0.9460593575952316
1539731598529510,-1.1902037079423735,-3.692683299000464,0.09155413138023505
1539731598545513,-1.739528496223329,-3.692683299000464,1.4953841458761872
1539731598561515,-3.570611123826893,-3.692683299000464,3.0823224231326094
1539731598577518,-5.645838101777599,-3.6316472114137923,4.364080262455218
1539731598593521,-7.2938124666209205,-4.242008087281647,5.279621576256886
1539731598609523,-11.688410772869474,-4.730296787975931,6.622415503166167
1539731598625526,-15.533684290836845,-5.76791027695117,7.598992904554734
1539731598641529,-18.280308232242305,-7.17174029144735,7.354848554207592
1539731598657531,-19.501029983978015,-9.002822919050914,6.744487678339738
1539731598673534,-21.45418478675515,-10.345616845960194,6.195162890058782
1539731598689537,-23.346303501945386,-11.505302510109004,5.645838101777599
1539731598705539,-22.980086976424673,-12.603952086671143,4.486152437628789
1539731598721710,-20.294499122606112,-13.76363775082018,2.9602502479590385
1539731598737713,-16.754406042572555,-14.862287327382319,1.2512397955290453
1539731598753716,-13.885709925993751,-16.08300907911803,-0.33569848172737693
1539731598769719,-12.054627298390187,-17.181658655680167,-1.4953841458761872
1539731598785722,-11.139085984588291,-17.853055619134693,-2.166781109330941
1539731598801725,-11.383230334935433,-18.158236057068734,-2.3498893720911838
1539731598817729,-12.542915999084471,-18.158236057068734,-2.227817196917613
1539731598833732,-14.496070801861606,-17.914091706721592,-1.9226367589837992
1539731598849735,-16.876478217746126,-17.24269474326684,-2.04470893415737
1539731598865738,-18.646524757763018,-16.388189517051842,-2.7161058976118966
1539731598881741,-18.89066910811016,-15.411612115663274,-3.7537193865873633
1539731598897744,-17.79201953154802,-14.557106889448278,-4.9134050507361735
1539731598913747,-15.777828641183987,-13.824673838406852,-6.134126802471883
1539731598929751,-13.275349050125897,-12.970168612191856,-6.927595941100208
1539731598945754,-11.07804989700162,-11.993591210803288,-7.4158846417944915
1539731598961757,-9.55214770733187,-11.07804989700162,-7.476920729381163
1539731598977760,-8.51453421835663,-10.345616845960194,-6.805523765926637
1539731598993763,-6.9886320286868795,-10.040436408026153,-5.157549401083315
1539731599009766,-5.95101853971164,-9.613183794918768,-2.8992141603723667
1539731599025769,-6.134126802471883,-8.941786831464015,-0.2746623941404778
1539731599041961,-6.561379415579495,-7.904173342488775,2.166781109330941
1539731599057965,-6.256198977645454,-6.805523765926637,4.180971999694748
1539731599073969,-5.2185854886702145,-5.76791027695117,6.073090714885211
1539731599089974,-3.936827649347606,-5.096513313496644,7.904173342488775
1539731599105978,-2.8992141603723667,-4.791332875562603,9.613183794918768
1539731599121982,-2.4719615472647547,-4.303044174868319,11.01701380941472
1539731599137986,-2.5940337224383256,-3.3875028610666504,11.993591210803288
1539731599153990,-2.3498893720911838,-2.04470893415737,12.481879911497572
1539731599169994,-2.532997634851654,-0.5188067444876197,12.787060349431613
1539731599185998,-2.9602502479590385,1.1291676203554744,12.909132524605184
1539731599202002,-3.2043945983061803,2.4719615472647547,12.848096437018285
1539731599218006,-2.8992141603723667,3.0823224231326094,12.726024261844714
1539731599234010,-2.532997634851654,3.2043945983061803,12.4208438239109
1539731599250014,-2.410925459678083,3.3875028610666504,11.749446860456146
1539731599266018,-2.410925459678083,3.875791561760934,10.528725108720437
1539731599282023,-1.983672846570471,4.486152437628789,9.491111619745197
1539731599298027,-1.5564202334630863,4.852368963149502,8.575570305943302
1539731599314031,-1.6784924086366573,5.096513313496644,7.598992904554734
1539731599330035,-2.7161058976118966,5.828946364538069,6.256198977645454
1539731599346039,-3.3264667734797513,6.561379415579495,4.974441138323073
1539731599362182,-2.410925459678083,6.378271152819025,4.364080262455218
1539731599378187,-0.8239871824216607,5.0354772259097444,4.42511635004189
1539731599394191,-0.09155413138023505,3.2654306858930795,4.791332875562603
1539731599410196,-0.5798428320745188,2.04470893415737,4.9134050507361735
1539731599426200,-1.5564202334630863,1.3733119707026162,4.974441138323073
1539731599442205,-1.983672846570471,0.45777065690094787,4.852368963149502
1539731599458210,-2.105745021744042,-0.8239871824216607,4.852368963149502
1539731599474214,-2.166781109330941,-2.410925459678083,4.791332875562603
1539731599490219,-2.4719615472647547,-3.875791561760934,4.547188525215461
1539731599506223,-2.7771419851987957,-4.974441138323073,3.7537193865873633
1539731599522228,-2.3498893720911838,-5.523765926604028,2.166781109330941
1539731599538232,-0.9460593575952316,-5.828946364538069,0.45777065690094787
1539731599554237,0.213626306553806,-5.95101853971164,-0.5188067444876197
1539731599570242,-0.2746623941404778,-5.95101853971164,-1.1902037079423735
1539731599586246,-1.739528496223329,-5.462729839017356,-1.8616006713969
1539731599602251,-2.288853284504512,-4.791332875562603,-2.5940337224383256
1539731599618255,-1.1902037079423735,-4.303044174868319,-3.1433585107195086
1539731599634260,-0.03051804379333589,-4.242008087281647,-3.2043945983061803
1539731599650264,0.03051804379333589,-4.180971999694748,-2.7161058976118966
1539731599666269,-0.5798428320745188,-4.058899824521177,-1.983672846570471
1539731599682434,-0.8850232700083325,-3.7537193865873633,-1.4343480582895154
1539731599698439,-0.7629510948347615,-3.2043945983061803,-1.3122758831159445
1539731599714444,-0.5188067444876197,-2.655069810025225,-1.3122758831159445
1539731599730449,-0.09155413138023505,-2.4719615472647547,-0.9460593575952316
1539731599746454,0.15259021896690683,-2.288853284504512,-0.33569848172737693
1539731599762459,-0.15259021896690683,-1.9226367589837992,0.15259021896690683
1539731599778464,-0.213626306553806,-1.2512397955290453,0.3967345693140487
1539731599794469,-0.03051804379333589,-0.7019150072480898,0.5188067444876197
1539731599810474,0.33569848172737693,-0.45777065690094787,0.8239871824216607
1539731599826479,0.7019150072480898,-0.6408789196611906,1.4953841458761872
1539731599842484,0.45777065690094787,-0.9460593575952316,2.105745021744042
1539731599858489,0.03051804379333589,-1.1291676203554744,2.532997634851654
1539731599874494,0.03051804379333589,-1.0681315327688026,2.532997634851654
1539731599890499,0.2746623941404778,-0.9460593575952316,2.655069810025225
1539731599906504,0.3967345693140487,-0.9460593575952316,3.0212863355459376
1539731599922509,-0.213626306553806,-1.0681315327688026,3.570611123826893
1539731599938514,-1.3122758831159445,-1.2512397955290453,3.875791561760934
1539731599954519,-2.04470893415737,-1.4343480582895154,3.692683299000464
1539731599970524,-1.739528496223329,-1.8616006713969,3.2043945983061803
1539731599986529,-0.7629510948347615,-2.655069810025225,2.8992141603723667
1539731600002655,-0.2746623941404778,-3.570611123826893,2.8992141603723667
1539731600018661,-0.9460593575952316,-4.242008087281647,2.7771419851987957
1539731600034667,-1.9226367589837992,-4.486152437628789,2.166781109330941
1539731600050673,-1.983672846570471,-4.180971999694748,0.7629510948347615
1539731600066679,-1.1291676203554744,-3.875791561760934,-0.8239871824216607
1539731600082685,-0.15259021896690683,-3.4485389486533222,-2.288853284504512
1539731600098691,0.3967345693140487,-2.7771419851987957,-3.1433585107195086
1539731600114697,0.5188067444876197,-2.166781109330941,-3.3264667734797513
1539731600130703,-0.213626306553806,-1.6174563210497581,-3.1433585107195086
1539731600146709,-1.2512397955290453,-0.7629510948347615,-2.9602502479590385
1539731600162715,-1.2512397955290453,-0.45777065690094787,-2.5940337224383256
1539731600178721,-0.213626306553806,-0.8239871824216607,-1.6174563210497581
1539731600194727,0.7629510948347615,-1.6784924086366573,-0.15259021896690683
1539731600210733,0.7629510948347615,-2.4719615472647547,1.4953841458761872
1539731600226739,0.03051804379333589,-2.8381780727854675,2.655069810025225
1539731600242745,-0.2746623941404778,-2.8381780727854675,2.9602502479590385
1539731600258751,0.33569848172737693,-2.655069810025225,2.655069810025225
1539731600274757,0.8239871824216607,-2.166781109330941,2.288853284504512
1539731600290763,0.2746623941404778,-1.3122758831159445,2.04470893415737
1539731600306769,-1.1291676203554744,-0.5188067444876197,1.739528496223329
1539731600322906,-1.739528496223329,-0.15259021896690683,1.3122758831159445
1539731600338913,-1.0070954451819034,-0.5798428320745188,1.0070954451819034
1539731600354919,0.09155413138023505,-1.5564202334630863,1.0070954451819034
1539731600370926,0.7629510948347615,-2.5940337224383256,1.4953841458761872
1539731600386932,0.3967345693140487,-3.0823224231326094,1.983672846570471
1539731600402938,-0.3967345693140487,-2.8381780727854675,2.227817196917613
1539731600418945,-0.2746623941404778,-2.410925459678083,1.8616006713969
1539731600434951,0.8850232700083325,-2.532997634851654,1.4953841458761872
1539731600450958,1.8005645838102282,-3.0212863355459376,1.4953841458761872
1539731600466964,1.3733119707026162,-3.2043945983061803,1.5564202334630863
1539731600482971,0.2746623941404778,-2.655069810025225,1.6174563210497581
1539731600498977,-0.09155413138023505,-1.9226367589837992,1.5564202334630863
1539731600514984,0.213626306553806,-1.5564202334630863,1.4953841458761872
1539731600530990,0.7629510948347615,-1.5564202334630863,1.6174563210497581
1539731600546997,1.0681315327688026,-1.8616006713969,1.9226367589837992
1539731600563003,0.6408789196611906,-1.983672846570471,2.288853284504512
1539731600579010,0.09155413138023505,-2.105745021744042,2.410925459678083
1539731600595016,0.09155413138023505,-2.105745021744042,2.166781109330941
1539731600611023,0.5798428320745188,-2.105745021744042,1.6784924086366573
1539731600627029,1.1291676203554744,-1.9226367589837992,1.1291676203554744
1539731600643158,1.2512397955290453,-1.3733119707026162,0.5798428320745188
1539731600659165,1.0070954451819034,-0.5798428320745188,-0.213626306553806
1539731600675171,0.8850232700083325,-0.15259021896690683,-0.7629510948347615
1539731600691178,0.8850232700083325,-0.33569848172737693,-0.7629510948347615
1539731600707185,0.6408789196611906,-1.0070954451819034,-0.6408789196611906
1539731600723192,0.6408789196611906,-1.5564202334630863,-0.6408789196611906
1539731600739199,1.0681315327688026,-1.8616006713969,-0.2746623941404778
1539731600755206,1.1902037079423735,-2.288853284504512,0.45777065690094787
1539731600771213,0.7629510948347615,-2.8381780727854675,1.3733119707026162
1539731600787220,0.2746623941404778,-3.3264667734797513,2.288853284504512
1539731600803227,-0.09155413138023505,-3.7537193865873633,2.8992141603723667
1539731600819234,-0.09155413138023505,-4.058899824521177,2.7771419851987957
1539731600835241,0.3967345693140487,-4.486152437628789,2.410925459678083
1539731600851248,0.8239871824216607,-4.9134050507361735,1.9226367589837992
1539731600867255,0.5798428320745188,-5.2185854886702145,1.3733119707026162
1539731600883262,0.15259021896690683,-5.279621576256886,0.3967345693140487
1539731600899269,0.45777065690094787,-4.974441138323073,-0.9460593575952316
1539731600915276,1.4343480582895154,-4.486152437628789,-2.227817196917613
1539731600931283,2.04470893415737,-3.7537193865873633,-2.8381780727854675
1539731600947290,1.8005645838102282,-2.9602502479590385,-2.532997634851654
1539731600963409,0.9460593575952316,-2.227817196917613,-1.5564202334630863
1539731600979416,-0.5798428320745188,-1.1291676203554744,-0.8239871824216607
1539731600995423,-1.0070954451819034,-0.5188067444876197,-0.8850232700083325
1539731601011430,0.2746623941404778,-0.7019150072480898,-1.1902037079423735
1539731601027437,2.227817196917613,-1.0070954451819034,-1.6784924086366573
1539731601043444,3.2654306858930795,-1.0070954451819034,-1.9226367589837992
1539731601059451,3.1433585107195086,-0.7629510948347615,-2.166781109330941
1539731601075458,2.7161058976118966,-0.45777065690094787,-3.0212863355459376
1539731601091465,2.9602502479590385,-0.09155413138023505,-4.669260700389032
1539731601107472,3.7537193865873633,0.8850232700083325,-6.805523765926637
1539731601123479,4.242008087281647,2.532997634851654,-8.819714656290444
1539731601139485,3.570611123826893,4.547188525215461,-10.223544670786623
1539731601155492,2.288853284504512,6.134126802471883,-10.89494163424115
1539731601171499,1.3733119707026162,6.927595941100208,-11.322194247348762
1539731601187506,1.8005645838102282,6.9886320286868795,-11.932555123216616
1539731601203513,3.0823224231326094,6.622415503166167,-12.176699473563758
1539731601219520,3.997863736934505,5.828946364538069,-11.566338597695903
1539731601235527,3.692683299000464,4.60822461280236,-9.55214770733187
1539731601251534,2.655069810025225,3.0823224231326094,-6.500343327992596
1539731601267541,1.6174563210497581,1.3733119707026162,-3.5095750362402214
1539731601283630,1.2512397955290453,-0.09155413138023505,-1.1291676203554744
1539731601299637,1.4343480582895154,-1.4953841458761872,0.7629510948347615
1539731601315645,1.4953841458761872,-2.5940337224383256,2.410925459678083
1539731601331652,0.8850232700083325,-3.4485389486533222,3.6316472114137923
1539731601347660,0.15259021896690683,-3.875791561760934,4.42511635004189
1539731601363667,-0.15259021896690683,-4.242008087281647,4.9134050507361735
1539731601379675,-0.33569848172737693,-4.60822461280236,4.974441138323073
1539731601395682,-0.5798428320745188,-4.730296787975931,4.791332875562603
1539731601411689,-0.7019150072480898,-4.669260700389032,4.60822461280236
1539731601427697,-1.0070954451819034,-4.180971999694748,4.303044174868319
1539731601443704,-1.5564202334630863,-3.4485389486533222,4.119935912108076
1539731601459712,-1.739528496223329,-3.0212863355459376,4.119935912108076
1539731601475719,-1.5564202334630863,-3.2043945983061803,4.669260700389032
1539731601491727,-2.04470893415737,-3.2043945983061803,5.462729839017356
1539731601507734,-3.2043945983061803,-2.8381780727854675,5.95101853971164
1539731601523741,-3.692683299000464,-2.532997634851654,6.073090714885211
1539731601539749,-2.7771419851987957,-2.410925459678083,6.073090714885211
1539731601555756,-1.983672846570471,-2.532997634851654,6.073090714885211
1539731601571764,-2.166781109330941,-2.8992141603723667,6.134126802471883
1539731601587771,-2.5940337224383256,-3.3875028610666504,5.889982452124741
1539731601603912,-1.983672846570471,-3.997863736934505,5.2185854886702145
1539731601619920,-0.5798428320745188,-4.730296787975931,4.364080262455218
1539731601635928,0.2746623941404778,-5.096513313496644,3.4485389486533222
1539731601651936,0.09155413138023505,-4.730296787975931,2.5940337224383256
1539731601667944,-0.09155413138023505,-3.936827649347606,1.6174563210497581
1539731601683951,0.5188067444876197,-3.3264667734797513,0.3967345693140487
1539731601699959,1.1902037079423735,-2.9602502479590385,-0.7019150072480898
1539731601715967,1.4343480582895154,-2.7161058976118966,-1.5564202334630863
1539731601731975,1.0070954451819034,-2.3498893720911838,-2.227817196917613
1539731601747983,0.6408789196611906,-1.6784924086366573,-2.8992141603723667
1539731601763991,1.0070954451819034,-1.0681315327688026,-3.814755474174035
1539731601779999,1.9226367589837992,-0.8239871824216607,-4.364080262455218
1539731601796007,2.7161058976118966,-1.0070954451819034,-4.364080262455218
1539731601812015,2.5940337224383256,-1.3733119707026162,-3.7537193865873633
1539731601828023,1.6784924086366573,-1.5564202334630863,-2.8381780727854675
1539731601844030,0.5798428320745188,-1.3122758831159445,-2.3498893720911838
1539731601860038,0.5188067444876197,-1.0681315327688026,-2.3498893720911838
1539731601876046,1.6174563210497581,-1.1902037079423735,-2.105745021744042
1539731601892054,2.4719615472647547,-1.6174563210497581,-1.1291676203554744
1539731601908062,1.8005645838102282,-2.166781109330941,0.8239871824216607
1539731601924163,0.2746623941404778,-2.7771419851987957,3.0823224231326094
1539731601940172,-1.1902037079423735,-3.2043945983061803,4.974441138323073
1539731601956180,-1.6784924086366573,-3.2043945983061803,5.828946364538069
1539731601972189,-1.3733119707026162,-2.9602502479590385,6.195162890058782
1539731601988197,-0.7019150072480898,-2.8992141603723667,6.927595941100208
1539731602004205,-1.0070954451819034,-2.8992141603723667,8.148317692835917
1539731602020214,-2.166781109330941,-2.7161058976118966,9.613183794918768
1539731602036222,-3.3875028610666504,-2.655069810025225,10.955977721828049
1539731602052230,-3.570611123826893,-2.8381780727854675,11.871519035629717
1539731602068239,-2.7771419851987957,-2.8381780727854675,12.359807736324
1539731602084247,-2.166781109330941,-2.166781109330941,12.542915999084471
1539731602100256,-2.166781109330941,-1.1291676203554744,12.787060349431613
1539731602116264,-2.288853284504512,-0.8850232700083325,13.397421225299468
1539731602132272,-1.6174563210497581,-1.8005645838102282,14.435034714274707
1539731602148281,-0.8239871824216607,-3.2043945983061803,15.472648203250174
1539731602164289,-1.0070954451819034,-4.303044174868319,15.899900816357558
1539731602180297,-1.3733119707026162,-4.9134050507361735,15.10643167772946
1539731602196306,-0.8239871824216607,-5.157549401083315,13.275349050125897
1539731602212314,0.03051804379333589,-5.157549401083315,10.772869459067579
1539731602228323,0.3967345693140487,-4.9134050507361735,7.782101167315204
1539731602244415,0.213626306553806,-4.364080262455218,4.364080262455218
1539731602260424,0.2746623941404778,-3.7537193865873633,0.8239871824216607
1539731602276433,0.3967345693140487,-2.9602502479590385,-2.7771419851987957
1539731602292441,0.7629510948347615,-2.04470893415737,-6.256198977645454
1539731602308450,1.6174563210497581,-1.8005645838102282,-8.758678568703772
1539731602324459,2.7161058976118966,-2.288853284504512,-9.918364232852582
1539731602340468,3.0823224231326094,-3.0823224231326094,-10.345616845960194
1539731602356477,3.0212863355459376,-3.7537193865873633,-10.467689021133765
1539731602372486,2.9602502479590385,-4.180971999694748,-10.528725108720437
1539731602388495,3.4485389486533222,-4.486152437628789,-10.711833371480907
1539731602404503,4.180971999694748,-4.730296787975931,-10.650797283894008
1539731602420512,4.364080262455218,-4.547188525215461,-10.528725108720437
1539731602436521,3.997863736934505,-4.119935912108076,-10.467689021133765
1539731602452530,3.6316472114137923,-3.5095750362402214,-10.528725108720437
1539731602468539,3.6316472114137923,-2.9602502479590385,-10.711833371480907
1539731602484548,3.570611123826893,-2.288853284504512,-10.589761196307336
1539731602500557,3.3264667734797513,-1.6174563210497581,-10.101472495613052
1539731602516565,2.7771419851987957,-0.9460593575952316,-9.308003356984727
1539731602532574,2.5940337224383256,-0.45777065690094787,-8.45349813076973
1539731602548583,3.2043945983061803,-0.15259021896690683,-7.2938124666209205
1539731602564636,4.242008087281647,-0.03051804379333589,-5.584802014190927
1539731602580645,4.180971999694748,0.03051804379333589,-3.2043945983061803
1539731602596654,2.532997634851654,0.03051804379333589,-0.33569848172737693
1539731602612662,0.2746623941404778,-0.2746623941404778,2.227817196917613
1539731602628671,-1.3122758831159445,-0.7629510948347615,3.814755474174035
1539731602644680,-1.739528496223329,-1.4953841458761872,3.997863736934505
1539731602660689,-0.9460593575952316,-2.105745021744042,3.4485389486533222
1539731602676698,-0.15259021896690683,-2.5940337224383256,3.2654306858930795
1539731602692707,-0.5188067444876197,-3.2654306858930795,3.814755474174035
1539731602708716,-1.8616006713969,-4.119935912108076,4.730296787975931
1539731602724724,-2.5940337224383256,-4.852368963149502,5.2185854886702145
1539731602740733,-2.8381780727854675,-4.9134050507361735,4.791332875562603
1539731602756742,-3.0823224231326094,-4.303044174868319,4.119935912108076
1539731602772751,-2.7161058976118966,-4.119935912108076,3.814755474174035
1539731602788760,-2.04470893415737,-4.242008087281647,3.875791561760934
1539731602804769,-1.5564202334630863,-4.242008087281647,3.875791561760934
1539731602820778,-1.2512397955290453,-3.875791561760934,3.7537193865873633
1539731602836786,-0.8239871824216607,-3.3875028610666504,3.2654306858930795
1539731602852795,-0.45777065690094787,-2.8381780727854675,2.532997634851654
1539731602868804,-0.33569848172737693,-2.410925459678083,1.983672846570471
1539731602884918,-0.7629510948347615,-1.8005645838102282,2.166781109330941
1539731602900927,-1.1902037079423735,-1.1902037079423735,2.532997634851654
1539731602916936,-1.3122758831159445,-0.8239871824216607,3.1433585107195086
1539731602932946,-1.2512397955290453,-0.8239871824216607,3.692683299000464
1539731602948955,-0.7629510948347615,-0.8239871824216607,3.936827649347606
1539731602964964,-0.03051804379333589,-1.0681315327688026,3.875791561760934
1539731602980974,0.9460593575952316,-1.6174563210497581,3.6316472114137923
1539731602996983,1.4343480582895154,-1.983672846570471,3.1433585107195086
1539731603012992,1.4953841458761872,-1.9226367589837992,2.04470893415737
1539731603029002,1.6174563210497581,-1.4953841458761872,0.5188067444876197
1539731603045011,1.8616006713969,-1.1291676203554744,-1.1902037079423735
1539731603061020,2.105745021744042,-0.7629510948347615,-3.0823224231326094
1539731603077030,2.227817196917613,-0.5798428320745188,-4.42511635004189
1539731603093039,2.3498893720911838,-0.5798428320745188,-5.279621576256886
1539731603109048,2.227817196917613,-0.7629510948347615,-5.584802014190927
1539731603125058,1.8616006713969,-1.1291676203554744,-5.157549401083315
1539731603141067,1.4953841458761872,-1.6784924086366573,-4.364080262455218
1539731603157076,0.9460593575952316,-2.105745021744042,-3.3875028610666504
1539731603173086,0.2746623941404778,-2.288853284504512,-2.166781109330941
1539731603189095,-0.213626306553806,-2.410925459678083,-0.7629510948347615
1539731603205169,-0.7629510948347615,-2.655069810025225,0.8850232700083325
1539731603221179,-1.2512397955290453,-3.3264667734797513,2.532997634851654
1539731603237189,-1.3122758831159445,-4.42511635004189,3.7537193865873633
1539731603253199,-0.8239871824216607,-5.279621576256886,4.180971999694748
1539731603269209,0.15259021896690683,-5.706874189364498,3.875791561760934
1539731603285218,0.8239871824216607,-5.2185854886702145,3.2043945983061803
1539731603301228,0.5798428320745188,-4.119935912108076,2.5940337224383256
1539731603317238,-0.213626306553806,-2.8381780727854675,1.6174563210497581
1539731603333248,-0.8850232700083325,-1.4343480582895154,0.3967345693140487
1539731603349258,-0.6408789196611906,-0.45777065690094787,-1.0681315327688026
1539731603365267,0.15259021896690683,0.03051804379333589,-2.166781109330941
1539731603381277,0.5798428320745188,-0.09155413138023505,-2.288853284504512
1539731603397287,0.33569848172737693,-0.6408789196611906,-1.3733119707026162
1539731603413297,-0.03051804379333589,-1.1902037079423735,0.03051804379333589
1539731603429307,0.213626306553806,-1.9226367589837992,1.4343480582895154
1539731603445316,0.9460593575952316,-2.4719615472647547,2.532997634851654
1539731603461326,1.5564202334630863,-2.532997634851654,3.3264667734797513
1539731603477336,1.739528496223329,-2.288853284504512,3.936827649347606
1539731603493346,1.4343480582895154,-2.227817196917613,4.303044174868319
1539731603509356,1.2512397955290453,-2.5940337224383256,4.242008087281647
1539731603525421,1.739528496223329,-3.0823224231326094,3.2043945983061803
1539731603541431,2.7161058976118966,-3.1433585107195086,1.5564202334630863
1539731603557440,3.4485389486533222,-2.8381780727854675,-0.45777065690094787
1539731603573450,3.875791561760934,-2.04470893415737,-2.288853284504512
1539731603589460,3.6316472114137923,-0.8239871824216607,-3.7537193865873633
1539731603605470,2.532997634851654,0.9460593575952316,-5.401693751430457
1539731603621480,1.3122758831159445,2.3498893720911838,-7.4158846417944915
1539731603637489,1.3733119707026162,2.8992141603723667,-9.369039444571627
1539731603653499,2.105745021744042,2.288853284504512,-10.223544670786623
1539731603669509,1.8005645838102282,1.5564202334630863,-9.918364232852582
1539731603685519,-0.33569848172737693,1.6784924086366573,-8.880750743877343
1539731603701529,-2.288853284504512,2.227817196917613,-7.660028992141633
1539731603717538,-2.655069810025225,2.4719615472647547,-6.561379415579495
1539731603733548,-1.1902037079423735,2.04470893415737,-5.706874189364498
1539731603749558,0.3967345693140487,1.4953841458761872,-5.401693751430457
1539731603765568,1.0070954451819034,1.2512397955290453,-5.645838101777599
1539731603781578,1.1291676203554744,1.1902037079423735,-6.195162890058782
1539731603797587,1.5564202334630863,0.7629510948347615,-6.683451590753066
1539731603813597,2.227817196917613,0.09155413138023505,-7.17174029144735
1539731603829607,2.7161058976118966,-0.5798428320745188,-7.476920729381163
1539731603845672,3.0212863355459376,-0.5798428320745188,-7.843137254901876
1539731603861682,3.1433585107195086,-0.2746623941404778,-8.087281605249018
1539731603877692,3.1433585107195086,0.33569848172737693,-8.270389868009488
1539731603893702,2.9602502479590385,0.8239871824216607,-8.270389868009488
1539731603909711,2.5940337224383256,1.5564202334630863,-7.965209430075447
1539731603925721,1.8616006713969,2.410925459678083,-7.11070420386045
1539731603941731,0.33569848172737693,3.1433585107195086,-5.523765926604028
1539731603957741,-1.6174563210497581,3.5095750362402214,-3.2654306858930795
1539731603973751,-3.0823224231326094,3.0212863355459376,-0.8850232700083325
1539731603989761,-3.5095750362402214,1.6784924086366573,1.2512397955290453
1539731604005770,-3.0823224231326094,-0.03051804379333589,2.7771419851987957
1539731604021780,-2.410925459678083,-1.8005645838102282,4.058899824521177
1539731604037790,-2.410925459678083,-3.570611123826893,5.645838101777599
1539731604053800,-3.6316472114137923,-4.974441138323073,7.2938124666209205
1539731604069810,-4.547188525215461,-6.256198977645454,8.45349813076973
1539731604085819,-4.303044174868319,-7.2938124666209205,8.941786831464015
1539731604101829,-3.7537193865873633,-7.476920729381163,8.575570305943302
1539731604117839,-3.570611123826893,-7.232776379034021,8.209353780422589
1539731604133849,-3.692683299000464,-6.8665598535133086,8.087281605249018
1539731604149859,-3.814755474174035,-6.561379415579495,7.660028992141633
1539731604165924,-3.2654306858930795,-6.378271152819025,6.317235065232353
1539731604181934,-1.1291676203554744,-6.256198977645454,4.547188525215461
1539731604197944,1.1902037079423735,-5.645838101777599,3.0212863355459376
1539731604213955,2.166781109330941,-4.180971999694748,1.8005645838102282
1539731604229965,1.2512397955290453,-1.983672846570471,0.9460593575952316
1539731604245975,-0.09155413138023505,0.213626306553806,-0.03051804379333589
1539731604261985,-0.2746623941404778,1.8005645838102282,-1.9226367589837992
1539731604277996,1.4343480582895154,2.4719615472647547,-4.303044174868319
1539731604294006,3.7537193865873633,2.532997634851654,-6.073090714885211
1539731604310016,4.058899824521177,2.7771419851987957,-6.317235065232353
1539731604326027,1.739528496223329,3.2654306858930795,-5.096513313496644
1539731604342037,-1.0681315327688026,3.570611123826893,-3.2043945983061803
1539731604358047,-2.227817196917613,3.2654306858930795,-2.166781109330941
1539731604374057,-0.5798428320745188,1.983672846570471,-1.9226367589837992
1539731604390068,1.8005645838102282,0.03051804379333589,-1.1291676203554744
1539731604406078,1.6174563210497581,-1.983672846570471,0.7019150072480898
1539731604422088,-1.3733119707026162,-3.3264667734797513,2.8992141603723667
1539731604438099,-3.997863736934505,-4.058899824521177,3.997863736934505
1539731604454109,-3.6316472114137923,-4.60822461280236,3.4485389486533222
1539731604470119,-1.2512397955290453,-5.2185854886702145,1.8616006713969
1539731604486175,0.213626306553806,-5.828946364538069,0.213626306553806
1539731604502185,-0.213626306553806,-6.317235065232353,-0.45777065690094787
1539731604518196,-1.9226367589837992,-6.317235065232353,-0.5188067444876197
1539731604534206,-2.7771419851987957,-5.76791027695117,-0.6408789196611906
1539731604550216,-2.410925459678083,-5.096513313496644,-0.45777065690094787
1539731604566227,-1.9226367589837992,-4.547188525215461,-0.213626306553806
1539731604582237,-2.105745021744042,-4.058899824521177,0.09155413138023505
1539731604598247,-1.9226367589837992,-4.119935912108076,0.6408789196611906
1539731604614257,-1.0681315327688026,-4.180971999694748,1.8005645838102282
1539731604630268,-0.45777065690094787,-4.058899824521177,2.9602502479590385
1539731604646278,-0.6408789196611906,-3.5095750362402214,3.7537193865873633
1539731604662288,-1.3733119707026162,-2.7161058976118966,4.180971999694748
1539731604678299,-2.410925459678083,-1.3122758831159445,4.058899824521177
1539731604694309,-3.4485389486533222,0.5188067444876197,3.0823224231326094
1539731604710319,-3.5095750362402214,1.4343480582895154,2.5940337224383256
1539731604726329,-3.0212863355459376,0.8850232700083325,3.5095750362402214
1539731604742340,-3.1433585107195086,-0.45777065690094787,4.9134050507361735
1539731604758350,-3.1433585107195086,-1.739528496223329,6.256198977645454
1539731604774360,-2.3498893720911838,-3.3264667734797513,7.2938124666209205
1539731604790371,-0.5188067444876197,-5.645838101777599,7.843137254901876
1539731604806427,1.4343480582895154,-8.087281605249018,8.209353780422589
1539731604822437,2.655069810025225,-9.491111619745197,8.392462043183059
1539731604838448,1.983672846570471,-9.002822919050914,7.904173342488775
1539731604854459,0.213626306553806,-6.317235065232353,6.256198977645454
1539731604870470,-0.33569848172737693,-3.2043945983061803,4.364080262455218
1539731604886480,-0.09155413138023505,-0.5798428320745188,2.8381780727854675
1539731604902491,-0.7019150072480898,1.8005645838102282,1.4953841458761872
1539731604918502,-2.410925459678083,4.058899824521177,0.09155413138023505
1539731604934513,-3.570611123826893,5.889982452124741,-1.4953841458761872
1539731604950523,-3.5095750362402214,6.744487678339738,-2.9602502479590385
1539731604966534,-2.655069810025225,6.500343327992596,-3.936827649347606
1539731604982545,-1.8005645838102282,5.279621576256886,-3.936827649347606
1539731604998556,-0.8850232700083325,3.1433585107195086,-3.0823224231326094
1539731605014567,0.213626306553806,0.6408789196611906,-1.8005645838102282
1539731605030577,1.4343480582895154,-1.9226367589837992,-0.7019150072480898
1539731605046588,2.410925459678083,-4.486152437628789,0.15259021896690683
1539731605062599,3.3264667734797513,-6.805523765926637,0.7629510948347615
1539731605078610,3.997863736934505,-8.270389868009488,1.0681315327688026
1539731605094620,4.058899824521177,-8.575570305943302,0.7019150072480898
1539731605110631,3.7537193865873633,-7.782101167315204,-0.45777065690094787
1539731605126678,3.4485389486533222,-6.439307240405924,-1.983672846570471
1539731605142689,3.1433585107195086,-5.096513313496644,-3.6316472114137923
1539731605158700,2.532997634851654,-3.692683299000464,-5.279621576256886
1539731605174710,1.8616006713969,-2.5940337224383256,-6.195162890058782
1539731605190721,1.1902037079423735,-1.8005645838102282,-6.073090714885211
1539731605206732,0.2746623941404778,-1.3122758831159445,-5.462729839017356
1539731605222743,-0.3967345693140487,-0.9460593575952316,-4.364080262455218
1539731605238753,0.15259021896690683,-1.0681315327688026,-2.7771419851987957
1539731605254764,1.0681315327688026,-1.8005645838102282,-0.45777065690094787
1539731605270775,1.1291676203554744,-2.8381780727854675,2.3498893720911838
1539731605286786,0.33569848172737693,-3.3875028610666504,5.2185854886702145
1539731605302796,-0.45777065690094787,-3.570611123826893,7.4158846417944915
1539731605318807,-0.5798428320745188,-3.936827649347606,8.819714656290444
1539731605334818,0.213626306553806,-4.669260700389032,9.369039444571627
1539731605350829,1.3733119707026162,-5.2185854886702145,9.491111619745197
1539731605366840,1.8616006713969,-5.0354772259097444,9.430075532158298
1539731605382850,0.8850232700083325,-3.814755474174035,9.185931181811156
1539731605398861,-0.6408789196611906,-2.227817196917613,8.45349813076973
1539731605414872,-1.2512397955290453,-1.1291676203554744,7.537956816968062
1539731605430883,-0.6408789196611906,-0.9460593575952316,6.500343327992596
1539731605446930,0.213626306553806,-1.3733119707026162,5.523765926604028
1539731605462940,0.5798428320745188,-2.105745021744042,4.852368963149502
1539731605478951,-0.03051804379333589,-2.4719615472647547,4.180971999694748
1539731605494962,-0.9460593575952316,-2.8381780727854675,3.0823224231326094
1539731605510973,-0.7629510948347615,-3.4485389486533222,1.8005645838102282
1539731605526983,0.6408789196611906,-4.486152437628789,0.7629510948347615
1539731605542994,1.739528496223329,-5.401693751430457,0.15259021896690683
1539731605559005,1.6174563210497581,-5.584802014190927,0.03051804379333589
1539731605575016,0.3967345693140487,-5.096513313496644,-0.09155413138023505
1539731605591026,-0.5798428320745188,-4.242008087281647,-0.6408789196611906
1539731605607037,-0.33569848172737693,-3.7537193865873633,-1.5564202334630863
1539731605623048,0.5798428320745188,-3.692683299000464,-2.532997634851654
1539731605639059,1.3122758831159445,-3.692683299000464,-3.2654306858930795
1539731605655069,1.3122758831159445,-3.3875028610666504,-3.5095750362402214
1539731605671080,1.1291676203554744,-3.0823224231326094,-3.3875028610666504
1539731605687091,1.0681315327688026,-2.8381780727854675,-3.0212863355459376
1539731605703102,1.2512397955290453,-2.4719615472647547,-2.655069810025225
1539731605719112,1.4953841458761872,-1.8005645838102282,-2.5940337224383256
1539731605735123,1.8005645838102282,-1.2512397955290453,-2.410925459678083
1539731605751134,1.9226367589837992,-1.1902037079423735,-1.9226367589837992
1539731605767181,1.6784924086366573,-1.2512397955290453,-1.3122758831159445
1539731605783192,1.3733119707026162,-1.1902037079423735,-0.8239871824216607
1539731605799203,1.1291676203554744,-1.3733119707026162,-0.5188067444876197
1539731605815215,1.1902037079423735,-1.8616006713969,-0.213626306553806
1539731605831226,1.3733119707026162,-2.5940337224383256,-0.03051804379333589
1539731605847237,1.3122758831159445,-3.1433585107195086,0.213626306553806
1539731605863248,0.7629510948347615,-3.3264667734797513,0.09155413138023505
1539731605879260,0.2746623941404778,-3.0823224231326094,-0.213626306553806
1539731605895271,0.33569848172737693,-2.8381780727854675,-0.45777065690094787
1539731605911282,0.5798428320745188,-2.655069810025225,-0.213626306553806
1539731605927293,0.7019150072480898,-2.7161058976118966,0.45777065690094787
1539731605943305,0.3967345693140487,-2.8381780727854675,1.4953841458761872
1539731605959316,0.09155413138023505,-2.5940337224383256,2.105745021744042
1539731605975327,0.2746623941404778,-2.166781109330941,2.227817196917613
1539731605991338,0.8850232700083325,-1.9226367589837992,2.04470893415737
1539731606007350,1.2512397955290453,-1.6784924086366573,1.5564202334630863
1539731606023361,1.0070954451819034,-1.4343480582895154,0.8850232700083325
1539731606039372,0.7629510948347615,-1.0681315327688026,-0.03051804379333589
1539731606055383,0.8850232700083325,-1.0070954451819034,-1.0070954451819034
1539731606071395,1.3733119707026162,-1.3122758831159445,-1.8005645838102282
1539731606087432,1.6174563210497581,-1.6174563210497581,-2.288853284504512
1539731606103444,1.6174563210497581,-1.6174563210497581,-2.4719615472647547
1539731606119455,1.6174563210497581,-1.3733119707026162,-2.166781109330941
1539731606135466,1.4343480582895154,-1.1291676203554744,-1.5564202334630863
1539731606151477,1.0070954451819034,-1.0070954451819034,-1.0681315327688026
1539731606167489,0.9460593575952316,-1.1291676203554744,-0.7019150072480898
1539731606183500,1.3122758831159445,-1.4343480582895154,-0.7019150072480898
1539731606199511,1.6784924086366573,-1.8616006713969,-1.0681315327688026
1539731606215522,1.5564202334630863,-2.3498893720911838,-1.3122758831159445
1539731606231534,1.1291676203554744,-2.8381780727854675,-1.4343480582895154
1539731606247545,1.0681315327688026,-3.3264667734797513,-1.6784924086366573
1539731606263556,1.8005645838102282,-3.692683299000464,-1.8005645838102282
1539731606279567,2.288853284504512,-3.570611123826893,-1.8005645838102282
1539731606295579,1.983672846570471,-2.5940337224383256,-1.3733119707026162
1539731606311590,1.0681315327688026,-1.3733119707026162,-0.5798428320745188
1539731606327601,0.213626306553806,-0.5188067444876197,0.5188067444876197
1539731606343612,-0.09155413138023505,-0.15259021896690683,1.3733119707026162
1539731606359624,0.2746623941404778,-0.5188067444876197,2.166781109330941
1539731606375635,0.9460593575952316,-1.3122758831159445,3.1433585107195086
1539731606391646,1.0681315327688026,-1.983672846570471,3.997863736934505
1539731606407684,0.45777065690094787,-2.5940337224383256,4.791332875562603
1539731606423695,-0.33569848172737693,-3.2043945983061803,5.3406576638437855
1539731606439706,-0.6408789196611906,-3.875791561760934,5.279621576256886
1539731606455718,-0.2746623941404778,-4.486152437628789,4.730296787975931
1539731606471729,0.3967345693140487,-4.852368963149502,4.058899824521177
1539731606487740,0.3967345693140487,-5.096513313496644,3.6316472114137923
1539731606503751,-0.45777065690094787,-4.669260700389032,3.3875028610666504
1539731606519763,-1.1902037079423735,-3.936827649347606,3.0212863355459376
1539731606535774,-0.8239871824216607,-3.2043945983061803,2.532997634851654
1539731606551785,0.09155413138023505,-2.8381780727854675,2.227817196917613
1539731606567796,0.213626306553806,-2.655069810025225,1.8616006713969
1539731606583808,-0.15259021896690683,-2.7771419851987957,1.6174563210497581
1539731606599819,-0.213626306553806,-3.2654306858930795,1.3733119707026162
1539731606615830,0.5188067444876197,-3.997863736934505,0.8239871824216607
1539731606631841,1.4953841458761872,-4.242008087281647,-0.09155413138023505
1539731606647853,1.8616006713969,-3.7537193865873633,-0.8850232700083325
1539731606663864,1.6174563210497581,-2.7771419851987957,-1.3122758831159445
1539731606679875,1.3733119707026162,-2.166781109330941,-1.0681315327688026
1539731606695886,1.4953841458761872,-2.04470893415737,-0.33569848172737693
1539731606711897,1.4953841458761872,-2.04470893415737,0.3967345693140487
1539731606727935,1.2512397955290453,-1.9226367589837992,0.7629510948347615
1539731606743947,1.0681315327688026,-1.5564202334630863,0.8239871824216607
1539731606759958,1.2512397955290453,-1.2512397955290453,0.5798428320745188
1539731606775969,1.4953841458761872,-1.1902037079423735,0.15259021896690683
1539731606791980,1.3122758831159445,-1.1902037079423735,-0.09155413138023505
1539731606807992,0.5798428320745188,-1.1902037079423735,-0.2746623941404778
1539731606824003,0.3967345693140487,-1.5564202334630863,-0.5798428320745188
1539731606840014,0.9460593575952316,-2.288853284504512,-0.7019150072480898
1539731606856025,1.4953841458761872,-3.2654306858930795,-0.6408789196611906
1539731606872037,1.3122758831159445,-3.7537193865873633,-0.33569848172737693
1539731606888048,1.0070954451819034,-3.997863736934505,0.213626306553806
1539731606904059,0.8850232700083325,-4.180971999694748,0.8850232700083325
1539731606920070,0.5188067444876197,-4.364080262455218,1.4343480582895154
1539731606936082,0.03051804379333589,-4.180971999694748,1.4953841458761872
1539731606952093,-0.15259021896690683,-3.6316472114137923,1.1902037079423735
1539731606968104,0.09155413138023505,-2.9602502479590385,0.9460593575952316
1539731606984115,0.03051804379333589,-2.410925459678083,0.8239871824216607
1539731607000126,-0.5798428320745188,-1.739528496223329,0.8239871824216607
1539731607016138,-0.8239871824216607,-1.2512397955290453,0.5798428320745188
1539731607032149,-0.09155413138023505,-1.1291676203554744,0.15259021896690683
1539731607048217,1.4953841458761872,-1.4953841458761872,-0.2746623941404778
1539731607064229,2.288853284504512,-1.8005645838102282,-0.5188067444876197
1539731607080241,1.8005645838102282,-1.0070954451819034,-1.2512397955290453
1539731607096253,1.9226367589837992,0.5798428320745188,-2.532997634851654
1539731607112264,3.0823224231326094,1.8005645838102282,-3.570611123826893
1539731607128276,4.119935912108076,2.532997634851654,-4.180971999694748
1539731607144288,4.180971999694748,3.0212863355459376,-4.42511635004189
1539731607160299,3.2654306858930795,3.2043945983061803,-4.058899824521177
1539731607176311,1.983672846570471,3.3264667734797513,-3.3875028610666504
1539731607192323,1.0070954451819034,2.9602502479590385,-2.7161058976118966
1539731607208335,1.1902037079423735,1.8616006713969,-1.983672846570471
1539731607224346,2.166781109330941,-0.03051804379333589,-1.1291676203554744
1539731607240358,3.0212863355459376,-2.227817196917613,-0.15259021896690683
1539731607256370,2.5940337224383256,-3.7537193865873633,1.0070954451819034
1539731607272381,1.0070954451819034,-4.486152437628789,1.6784924086366573
1539731607288393,-0.33569848172737693,-4.547188525215461,1.6174563210497581
1539731607304405,-0.15259021896690683,-4.486152437628789,1.1902037079423735
1539731607320417,0.5188067444876197,-4.486152437628789,0.7629510948347615
1539731607336428,0.3967345693140487,-4.180971999694748,0.2746623941404778
1539731607352440,-0.33569848172737693,-3.875791561760934,-0.09155413138023505
1539731607368469,-1.0070954451819034,-3.692683299000464,-0.09155413138023505
1539731607384481,-1.5564202334630863,-3.875791561760934,0.03051804379333589
1539731607400492,-1.4343480582895154,-4.303044174868319,-0.213626306553806
1539731607416504,-0.2746623941404778,-4.547188525215461,-0.5798428320745188
1539731607432516,1.0681315327688026,-4.42511635004189,-0.7629510948347615
1539731607448527,1.1902037079423735,-3.5095750362402214,-0.5188067444876197
1539731607464539,0.03051804379333589,-2.410925459678083,0.09155413138023505
1539731607480551,-1.5564202334630863,-1.4953841458761872,1.1902037079423735
1539731607496563,-2.3498893720911838,-1.1902037079423735,1.739528496223329
1539731607512574,-1.4343480582895154,-1.2512397955290453,1.8005645838102282
1539731607528586,-0.03051804379333589,-1.5564202334630863,1.983672846570471
1539731607544598,0.213626306553806,-1.6784924086366573,2.4719615472647547
1539731607560609,-0.5188067444876197,-1.739528496223329,3.0212863355459376
1539731607576621,-0.8850232700083325,-1.6784924086366573,3.4485389486533222
1539731607592633,-0.7019150072480898,-1.6174563210497581,3.1433585107195086
1539731607608645,-0.03051804379333589,-1.739528496223329,2.3498893720911838
1539731607624656,0.7629510948347615,-1.9226367589837992,1.6174563210497581
1539731607640668,1.1291676203554744,-2.105745021744042,1.3122758831159445
1539731607656680,0.5798428320745188,-1.983672846570471,1.2512397955290453
1539731607672691,-0.03051804379333589,-1.739528496223329,0.8239871824216607
1539731607688720,0.3967345693140487,-1.8005645838102282,0.15259021896690683
1539731607704732,1.8005645838102282,-2.7161058976118966,-0.03051804379333589
1539731607720744,2.105745021744042,-3.936827649347606,0.09155413138023505
1539731607736755,0.7019150072480898,-4.60822461280236,-0.15259021896690683
1539731607752767,-0.2746623941404778,-4.547188525215461,-1.4953841458761872
1539731607768779,0.3967345693140487,-4.364080262455218,-3.3875028610666504
1539731607784791,2.105745021744042,-4.486152437628789,-5.3406576638437855
1539731607800802,3.2043945983061803,-4.486152437628789,-6.439307240405924
1539731607816814,2.8992141603723667,-3.936827649347606,-6.317235065232353
1539731607832826,1.4953841458761872,-2.8381780727854675,-5.706874189364498
1539731607848837,0.5188067444876197,-1.6784924086366573,-5.2185854886702145
1539731607864849,0.6408789196611906,-0.6408789196611906,-4.669260700389032
1539731607880861,1.2512397955290453,0.09155413138023505,-3.997863736934505
1539731607896873,1.6174563210497581,0.5798428320745188,-3.0212863355459376
1539731607912884,1.6784924086366573,0.6408789196611906,-1.5564202334630863
1539731607928896,1.4343480582895154,0.5798428320745188,-0.2746623941404778
1539731607944908,1.1902037079423735,0.45777065690094787,0.8239871824216607
1539731607960919,1.2512397955290453,0.03051804379333589,1.5564202334630863
1539731607976931,1.4953841458761872,-0.6408789196611906,2.105745021744042
1539731607992943,1.3733119707026162,-0.8239871824216607,2.288853284504512
1539731608008972,0.8850232700083325,-0.5188067444876197,2.410925459678083
1539731608024984,0.09155413138023505,0.15259021896690683,2.532997634851654
1539731608040995,-0.15259021896690683,0.3967345693140487,2.5940337224383256
1539731608057007,0.15259021896690683,-0.15259021896690683,2.8992141603723667
1539731608073019,0.45777065690094787,-1.1902037079423735,3.3264667734797513
1539731608089030,0.09155413138023505,-1.8616006713969,3.570611123826893
1539731608105042,-0.7019150072480898,-1.9226367589837992,3.3875028610666504
1539731608121054,-1.1291676203554744,-1.9226367589837992,3.0212863355459376
1539731608137066,-0.7019150072480898,-2.655069810025225,2.8381780727854675
1539731608153077,-0.15259021896690683,-3.7537193865873633,2.8992141603723667
1539731608169089,-0.2746623941404778,-4.486152437628789,2.7161058976118966
1539731608185101,-0.6408789196611906,-4.669260700389032,2.227817196917613
1539731608201112,-0.8239871824216607,-4.547188525215461,1.6784924086366573
1539731608217124,-0.7629510948347615,-4.119935912108076,1.1291676203554744
1539731608233136,-0.5188067444876197,-3.5095750362402214,0.5798428320745188
1539731608249148,-0.3967345693140487,-2.8381780727854675,0.45777065690094787
1539731608265159,-0.5798428320745188,-2.3498893720911838,0.3967345693140487
1539731608281171,-0.5188067444876197,-2.04470893415737,0.213626306553806
1539731608297183,-0.03051804379333589,-2.04470893415737,-0.15259021896690683
1539731608313194,0.6408789196611906,-1.9226367589837992,-0.7019150072480898
1539731608329223,0.9460593575952316,-1.4953841458761872,-1.2512397955290453
1539731608345235,1.1291676203554744,-1.0070954451819034,-1.6174563210497581
1539731608361247,1.2512397955290453,-0.5798428320745188,-1.6784924086366573
1539731608377258,1.2512397955290453,-0.45777065690094787,-1.6174563210497581
1539731608393270,1.2512397955290453,-0.3967345693140487,-1.739528496223329
1539731608409282,1.4343480582895154,-0.5798428320745188,-1.8616006713969
1539731608425294,1.8616006713969,-0.9460593575952316,-1.8616006713969
1539731608441305,2.166781109330941,-1.2512397955290453,-1.4953841458761872
1539731608457317,1.983672846570471,-1.2512397955290453,-0.8850232700083325
1539731608473329,1.3122758831159445,-1.0681315327688026,-0.213626306553806
1539731608489340,0.7629510948347615,-1.0070954451819034,0.45777065690094787
1539731608505352,0.8239871824216607,-1.3122758831159445,1.1902037079423735
1539731608521364,0.8239871824216607,-1.6784924086366573,1.9226367589837992
1539731608537376,0.33569848172737693,-2.105745021744042,2.4719615472647547
1539731608553387,-0.15259021896690683,-2.5940337224383256,2.7161058976118966
1539731608569399,-0.03051804379333589,-3.3264667734797513,2.532997634851654
1539731608585411,0.7019150072480898,-4.180971999694748,1.8616006713969
1539731608601422,1.1902037079423735,-4.791332875562603,1.0070954451819034
1539731608617434,1.1902037079423735,-4.852368963149502,0.45777065690094787
1539731608633446,0.8239871824216607,-4.669260700389032,0.09155413138023505
1539731608649444,0.5188067444876197,-4.180971999694748,-0.09155413138023505
1539731608665456,0.03051804379333589,-3.3264667734797513,-0.15259021896690683
1539731608681468,-0.45777065690094787,-2.410925459678083,-0.33569848172737693
1539731608697479,-0.213626306553806,-1.8616006713969,-0.5188067444876197
1539731608713491,0.7019150072480898,-1.8005645838102282,-0.3967345693140487
1539731608729503,1.1902037079423735,-1.739528496223329,0.03051804379333589
1539731608745514,0.6408789196611906,-1.4953841458761872,0.45777065690094787
1539731608761526,0.33569848172737693,-1.3733119707026162,0.7019150072480898
1539731608777538,0.8239871824216607,-1.4953841458761872,0.7629510948347615
1539731608793550,1.739528496223329,-1.9226367589837992,0.8239871824216607
1539731608809561,1.9226367589837992,-2.166781109330941,0.9460593575952316
1539731608825573,1.4343480582895154,-2.227817196917613,0.9460593575952316
1539731608841585,1.1291676203554744,-2.410925459678083,0.8239871824216607
1539731608857596,-4.242008087281647,-8.026245517662346,5.2185854886702145
1539731608873608,-14.862287327382319,-9.491111619745197,6.073090714885211
1539731608889620,-1.1291676203554744,10.162508583199724,-9.73525597009234
1539731608905632,3.936827649347606,10.162508583199724,-5.95101853971164
1539731608921643,9.185931181811156,7.476920729381163,-1.3122758831159445
1539731608937655,-2.288853284504512,2.410925459678083,3.2654306858930795
1539731608953667,-14.190890363927565,-2.04470893415737,6.927595941100208
1539731608969726,-18.219272144655406,-5.706874189364498,7.4158846417944915
1539731608985738,-16.32715342946517,-10.467689021133765,5.0354772259097444
1539731609001751,-8.941786831464015,-15.533684290836845,2.105745021744042
1539731609017763,-2.5940337224383256,-18.70756084534969,-0.03051804379333589
1539731609033775,-1.9226367589837992,-17.79201953154802,-1.6174563210497581
1539731609049787,-3.5095750362402214,-14.557106889448278,-4.242008087281647
1539731609065799,-2.7161058976118966,-11.566338597695903,-6.561379415579495
1539731609081812,-0.5188067444876197,-9.55214770733187,-8.026245517662346
1539731609097824,-0.45777065690094787,-7.965209430075447,-8.392462043183059
1539731609113836,-1.9226367589837992,-6.622415503166167,-7.232776379034021
1539731609129848,-2.4719615472647547,-5.462729839017356,-5.462729839017356
1539731609145860,-1.6784924086366573,-3.814755474174035,-4.242008087281647
1539731609161872,0.45777065690094787,-1.8005645838102282,-3.3264667734797513
1539731609177885,2.3498893720911838,0.15259021896690683,-1.9226367589837992
1539731609193897,2.3498893720911838,1.8005645838102282,0.03051804379333589
1539731609209909,1.2512397955290453,2.9602502479590385,1.9226367589837992
1539731609225921,1.1902037079423735,3.3875028610666504,3.6316472114137923
1539731609241933,2.8992141603723667,3.0212863355459376,4.974441138323073
1539731609257946,4.547188525215461,3.0212863355459376,5.76791027695117
1539731609273958,4.9134050507361735,3.6316472114137923,6.073090714885211
1539731609289978,4.486152437628789,4.730296787975931,6.012054627298312
1539731609305990,3.6316472114137923,5.76791027695117,5.889982452124741
1539731609322002,3.2043945983061803,6.317235065232353,5.584802014190927
1539731609338014,3.3264667734797513,6.317235065232353,5.279621576256886
1539731609354026,3.814755474174035,5.76791027695117,5.157549401083315
1539731609370039,4.119935912108076,4.9134050507361735,5.2185854886702145
1539731609386051,3.4485389486533222,4.058899824521177,5.462729839017356
1539731609402063,2.288853284504512,3.2654306858930795,5.401693751430457
1539731609418075,1.5564202334630863,2.410925459678083,4.974441138323073
1539731609434087,1.739528496223329,1.1291676203554744,4.42511635004189
1539731609450100,2.04470893415737,-0.213626306553806,3.875791561760934
1539731609466112,1.5564202334630863,-1.5564202334630863,3.2654306858930795
1539731609482124,0.5798428320745188,-2.4719615472647547,2.4719615472647547
1539731609498136,-0.2746623941404778,-3.2043945983061803,1.4343480582895154
1539731609514148,-0.09155413138023505,-3.875791561760934,-0.03051804379333589
1539731609530161,0.5798428320745188,-4.60822461280236,-1.1902037079423735
1539731609546173,0.8239871824216607,-5.0354772259097444,-1.739528496223329
1539731609562185,0.33569848172737693,-5.2185854886702145,-1.8616006713969
1539731609578197,-0.3967345693140487,-5.157549401083315,-1.6784924086366573
1539731609594209,-0.7629510948347615,-5.2185854886702145,-1.6174563210497581
1539731609610260,-0.5188067444876197,-5.157549401083315,-1.6784924086366573
1539731609626272,-0.03051804379333589,-5.157549401083315,-1.8616006713969
1539731609642284,0.45777065690094787,-5.096513313496644,-1.8005645838102282
1539731609658296,0.8850232700083325,-5.2185854886702145,-1.4343480582895154
1539731609674308,0.7629510948347615,-4.9134050507361735,-1.0070954451819034
1539731609690321,0.2746623941404778,-4.486152437628789,-0.5798428320745188
1539731609706333,-0.15259021896690683,-3.875791561760934,-0.6408789196611906
1539731609722345,0.3967345693140487,-3.2043945983061803,-1.0070954451819034
1539731609738357,1.2512397955290453,-2.4719615472647547,-1.1902037079423735
1539731609754369,1.4953841458761872,-1.739528496223329,-1.0070954451819034
1539731609770382,0.5798428320745188,-0.7019150072480898,-0.6408789196611906
1539731609786394,-0.33569848172737693,0.5798428320745188,-0.6408789196611906
1539731609802406,0.03051804379333589,1.4343480582895154,-0.7019150072480898
1539731609818418,1.1291676203554744,1.1902037079423735,-0.3967345693140487
1539731609834430,1.9226367589837992,0.213626306553806,0.5188067444876197
1539731609850443,1.6174563210497581,-0.8239871824216607,1.8005645838102282
1539731609866455,0.7019150072480898,-1.4343480582895154,2.8381780727854675
1539731609882467,-0.15259021896690683,-1.5564202334630863,3.0212863355459376
1539731609898479,-0.3967345693140487,-1.4953841458761872,2.7161058976118966
1539731609914491,-0.213626306553806,-1.4343480582895154,2.105745021744042
1539731609930511,-0.09155413138023505,-1.4953841458761872,1.739528496223329
1539731609946523,-0.2746623941404778,-1.4953841458761872,1.4953841458761872
1539731609962535,-0.3967345693140487,-1.6174563210497581,1.4953841458761872
1539731609978548,-0.213626306553806,-2.04470893415737,1.9226367589837992
1539731609994560,0.03051804379333589,-2.4719615472647547,2.655069810025225
1539731610010572,-0.33569848172737693,-2.655069810025225,3.4485389486533222
1539731610026584,-0.8850232700083325,-2.4719615472647547,3.814755474174035
1539731610042596,-1.1291676203554744,-2.105745021744042,3.814755474174035
1539731610058609,-0.9460593575952316,-2.04470893415737,3.5095750362402214
1539731610074621,-0.6408789196611906,-2.3498893720911838,2.9602502479590385
1539731610090633,-0.5188067444876197,-2.7771419851987957,2.3498893720911838
1539731610106645,-0.5188067444876197,-3.0212863355459376,1.6174563210497581
1539731610122657,-0.33569848172737693,-3.0212863355459376,0.9460593575952316
1539731610138670,0.09155413138023505,-3.0823224231326094,0.33569848172737693
1539731610154682,0.5188067444876197,-2.7771419851987957,-0.15259021896690683
1539731610170694,0.7629510948347615,-2.288853284504512,-0.2746623941404778
1539731610186706,0.7019150072480898,-1.8005645838102282,0.09155413138023505
1539731610202718,0.45777065690094787,-1.3733119707026162,0.6408789196611906
1539731610218731,0.09155413138023505,-1.1902037079423735,1.2512397955290453
1539731610234743,-0.09155413138023505,-1.0681315327688026,1.4343480582895154
1539731610250763,0.09155413138023505,-1.1291676203554744,1.3733119707026162
1539731610266775,0.3967345693140487,-1.4953841458761872,1.0681315327688026
1539731610282787,0.7019150072480898,-2.105745021744042,0.8239871824216607
1539731610298799,0.7019150072480898,-2.655069810025225,0.45777065690094787
1539731610314811,0.9460593575952316,-3.0212863355459376,-0.213626306553806
1539731610330824,1.0070954451819034,-2.655069810025225,-0.7629510948347615
1539731610346836,0.8850232700083325,-1.8616006713969,-1.2512397955290453
1539731610362848,0.5798428320745188,-0.9460593575952316,-1.4343480582895154
1539731610378860,0.6408789196611906,-0.7019150072480898,-1.3122758831159445
1539731610394872,1.0070954451819034,-1.0070954451819034,-0.8239871824216607
1539731610410884,0.8850232700083325,-1.3733119707026162,-0.3967345693140487
1539731610426897,0.6408789196611906,-1.4953841458761872,-0.3967345693140487
1539731610442909,0.8239871824216607,-1.8005645838102282,-0.2746623941404778
1539731610458921,1.4343480582895154,-2.227817196917613,0.09155413138023505
1539731610474933,1.3733119707026162,-2.3498893720911838,0.8239871824216607
1539731610490945,0.3967345693140487,-1.9226367589837992,1.2512397955290453
1539731610506958,-0.45777065690094787,-1.4343480582895154,1.3733119707026162
1539731610522970,-0.3967345693140487,-1.3733119707026162,1.1291676203554744
1539731610538982,0.5798428320745188,-1.8005645838102282,1.0070954451819034
1539731610554994,1.1902037079423735,-2.3498893720911838,1.1291676203554744
1539731610571014,0.8239871824216607,-2.5940337224383256,1.4953841458761872
1539731610587026,0.15259021896690683,-2.655069810025225,1.8005645838102282
1539731610603038,-0.15259021896690683,-2.655069810025225,1.8005645838102282
1539731610619051,0.3967345693140487,-2.655069810025225,1.2512397955290453
1539731610635063,1.2512397955290453,-2.7771419851987957,0.45777065690094787
1539731610651075,1.6784924086366573,-2.8992141603723667,-0.03051804379333589
1539731610667087,1.1902037079423735,-2.8992141603723667,-0.33569848172737693
1539731610683099,0.45777065690094787,-2.8381780727854675,-0.6408789196611906
1539731610699112,0.2746623941404778,-2.655069810025225,-1.1291676203554744
1539731610715124,0.7629510948347615,-2.4719615472647547,-1.6174563210497581
1539731610731136,1.2512397955290453,-2.166781109330941,-2.04470893415737
1539731610747148,1.3122758831159445,-1.9226367589837992,-2.105745021744042
1539731610763160,1.1902037079423735,-1.6174563210497581,-1.8616006713969
1539731610779173,1.1291676203554744,-1.4343480582895154,-1.3733119707026162
1539731610795185,1.0070954451819034,-1.4343480582895154,-0.8239871824216607
1539731610811197,0.8850232700083325,-1.4953841458761872,-0.45777065690094787
1539731610827209,0.9460593575952316,-1.739528496223329,-0.15259021896690683
1539731610843221,1.0681315327688026,-2.166781109330941,0.213626306553806
1539731610859233,1.0681315327688026,-2.5940337224383256,0.45777065690094787
1539731610875246,1.1902037079423735,-2.7771419851987957,0.5188067444876197
1539731610891265,1.2512397955290453,-2.5940337224383256,0.45777065690094787
1539731610907278,1.1291676203554744,-2.04470893415737,0.3967345693140487
1539731610923290,0.8239871824216607,-1.5564202334630863,0.3967345693140487
1539731610939302,0.7629510948347615,-1.4953841458761872,0.7019150072480898
1539731610955314,0.7019150072480898,-1.6784924086366573,1.0681315327688026
1539731610971326,0.3967345693140487,-1.9226367589837992,1.1902037079423735
1539731610987339,0.213626306553806,-1.739528496223329,1.0070954451819034
1539731611003351,0.45777065690094787,-1.5564202334630863,0.8850232700083325
1539731611019363,0.7629510948347615,-1.8005645838102282,1.1291676203554744
1539731611035375,0.7019150072480898,-2.288853284504512,1.5564202334630863
1539731611051387,0.213626306553806,-2.7161058976118966,1.8616006713969
1539731611067400,-0.03051804379333589,-2.8992141603723667,1.6784924086366573
1539731611083412,0.09155413138023505,-2.9602502479590385,1.4343480582895154
1539731611099424,0.45777065690094787,-3.2654306858930795,1.3122758831159445
1539731611115436,0.33569848172737693,-3.570611123826893,1.5564202334630863
1539731611131448,0.15259021896690683,-3.814755474174035,1.8005645838102282
1539731611147461,-0.03051804379333589,-3.7537193865873633,1.6174563210497581
1539731611163473,0.15259021896690683,-3.5095750362402214,1.0681315327688026
1539731611179485,0.3967345693140487,-3.3264667734797513,0.3967345693140487
1539731611195497,0.7019150072480898,-3.3264667734797513,-0.09155413138023505
1539731611211517,1.0070954451819034,-3.3264667734797513,-0.2746623941404778
1539731611227529,1.1291676203554744,-3.0823224231326094,-0.5188067444876197
1539731611243541,1.0681315327688026,-2.532997634851654,-0.8239871824216607
1539731611259554,0.9460593575952316,-2.04470893415737,-1.0681315327688026
1539731611275566,1.0070954451819034,-1.5564202334630863,-1.1291676203554744
1539731611291578,1.1291676203554744,-1.1902037079423735,-1.0070954451819034
1539731611307590,1.1291676203554744,-0.8239871824216607,-0.7629510948347615
1539731611323602,0.7629510948347615,-0.45777065690094787,-0.3967345693140487
1539731611339614,0.45777065690094787,-0.15259021896690683,-0.213626306553806
1539731611355627,0.5188067444876197,-0.15259021896690683,0.03051804379333589
1539731611371639,0.7629510948347615,-0.33569848172737693,0.2746623941404778
1539731611387651,0.8239871824216607,-0.8239871824216607,0.6408789196611906
1539731611403663,0.5188067444876197,-1.3122758831159445,1.1902037079423735
1539731611419675,-0.15259021896690683,-1.6174563210497581,1.6174563210497581
1539731611435688,-0.5188067444876197,-1.983672846570471,1.9226367589837992
1539731611451700,-0.15259021896690683,-2.8381780727854675,2.105745021744042
1539731611467712,0.6408789196611906,-3.7537193865873633,2.288853284504512
1539731611483724,0.8850232700083325,-4.364080262455218,2.4719615472647547
1539731611499736,0.3967345693140487,-4.242008087281647,2.655069810025225
1539731611515749,-0.2746623941404778,-3.814755474174035,2.7771419851987957
1539731611531768,-0.3967345693140487,-3.4485389486533222,2.655069810025225
1539731611547781,0.03051804379333589,-3.3875028610666504,2.655069810025225
1539731611563793,0.33569848172737693,-3.3875028610666504,2.5940337224383256
1539731611579805,0.09155413138023505,-3.2043945983061803,2.288853284504512
1539731611595817,-0.3967345693140487,-2.7771419851987957,1.739528496223329
1539731611611829,-0.213626306553806,-2.4719615472647547,1.1902037079423735
1539731611627842,0.5188067444876197,-2.4719615472647547,0.45777065690094787
1539731611643854,1.1902037079423735,-2.5940337224383256,-0.09155413138023505
1539731611659866,1.1902037079423735,-2.5940337224383256,-0.5188067444876197
1539731611675878,0.9460593575952316,-2.3498893720911838,-0.8850232700083325
1539731611691890,1.0070954451819034,-2.166781109330941,-1.0070954451819034
1539731611707903,1.1902037079423735,-2.105745021744042,-0.8239871824216607
1539731611723915,1.2512397955290453,-2.105745021744042,-0.5798428320745188
1539731611739927,0.9460593575952316,-1.9226367589837992,-0.2746623941404778
1539731611755939,0.7629510948347615,-1.739528496223329,-0.09155413138023505
1539731611771951,0.9460593575952316,-1.8005645838102282,-0.15259021896690683
1539731611787963,1.4343480582895154,-2.04470893415737,-0.213626306553806
1539731611803976,1.4953841458761872,-2.288853284504512,-0.2746623941404778
1539731611819988,0.8850232700083325,-2.227817196917613,-0.3967345693140487
1539731611836000,0.7019150072480898,-2.105745021744042,-0.8239871824216607
1539731611852050,1.0070954451819034,-1.983672846570471,-1.0681315327688026
1539731611868063,1.1291676203554744,-2.04470893415737,-1.1291676203554744
1539731611884075,0.7019150072480898,-2.04470893415737,-0.8239871824216607
1539731611900087,0.2746623941404778,-2.04470893415737,-0.3967345693140487
1539731611916099,0.15259021896690683,-1.9226367589837992,-0.09155413138023505
1539731611932111,0.33569848172737693,-1.9226367589837992,0.213626306553806
1539731611948124,0.3967345693140487,-2.04470893415737,0.7019150072480898
1539731611964136,0.3967345693140487,-2.166781109330941,1.2512397955290453
1539731611980148,0.5188067444876197,-2.3498893720911838,1.6784924086366573
1539731611996160,0.5798428320745188,-2.532997634851654,1.983672846570471
1539731612012172,0.45777065690094787,-2.655069810025225,2.105745021744042
1539731612028185,0.45777065690094787,-2.7161058976118966,1.983672846570471
1539731612044197,0.7019150072480898,-2.7771419851987957,1.8005645838102282
1539731612060209,0.7629510948347615,-2.7161058976118966,1.6174563210497581
1539731612076221,0.33569848172737693,-2.166781109330941,1.2512397955290453
1539731612092233,0.03051804379333589,-1.8005645838102282,0.8850232700083325
1539731612108245,0.2746623941404778,-1.8616006713969,0.5798428320745188
1539731612124258,0.8239871824216607,-2.04470893415737,0.3967345693140487
1539731612140270,0.8239871824216607,-2.105745021744042,0.2746623941404778
1539731612156282,0.3967345693140487,-1.739528496223329,0.213626306553806
1539731612172271,-0.03051804379333589,-1.5564202334630863,0.2746623941404778
1539731612188284,0.09155413138023505,-1.8005645838102282,0.2746623941404778
1539731612204296,0.7019150072480898,-2.288853284504512,0.09155413138023505
1539731612220308,1.1291676203554744,-2.5940337224383256,-0.213626306553806
1539731612236320,1.1902037079423735,-2.655069810025225,-0.45777065690094787
1539731612252332,1.0070954451819034,-2.7771419851987957,-0.45777065690094787
1539731612268345,0.8239871824216607,-2.9602502479590385,-0.33569848172737693
1539731612284357,0.7629510948347615,-3.2043945983061803,-0.213626306553806
1539731612300369,0.5798428320745188,-3.0823224231326094,-0.2746623941404778
1539731612316381,0.45777065690094787,-2.7161058976118966,-0.5188067444876197
1539731612332393,0.5798428320745188,-2.4719615472647547,-0.5188067444876197
1539731612348405,0.7019150072480898,-2.655069810025225,-0.03051804379333589
1539731612364418,0.5798428320745188,-2.532997634851654,0.6408789196611906
1539731612380430,0.03051804379333589,-2.04470893415737,1.1902037079423735
1539731612396442,-0.33569848172737693,-1.4953841458761872,1.6784924086366573
1539731612412454,-0.15259021896690683,-1.1902037079423735,1.9226367589837992
1539731612428466,0.2746623941404778,-1.3122758831159445,2.105745021744042
1539731612444479,0.3967345693140487,-1.5564202334630863,2.288853284504512
1539731612460491,0.2746623941404778,-1.6174563210497581,2.227817196917613
1539731612476503,0.15259021896690683,-1.4953841458761872,1.983672846570471
1539731612492553,0.15259021896690683,-1.4953841458761872,1.8616006713969
1539731612508566,0.09155413138023505,-1.5564202334630863,1.8005645838102282
1539731612524578,0.03051804379333589,-1.8005645838102282,1.8005645838102282
1539731612540590,0.09155413138023505,-1.9226367589837992,1.8005645838102282
1539731612556602,0.15259021896690683,-2.04470893415737,1.739528496223329
1539731612572614,0.15259021896690683,-2.288853284504512,1.5564202334630863
1539731612588626,0.3967345693140487,-2.5940337224383256,1.2512397955290453
1539731612604639,1.0681315327688026,-2.8992141603723667,0.7629510948347615
1539731612620651,1.8005645838102282,-2.9602502479590385,-0.03051804379333589
1539731612636663,2.4719615472647547,-2.8381780727854675,-1.1902037079423735
1539731612652675,2.8992141603723667,-2.105745021744042,-2.532997634851654
1539731612668687,3.0212863355459376,-0.8850232700083325,-4.058899824521177
1539731612684700,3.0212863355459376,0.5188067444876197,-5.523765926604028
1539731612700712,3.2654306858930795,1.2512397955290453,-6.378271152819025
1539731612716724,3.4485389486533222,1.0681315327688026,-6.256198977645454
1539731612732736,2.9602502479590385,0.3967345693140487,-5.462729839017356
1539731612748748,1.8005645838102282,-0.03051804379333589,-4.730296787975931
1539731612764761,0.9460593575952316,-0.45777065690094787,-4.486152437628789
1539731612780773,1.5564202334630863,-1.1291676203554744,-4.60822461280236
1539731612796785,3.3875028610666504,-1.983672846570471,-4.60822461280236
1539731612812805,4.180971999694748,-2.532997634851654,-3.936827649347606
1539731612828817,2.8992141603723667,-2.288853284504512,-3.0823224231326094
1539731612844829,0.7629510948347615,-1.739528496223329,-2.3498893720911838
1539731612860841,-0.2746623941404778,-1.3122758831159445,-1.8616006713969
1539731612876854,-0.15259021896690683,-1.1902037079423735,-1.3733119707026162
1539731612892866,0.15259021896690683,-1.4953841458761872,-0.5798428320745188
1539731612908878,-0.3967345693140487,-1.739528496223329,0.7019150072480898
1539731612924890,-1.3733119707026162,-2.105745021744042,1.8616006713969
1539731612940902,-1.8005645838102282,-2.7161058976118966,2.7771419851987957
1539731612956915,-1.4953841458761872,-3.3875028610666504,3.0823224231326094
1539731612972927,-1.1902037079423735,-3.875791561760934,3.0212863355459376
1539731612988939,-1.3122758831159445,-4.364080262455218,3.0823224231326094
1539731613004951,-1.2512397955290453,-4.9134050507361735,3.3264667734797513
1539731613020963,-1.0070954451819034,-5.157549401083315,3.570611123826893
1539731613036975,-1.1902037079423735,-4.852368963149502,3.6316472114137923
1539731613052988,-1.6174563210497581,-3.936827649347606,3.3875028610666504
1539731613069000,-1.3122758831159445,-3.1433585107195086,3.1433585107195086
1539731613085012,-0.2746623941404778,-2.7771419851987957,3.1433585107195086
1539731613101024,0.03051804379333589,-2.4719615472647547,3.2654306858930795
1539731613117036,-0.8239871824216607,-1.8616006713969,3.2043945983061803
1539731613133056,-1.4953841458761872,-1.0681315327688026,2.4719615472647547
1539731613149068,-0.8850232700083325,-0.6408789196611906,1.3733119707026162
1539731613165081,0.5798428320745188,-1.0070954451819034,0.45777065690094787
1539731613181093,1.6784924086366573,-1.6784924086366573,0.09155413138023505
1539731613197105,1.4953841458761872,-2.04470893415737,0.09155413138023505
1539731613213117,0.6408789196611906,-1.8616006713969,0.03051804379333589
1539731613229129,0.45777065690094787,-1.4953841458761872,-0.5188067444876197
1539731613245142,1.0070954451819034,-1.4953841458761872,-1.0070954451819034
1539731613261154,1.3733119707026162,-1.739528496223329,-1.0681315327688026
1539731613277166,1.2512397955290453,-1.8005645838102282,-1.0070954451819034
1539731613293178,1.0070954451819034,-1.8005645838102282,-0.8850232700083325
1539731613309190,1.0070954451819034,-1.983672846570471,-0.45777065690094787
1539731613325203,1.1291676203554744,-2.4719615472647547,0.213626306553806
1539731613341215,0.9460593575952316,-3.0212863355459376,0.8850232700083325
1539731613357227,0.6408789196611906,-3.2043945983061803,1.1902037079423735
1539731613373239,0.6408789196611906,-3.1433585107195086,1.0070954451819034
1539731613389251,0.9460593575952316,-2.8992141603723667,0.5798428320745188
1539731613405264,1.3733119707026162,-2.7161058976118966,0.45777065690094787
1539731613421276,0.9460593575952316,-2.3498893720911838,0.7629510948347615
1539731613437288,-0.33569848172737693,-1.983672846570471,1.1902037079423735
1539731613453308,-1.0681315327688026,-1.9226367589837992,1.1902037079423735
1539731613469320,-0.2746623941404778,-2.105745021744042,0.6408789196611906
1539731613485332,1.1291676203554744,-2.3498893720911838,0.213626306553806
1539731613501344,1.4343480582895154,-2.227817196917613,0.3967345693140487
1539731613517356,0.3967345693140487,-1.739528496223329,0.9460593575952316
1539731613533369,-0.5188067444876197,-1.3122758831159445,1.4953841458761872
1539731613549381,-0.15259021896690683,-1.4343480582895154,1.739528496223329
1539731613565393,0.7019150072480898,-1.6784924086366573,1.6174563210497581
1539731613581405,1.1902037079423735,-2.04470893415737,1.4343480582895154
1539731613597417,0.8239871824216607,-2.04470893415737,1.2512397955290453
1539731613613430,0.213626306553806,-1.983672846570471,1.1291676203554744
1539731613629442,0.213626306553806,-2.410925459678083,0.8850232700083325
1539731613645454,0.7629510948347615,-2.7771419851987957,0.3967345693140487
1539731613661466,1.0681315327688026,-2.9602502479590385,-0.33569848172737693
1539731613677478,0.8850232700083325,-2.8992141603723667,-0.8850232700083325
1539731613693491,0.5188067444876197,-2.8381780727854675,-1.1902037079423735
1539731613709503,0.6408789196611906,-3.0212863355459376,-1.1291676203554744
1539731613725515,1.1902037079423735,-3.2654306858930795,-0.7629510948347615
1539731613741527,1.3733119707026162,-3.1433585107195086,-0.15259021896690683
1539731613757539,0.7629510948347615,-2.5940337224383256,0.45777065690094787
1539731613773559,0.15259021896690683,-2.105745021744042,0.9460593575952316
1539731613789571,0.09155413138023505,-1.8616006713969,1.1902037079423735
1539731613805584,0.33569848172737693,-1.6174563210497581,1.0681315327688026
1539731613821596,0.3967345693140487,-1.4343480582895154,0.8850232700083325
1539731613837608,0.5798428320745188,-1.3733119707026162,0.9460593575952316
1539731613853620,0.33569848172737693,-1.5564202334630863,1.0681315327688026
1539731613869632,0.09155413138023505,-1.8005645838102282,0.9460593575952316
1539731613885645,0.15259021896690683,-1.8616006713969,0.5798428320745188
1539731613901657,0.7019150072480898,-1.983672846570471,0.213626306553806
1539731613917669,0.8239871824216607,-1.9226367589837992,0.09155413138023505
1539731613933681,0.45777065690094787,-1.6784924086366573,0.33569848172737693
1539731613949693,-0.09155413138023505,-1.4343480582895154,0.9460593575952316
1539731613965705,-0.213626306553806,-1.5564202334630863,1.6174563210497581
1539731613981718,0.213626306553806,-1.9226367589837992,2.105745021744042
1539731613997730,0.7019150072480898,-2.410925459678083,2.655069810025225
1539731614013742,0.7019150072480898,-3.0823224231326094,3.2654306858930795
1539731614029754,0.15259021896690683,-4.058899824521177,3.814755474174035
1539731614045766,-0.33569848172737693,-5.279621576256886,3.7537193865873633
1539731614061779,0.6408789196611906,-6.012054627298312,2.7771419851987957
1539731614077791,2.288853284504512,-6.012054627298312,1.4343480582895154
1539731614093811,2.8992141603723667,-5.2185854886702145,0.213626306553806
1539731614109823,1.1902037079423735,-3.936827649347606,-0.45777065690094787
1539731614125835,-1.0070954451819034,-2.9602502479590385,-1.0681315327688026
1539731614141847,-1.3122758831159445,-2.655069810025225,-1.8616006713969
1539731614157859,0.33569848172737693,-2.5940337224383256,-2.9602502479590385
1539731614173872,1.983672846570471,-2.166781109330941,-3.570611123826893
1539731614189884,2.166781109330941,-1.4343480582895154,-3.1433585107195086
1539731614205896,1.1291676203554744,-0.5798428320745188,-1.6784924086366573
1539731614221908,-0.15259021896690683,0.3967345693140487,-0.33569848172737693
1539731614237920,-0.45777065690094787,1.3122758831159445,0.5798428320745188
1539731614253933,0.213626306553806,1.8005645838102282,1.0681315327688026
1539731614269945,1.0681315327688026,1.6784924086366573,1.739528496223329
1539731614285957,1.0681315327688026,0.9460593575952316,2.9602502479590385
1539731614301969,0.09155413138023505,-0.03051804379333589,4.058899824521177
1539731614317981,-0.7629510948347615,-0.7629510948347615,4.60822461280236
1539731614333994,-0.3967345693140487,-1.6174563210497581,4.303044174868319
1539731614350006,0.5798428320745188,-2.655069810025225,3.4485389486533222
1539731614366018,0.9460593575952316,-3.7537193865873633,2.7161058976118966
1539731614382030,0.8239871824216607,-4.364080262455218,2.166781109330941
1539731614398042,0.7019150072480898,-4.42511635004189,1.8616006713969
1539731614414062,0.7629510948347615,-4.303044174868319,1.6784924086366573
1539731614430074,0.5798428320745188,-4.180971999694748,1.6174563210497581
1539731614446087,0.33569848172737693,-3.997863736934505,1.6174563210497581
1539731614462099,0.33569848172737693,-3.692683299000464,1.4953841458761872
1539731614478111,0.3967345693140487,-3.1433585107195086,1.2512397955290453
1539731614494123,0.2746623941404778,-2.7771419851987957,0.9460593575952316
1539731614510135,0.33569848172737693,-2.655069810025225,0.3967345693140487
1539731614526147,0.7629510948347615,-2.5940337224383256,-0.213626306553806
1539731614542160,1.1291676203554744,-2.7161058976118966,-0.9460593575952316
1539731614558172,1.2512397955290453,-2.5940337224383256,-1.6784924086366573
1539731614574184,1.0070954451819034,-2.3498893720911838,-2.105745021744042
1539731614590196,0.9460593575952316,-1.739528496223329,-2.3498893720911838
1539731614606208,0.8239871824216607,-1.0681315327688026,-2.410925459678083
1539731614622221,0.8239871824216607,-0.6408789196611906,-2.288853284504512
1539731614638233,0.7019150072480898,-0.6408789196611906,-1.6784924086366573
1539731614654245,0.7629510948347615,-1.0070954451819034,-0.7629510948347615
1539731614670257,0.8850232700083325,-1.6174563210497581,0.09155413138023505
1539731614686269,0.5798428320745188,-2.105745021744042,0.8850232700083325
1539731614702282,0.15259021896690683,-2.410925459678083,1.2512397955290453
1539731614718294,0.09155413138023505,-2.7771419851987957,1.3122758831159445
1539731614734314,0.7629510948347615,-3.5095750362402214,1.2512397955290453
1539731614750326,1.1902037079423735,-4.242008087281647,1.0681315327688026
1539731614766338,1.1291676203554744,-4.60822461280236,0.8850232700083325
1539731614782350,0.5798428320745188,-4.180971999694748,0.5188067444876197
1539731614798362,0.15259021896690683,-3.3875028610666504,0.2746623941404778
1539731614814375,0.03051804379333589,-2.9602502479590385,0.33569848172737693
1539731614830387,0.45777065690094787,-3.3264667734797513,0.7629510948347615
1539731614846399,1.1291676203554744,-3.814755474174035,1.4343480582895154
1539731614862411,1.1291676203554744,-3.7537193865873633,1.9226367589837992
1539731614878423,0.45777065690094787,-3.1433585107195086,2.105745021744042
1539731614894436,-0.213626306553806,-2.410925459678083,2.166781109330941
1539731614910448,-0.33569848172737693,-1.8005645838102282,2.166781109330941
1539731614926460,-0.03051804379333589,-1.6784924086366573,1.8005645838102282
1539731614942472,0.213626306553806,-1.8005645838102282,1.2512397955290453
1539731614958484,0.45777065690094787,-2.04470893415737,0.33569848172737693
1539731614974496,0.7019150072480898,-2.227817196917613,-0.5798428320745188
1539731614990509,0.7629510948347615,-2.532997634851654,-1.0681315327688026
1539731615006521,0.9460593575952316,-2.9602502479590385,-1.1902037079423735
1539731615022533,1.1291676203554744,-3.2654306858930795,-1.0681315327688026
1539731615038545,1.2512397955290453,-3.2654306858930795,-1.1291676203554744
1539731615054626,1.1291676203554744,-2.7771419851987957,-1.3122758831159445
1539731615070639,1.1291676203554744,-2.410925459678083,-1.5564202334630863
1539731615086651,1.1902037079423735,-2.166781109330941,-1.3733119707026162
1539731615102664,1.1291676203554744,-1.8005645838102282,-1.0070954451819034
1539731615118677,0.7629510948347615,-1.2512397955290453,-0.5798428320745188
1539731615134689,0.2746623941404778,-0.7629510948347615,-0.15259021896690683
1539731615150702,0.33569848172737693,-0.8850232700083325,0.15259021896690683
1539731615166715,0.8850232700083325,-1.4953841458761872,0.3967345693140487
1539731615182727,1.4953841458761872,-2.04470893415737,0.5798428320745188
1539731615198740,1.3122758831159445,-2.288853284504512,0.7019150072480898
1539731615214753,0.7629510948347615,-2.4719615472647547,0.7019150072480898
1539731615230765,0.7019150072480898,-2.5940337224383256,0.7019150072480898
1539731615246778,0.7019150072480898,-2.3498893720911838,0.7629510948347615
1539731615262791,0.15259021896690683,-1.6784924086366573,0.7019150072480898
1539731615278803,-0.5188067444876197,-1.0070954451819034,0.7019150072480898
1539731615294816,-0.6408789196611906,-0.8239871824216607,1.1291676203554744
1539731615310829,-0.5188067444876197,-1.0681315327688026,1.8005645838102282
1539731615326841,-0.7019150072480898,-1.3122758831159445,2.410925459678083
1539731615342854,-0.8850232700083325,-1.4343480582895154,2.655069810025225
1539731615358867,-0.33569848172737693,-1.739528496223329,2.8992141603723667
1539731615374878,0.5188067444876197,-2.4719615472647547,3.2654306858930795
1539731615390890,0.9460593575952316,-3.2043945983061803,3.6316472114137923
1539731615406903,0.6408789196611906,-3.1433585107195086,3.692683299000464
1539731615422916,0.15259021896690683,-2.288853284504512,3.0212863355459376
1539731615438928,-0.2746623941404778,-1.1902037079423735,2.227817196917613
1539731615454941,-0.45777065690094787,-0.5798428320745188,1.4343480582895154
1539731615470954,-0.5188067444876197,-0.6408789196611906,0.8850232700083325
1539731615486966,-0.45777065690094787,-1.1291676203554744,0.45777065690094787
1539731615502979,-0.33569848172737693,-1.739528496223329,-0.213626306553806
1539731615518992,0.213626306553806,-2.227817196917613,-1.0681315327688026
1539731615535004,1.2512397955290453,-2.5940337224383256,-1.739528496223329
1539731615551017,2.04470893415737,-2.8992141603723667,-1.8005645838102282
1539731615567030,1.8005645838102282,-2.655069810025225,-1.6174563210497581
1539731615583042,1.3122758831159445,-1.8616006713969,-1.3122758831159445
1539731615599055,1.3122758831159445,-1.0681315327688026,-1.0070954451819034
1539731615615068,1.739528496223329,-0.8239871824216607,-0.8239871824216607
1539731615631080,1.739528496223329,-0.8239871824216607,-0.6408789196611906
1539731615647093,1.4343480582895154,-0.8850232700083325,-0.6408789196611906
1539731615663106,1.4343480582895154,-0.7629510948347615,-0.7629510948347615
1539731615679118,1.6174563210497581,-0.6408789196611906,-1.0070954451819034
1539731615695129,1.5564202334630863,-0.5188067444876197,-0.9460593575952316
1539731615711142,1.0681315327688026,-0.6408789196611906,-0.7629510948347615
1539731615727154,0.8239871824216607,-1.3122758831159445,-0.5188067444876197
1539731615743167,1.1902037079423735,-2.288853284504512,-0.213626306553806
1539731615759180,1.6174563210497581,-3.0212863355459376,0.2746623941404778
1539731615775192,1.1902037079423735,-3.1433585107195086,0.8239871824216607
1539731615791205,0.3967345693140487,-3.3264667734797513,1.4953841458761872
1539731615807218,0.33569848172737693,-3.4485389486533222,2.04470893415737
1539731615823230,0.8239871824216607,-3.570611123826893,2.227817196917613
1539731615839243,0.7629510948347615,-3.3264667734797513,2.105745021744042
1539731615855256,0.15259021896690683,-3.0212863355459376,1.8616006713969
1539731615871268,-0.3967345693140487,-2.7771419851987957,1.6784924086366573
1539731615887281,-0.45777065690094787,-2.7161058976118966,1.3122758831159445
1539731615903294,-0.03051804379333589,-2.7161058976118966,0.9460593575952316
1539731615919306,0.15259021896690683,-2.5940337224383256,0.6408789196611906
1539731615935319,-0.03051804379333589,-2.410925459678083,0.5188067444876197
1539731615951332,-0.2746623941404778,-2.288853284504512,0.6408789196611906
1539731615967344,-0.3967345693140487,-2.04470893415737,0.7629510948347615
1539731615983357,-0.15259021896690683,-2.04470893415737,1.0681315327688026
1539731615999370,0.45777065690094787,-2.227817196917613,1.3733119707026162
1539731616015380,0.8239871824216607,-2.410925459678083,1.739528496223329
1539731616031393,0.7019150072480898,-2.166781109330941,1.983672846570471
1539731616047406,0.45777065690094787,-1.8005645838102282,1.9226367589837992
1539731616063418,0.5798428320745188,-1.3733119707026162,1.5564202334630863
1539731616079431,1.0070954451819034,-1.2512397955290453,0.8850232700083325
1539731616095444,1.4343480582895154,-1.3733119707026162,0.33569848172737693
1539731616111456,1.4343480582895154,-1.8616006713969,0.15259021896690683
1539731616127469,1.1291676203554744,-2.3498893720911838,0.03051804379333589
1539731616143482,0.45777065690094787,-2.3498893720911838,-0.2746623941404778
1539731616159495,-0.09155413138023505,-2.410925459678083,-0.6408789196611906
1539731616175507,0.33569848172737693,-2.8992141603723667,-1.0681315327688026
1539731616191520,1.4953841458761872,-3.692683299000464,-1.0070954451819034
1539731616207533,2.04470893415737,-4.058899824521177,-0.33569848172737693
1539731616223545,0.8239871824216607,-3.5095750362402214,0.5798428320745188
1539731616239558,-0.7019150072480898,-2.288853284504512,1.1291676203554744
1539731616255571,-0.9460593575952316,-1.3733119707026162,1.3122758831159445
1539731616271583,-0.03051804379333589,-1.2512397955290453,1.3733119707026162
1539731616287596,1.0070954451819034,-1.8005645838102282,1.3733119707026162
1539731616303609,0.8850232700083325,-2.532997634851654,1.8005645838102282
1539731616319621,-0.213626306553806,-3.0823224231326094,2.3498893720911838
1539731616335632,-1.3122758831159445,-3.2654306858930795,2.532997634851654
1539731616351645,-1.4343480582895154,-3.4485389486533222,2.532997634851654
1539731616367657,-0.7019150072480898,-3.7537193865873633,2.227817196917613
1539731616383670,0.03051804379333589,-3.814755474174035,1.6174563210497581
1539731616399683,0.213626306553806,-3.692683299000464,1.0070954451819034
1539731616415695,0.15259021896690683,-3.3875028610666504,0.3967345693140487
1539731616431708,0.09155413138023505,-3.0212863355459376,-0.03051804379333589
1539731616447721,-0.213626306553806,-2.532997634851654,-0.2746623941404778
1539731616463733,-0.3967345693140487,-1.9226367589837992,-0.5798428320745188
1539731616479746,0.09155413138023505,-1.4953841458761872,-0.7629510948347615
1539731616495759,1.0070954451819034,-1.4343480582895154,-0.7629510948347615
1539731616511771,1.4343480582895154,-1.4953841458761872,-0.6408789196611906
1539731616527784,1.0681315327688026,-1.4343480582895154,-0.5798428320745188
1539731616543797,0.9460593575952316,-1.3733119707026162,-0.33569848172737693
1539731616559809,1.0681315327688026,-1.3122758831159445,0.03051804379333589
1539731616575822,1.0681315327688026,-1.0070954451819034,0.213626306553806
1539731616591835,0.8850232700083325,-0.6408789196611906,0.3967345693140487
1539731616607847,0.7019150072480898,-0.5188067444876197,0.8239871824216607
1539731616623860,0.45777065690094787,-0.45777065690094787,1.4343480582895154
1539731616639873,0.33569848172737693,-0.6408789196611906,2.166781109330941
1539731616655883,0.15259021896690683,-0.7629510948347615,3.0212863355459376
1539731616671896,-0.213626306553806,-1.2512397955290453,3.814755474174035
1539731616687909,-0.6408789196611906,-1.983672846570471,4.119935912108076
1539731616703921,-0.3967345693140487,-2.9602502479590385,3.997863736934505
1539731616719934,0.45777065690094787,-3.997863736934505,3.7537193865873633
1539731616735947,0.8239871824216607,-4.852368963149502,3.4485389486533222
1539731616751959,0.2746623941404778,-5.096513313496644,3.2043945983061803
1539731616767972,-0.5188067444876197,-5.0354772259097444,2.8992141603723667
1539731616783985,-0.5798428320745188,-5.0354772259097444,2.3498893720911838
1539731616799997,0.15259021896690683,-5.3406576638437855,1.6174563210497581
1539731616816010,0.7019150072480898,-5.706874189364498,1.1902037079423735
1539731616832023,0.09155413138023505,-5.279621576256886,0.7019150072480898
1539731616848035,-1.2512397955290453,-3.3875028610666504,-0.3967345693140487
1539731616864048,-1.6174563210497581,-1.2512397955290453,-1.8005645838102282
1539731616880061,-0.9460593575952316,-0.3967345693140487,-2.7161058976118966
1539731616896073,-0.33569848172737693,-0.7019150072480898,-2.8992141603723667
1539731616912086,-1.4343480582895154,-1.0070954451819034,-1.983672846570471
1539731616928099,-4.058899824521177,-0.5188067444876197,-0.5188067444876197
1539731616944111,-6.134126802471883,0.2746623941404778,0.8850232700083325
1539731616960124,-5.3406576638437855,-0.15259021896690683,2.532997634851654
1539731616976135,-2.5940337224383256,-2.3498893720911838,5.096513313496644
1539731616992148,-0.8239871824216607,-5.0354772259097444,7.904173342488775
1539731617008160,-0.7629510948347615,-6.683451590753066,10.223544670786623
1539731617024173,-1.6174563210497581,-6.805523765926637,11.383230334935433
1539731617040186,-1.5564202334630863,-5.95101853971164,11.505302510109004
1539731617056198,-0.8850232700083325,-4.547188525215461,10.955977721828049
1539731617072211,-0.8850232700083325,-2.410925459678083,9.979400320439481
1539731617088224,-1.3122758831159445,-0.213626306553806,8.45349813076973
1539731617104236,-1.4953841458761872,1.1902037079423735,6.805523765926637
1539731617120249,-1.739528496223329,1.983672846570471,4.974441138323073
1539731617136262,-2.4719615472647547,2.532997634851654,3.2654306858930795
1539731617152274,-3.7537193865873633,2.8381780727854675,1.8005645838102282
1539731617168287,-4.364080262455218,2.655069810025225,0.7019150072480898
1539731617184300,-3.2043945983061803,1.4953841458761872,-0.213626306553806
1539731617200312,-0.7019150072480898,-0.5798428320745188,-0.5798428320745188
1539731617216325,1.8616006713969,-2.655069810025225,-0.5188067444876197
1539731617232338,2.9602502479590385,-3.570611123826893,-0.03051804379333589
1539731617248350,2.8381780727854675,-3.0823224231326094,0.7629510948347615
1539731617264363,2.04470893415737,-1.8616006713969,1.739528496223329
1539731617280376,0.33569848172737693,-0.5798428320745188,2.4719615472647547
1539731617296386,-0.9460593575952316,0.7019150072480898,2.655069810025225
1539731617312399,0.09155413138023505,1.1291676203554744,2.532997634851654
1539731617328412,2.288853284504512,0.7629510948347615,2.4719615472647547
1539731617344424,3.3264667734797513,0.15259021896690683,2.288853284504512
1539731617360437,1.8005645838102282,0.03051804379333589,2.105745021744042
1539731617376450,-0.2746623941404778,-0.5188067444876197,2.166781109330941
1539731617392462,-0.8239871824216607,-1.983672846570471,2.04470893415737
1539731617408475,0.213626306553806,-3.997863736934505,1.1902037079423735
1539731617424488,1.3733119707026162,-5.401693751430457,-0.5798428320745188
1539731617440500,1.983672846570471,-5.76791027695117,-2.7161058976118966
1539731617456513,1.8616006713969,-5.523765926604028,-4.180971999694748
1539731617472526,0.7629510948347615,-4.9134050507361735,-4.730296787975931
1539731617488538,-1.2512397955290453,-3.875791561760934,-4.974441138323073
1539731617504551,-2.9602502479590385,-2.532997634851654,-4.791332875562603
1539731617520564,-3.5095750362402214,-1.8005645838102282,-4.119935912108076
1539731617536576,-3.4485389486533222,-1.8005645838102282,-2.8381780727854675
1539731617552589,-3.3264667734797513,-2.166781109330941,-1.4343480582895154
1539731617568602,-3.0823224231326094,-2.166781109330941,-0.2746623941404778
1539731617584614,-1.8616006713969,-1.983672846570471,0.6408789196611906
1539731617600627,-0.2746623941404778,-2.04470893415737,1.739528496223329
1539731617616638,1.0681315327688026,-2.3498893720911838,3.0212863355459376
1539731617632650,1.5564202334630863,-2.227817196917613,4.058899824521177
1539731617648663,1.4953841458761872,-1.3733119707026162,4.669260700389032
1539731617664676,1.2512397955290453,0.15259021896690683,4.730296787975931
1539731617680688,0.3967345693140487,1.739528496223329,4.180971999694748
1539731617696701,-0.09155413138023505,2.655069810025225,3.2654306858930795
1539731617712714,0.213626306553806,3.0212863355459376,2.04470893415737
1539731617728726,1.0681315327688026,2.8381780727854675,1.0070954451819034
1539731617744739,1.6784924086366573,2.3498893720911838,0.2746623941404778
1539731617760752,1.983672846570471,1.4953841458761872,0.09155413138023505
1539731617776764,1.9226367589837992,0.45777065690094787,0.03051804379333589
1539731617792777,1.983672846570471,-0.5188067444876197,-0.45777065690094787
1539731617808790,2.7161058976118966,-1.1291676203554744,-1.6174563210497581
1539731617824803,4.180971999694748,-1.4953841458761872,-2.8992141603723667
1539731617840815,4.730296787975931,-1.983672846570471,-3.570611123826893
1539731617856828,3.814755474174035,-2.3498893720911838,-3.875791561760934
1539731617872841,2.7161058976118966,-2.7161058976118966,-4.058899824521177
1539731617888853,2.227817196917613,-3.0212863355459376,-4.303044174868319
1539731617904866,1.983672846570471,-3.0823224231326094,-4.791332875562603
1539731617920879,1.4343480582895154,-2.9602502479590385,-5.2185854886702145
1539731617936920,0.8239871824216607,-3.0212863355459376,-5.157549401083315
1539731617952932,0.2746623941404778,-3.3875028610666504,-4.669260700389032
1539731617968945,0.15259021896690683,-4.058899824521177,-4.058899824521177
1539731617984958,0.3967345693140487,-4.547188525215461,-3.692683299000464
1539731618000970,0.9460593575952316,-4.669260700389032,-3.5095750362402214
1539731618016983,1.5564202334630863,-4.669260700389032,-3.2654306858930795
1539731618032996,2.3498893720911838,-4.669260700389032,-2.7771419851987957
1539731618049008,2.7771419851987957,-4.486152437628789,-2.410925459678083
1539731618065021,2.5940337224383256,-3.692683299000464,-2.8992141603723667
1539731618081034,2.9602502479590385,-2.227817196917613,-4.486152437628789
1539731618097046,3.3264667734797513,-0.03051804379333589,-6.8665598535133086
1539731618113059,3.570611123826893,2.166781109330941,-9.063859006637585
1539731618129072,2.7771419851987957,4.42511635004189,-10.589761196307336
1539731618145084,1.1291676203554744,7.11070420386045,-11.688410772869474
1539731618161097,-0.7629510948347615,9.613183794918768,-11.932555123216616
1539731618177110,-1.6784924086366573,10.406652933546866,-10.772869459067579
1539731618193122,-0.8239871824216607,8.45349813076973,-7.782101167315204
1539731618209135,1.1902037079423735,4.42511635004189,-3.570611123826893
1539731618225148,2.7161058976118966,0.3967345693140487,0.7629510948347615
1539731618241160,2.8992141603723667,-2.3498893720911838,4.058899824521177
1539731618257171,2.4719615472647547,-3.6316472114137923,6.134126802471883
1539731618273184,2.04470893415737,-4.486152437628789,7.4158846417944915
1539731618289197,1.1902037079423735,-5.76791027695117,7.904173342488775
1539731618305209,-0.09155413138023505,-7.17174029144735,7.598992904554734
1539731618321222,-1.4953841458761872,-7.843137254901876,5.95101853971164
1539731618337235,-2.532997634851654,-7.2938124666209205,3.4485389486533222
1539731618353247,-2.7771419851987957,-6.012054627298312,0.7019150072480898
1539731618369260,-2.166781109330941,-5.0354772259097444,-1.0681315327688026
1539731618385273,-0.8239871824216607,-4.791332875562603,-1.3733119707026162
1539731618401285,0.5188067444876197,-5.096513313496644,-0.6408789196611906
1539731618417298,1.4953841458761872,-5.0354772259097444,0.33569848172737693
1539731618433311,2.166781109330941,-4.547188525215461,1.0070954451819034
1539731618449323,2.3498893720911838,-3.5095750362402214,1.1291676203554744
1539731618465336,1.8616006713969,-2.227817196917613,0.9460593575952316
1539731618481349,0.9460593575952316,-0.8850232700083325,0.5798428320745188
1539731618497361,0.15259021896690683,0.15259021896690683,0.45777065690094787
1539731618513374,-0.3967345693140487,0.7019150072480898,0.5798428320745188
1539731618529387,-0.7019150072480898,0.7629510948347615,0.9460593575952316
1539731618545399,-0.8850232700083325,0.3967345693140487,1.6784924086366573
1539731618561412,-1.0070954451819034,-0.213626306553806,2.5940337224383256
1539731618577423,-0.9460593575952316,-0.8850232700083325,3.2043945983061803
1539731618593435,-0.2746623941404778,-1.3733119707026162,3.0212863355459376
1539731618609448,1.1291676203554744,-1.6174563210497581,2.166781109330941
1539731618625461,-1.6784924086366573,-8.819714656290444,6.500343327992596
1539731618641473,-7.476920729381163,-14.068818188753994,8.697642481116873
1539731618657486,-3.570611123826893,11.505302510109004,-10.711833371480907
1539731618673499,5.645838101777599,17.853055619134693,-14.557106889448278
1539731618689511,15.289539940489703,17.303730830853738,-12.176699473563758
1539731618705524,11.20012207217519,8.6366063935302,-5.76791027695117
1539731618721537,1.4343480582895154,0.15259021896690683,1.0070954451819034
1539731618737549,-8.758678568703772,-4.547188525215461,5.401693751430457
1539731618753562,-13.45845731288614,-6.378271152819025,4.852368963149502
1539731618769575,-6.8665598535133086,-9.55214770733187,0.15259021896690683
1539731618785587,4.547188525215461,-13.58052948805971,-3.6316472114137923
1539731618801600,9.979400320439481,-15.350576028076603,-4.119935912108076
1539731618817613,6.073090714885211,-13.45845731288614,-3.6316472114137923
1539731618833625,0.8850232700083325,-10.162508583199724,-3.936827649347606
1539731618849638,0.5188067444876197,-7.2938124666209205,-5.2185854886702145
1539731618865651,2.04470893415737,-4.669260700389032,-6.8665598535133086
1539731618881663,1.983672846570471,-2.5940337224383256,-7.4158846417944915
1539731618897674,0.8239871824216607,-1.3122758831159445,-6.073090714885211
1539731618913687,-0.33569848172737693,-0.2746623941404778,-4.058899824521177
1539731618929700,-1.0070954451819034,1.1902037079423735,-2.532997634851654
1539731618945712,-0.3967345693140487,2.8992141603723667,-1.3122758831159445
1539731618961725,0.8850232700083325,3.6316472114137923,0.15259021896690683
1539731618977738,1.4343480582895154,3.4485389486533222,1.9226367589837992
1539731618993750,1.3122758831159445,2.410925459678083,3.6316472114137923
1539731619009763,1.4343480582895154,1.0681315327688026,5.3406576638437855
1539731619025776,1.8616006713969,0.2746623941404778,6.439307240405924
1539731619041788,1.9226367589837992,0.3967345693140487,6.500343327992596
1539731619057801,1.983672846570471,1.0681315327688026,5.95101853971164
1539731619073814,2.166781109330941,1.3733119707026162,5.0354772259097444
1539731619089826,2.3498893720911838,1.1291676203554744,4.119935912108076
1539731619105839,2.166781109330941,0.6408789196611906,3.1433585107195086
1539731619121852,1.6174563210497581,0.09155413138023505,2.105745021744042
1539731619137864,1.3122758831159445,-0.3967345693140487,1.0681315327688026
1539731619153877,1.3122758831159445,-1.0070954451819034,0.03051804379333589
1539731619169890,1.5564202334630863,-1.4953841458761872,-1.0681315327688026
1539731619185902,1.8616006713969,-2.166781109330941,-1.9226367589837992
1539731619201915,2.105745021744042,-2.8381780727854675,-2.532997634851654
1539731619217926,1.983672846570471,-3.3875028610666504,-2.8381780727854675
1539731619233938,1.4343480582895154,-3.692683299000464,-2.9602502479590385
1539731619249951,1.0681315327688026,-3.7537193865873633,-2.7771419851987957
1539731619265964,0.8239871824216607,-3.936827649347606,-2.166781109330941
1539731619281976,0.6408789196611906,-4.242008087281647,-1.4953841458761872
1539731619297989,0.45777065690094787,-4.547188525215461,-0.7629510948347615
1539731619314002,0.33569848172737693,-4.547188525215461,-0.213626306553806
1539731619330014,0.33569848172737693,-4.242008087281647,-0.03051804379333589
1539731619346027,0.45777065690094787,-3.875791561760934,0.2746623941404778
1539731619362040,0.6408789196611906,-3.570611123826893,0.7629510948347615
1539731619378052,0.3967345693140487,-3.3264667734797513,1.1902037079423735
1539731619394065,0.15259021896690683,-2.8992141603723667,1.6784924086366573
1539731619410078,0.15259021896690683,-2.4719615472647547,1.8616006713969
1539731619426090,0.2746623941404778,-2.04470893415737,1.9226367589837992
1539731619442103,0.45777065690094787,-1.739528496223329,1.9226367589837992
1539731619458116,0.5188067444876197,-1.3733119707026162,1.739528496223329
1539731619474128,0.3967345693140487,-1.0681315327688026,1.3733119707026162
1539731619490141,0.45777065690094787,-0.9460593575952316,1.1291676203554744
1539731619506154,0.8850232700083325,-1.0681315327688026,0.8850232700083325
1539731619522166,1.2512397955290453,-1.5564202334630863,1.0070954451819034
1539731619538177,1.2512397955290453,-1.983672846570471,1.3122758831159445
1539731619554190,0.8239871824216607,-2.3498893720911838,1.6784924086366573
1539731619570202,0.3967345693140487,-2.8992141603723667,1.8616006713969
1539731619586215,0.33569848172737693,-3.570611123826893,2.04470893415737
1539731619602228,0.5188067444876197,-4.119935912108076,1.8005645838102282
1539731619618240,0.8239871824216607,-4.303044174868319,1.4343480582895154
1539731619634253,0.8850232700083325,-3.875791561760934,0.7629510948347615
1539731619650266,0.7629510948347615,-3.0823224231326094,-0.09155413138023505
1539731619666278,0.6408789196611906,-2.227817196917613,-0.8239871824216607
1539731619682291,0.7019150072480898,-1.4953841458761872,-1.1291676203554744
1539731619698304,0.7019150072480898,-0.8850232700083325,-1.3733119707026162
1539731619714316,0.6408789196611906,-0.15259021896690683,-1.3122758831159445
1539731619730329,0.33569848172737693,0.5798428320745188,-0.7019150072480898
1539731619746342,0.09155413138023505,0.9460593575952316,0.33569848172737693
1539731619762354,0.213626306553806,0.45777065690094787,2.04470893415737
1539731619778367,0.3967345693140487,-0.5188067444876197,3.997863736934505
1539731619794380,0.03051804379333589,-1.8005645838102282,5.584802014190927
1539731619810392,-0.5798428320745188,-2.8992141603723667,6.317235065232353
1539731619826405,-0.8850232700083325,-3.570611123826893,5.645838101777599
1539731619842418,-0.7629510948347615,-3.6316472114137923,3.692683299000464
1539731619858429,0.15259021896690683,-3.0823224231326094,0.9460593575952316
1539731619874441,1.4953841458761872,-2.655069810025225,-1.4343480582895154
1539731619890454,2.655069810025225,-2.532997634851654,-2.655069810025225
1539731619906467,2.7161058976118966,-2.655069810025225,-2.4719615472647547
1539731619922479,1.6174563210497581,-2.655069810025225,-1.6174563210497581
1539731619938492,0.33569848172737693,-2.166781109330941,-0.7629510948347615
1539731619954505,0.15259021896690683,-1.8005645838102282,-0.09155413138023505
1539731619970517,0.7629510948347615,-1.6784924086366573,0.7019150072480898
1539731619986530,0.9460593575952316,-1.8616006713969,1.983672846570471
1539731620002543,0.33569848172737693,-2.5940337224383256,3.2654306858930795
1539731620018555,-0.3967345693140487,-3.3264667734797513,3.997863736934505
1539731620034568,-0.5188067444876197,-3.875791561760934,3.570611123826893
1539731620050581,0.15259021896690683,-3.875791561760934,2.04470893415737
1539731620066593,0.8850232700083325,-3.4485389486533222,0.03051804379333589
1539731620082606,1.6784924086366573,-2.7161058976118966,-1.739528496223329
1539731620098619,2.227817196917613,-2.105745021744042,-2.5940337224383256
1539731620114631,2.105745021744042,-1.6174563210497581,-2.4719615472647547
1539731620130644,1.2512397955290453,-1.1291676203554744,-1.8616006713969
1539731620146657,0.15259021896690683,-0.7019150072480898,-1.0681315327688026
1539731620162669,-0.2746623941404778,-0.33569848172737693,-0.3967345693140487
1539731620178680,-0.03051804379333589,-0.5188067444876197,0.33569848172737693
1539731620194693,0.2746623941404778,-0.8239871824216607,0.9460593575952316
1539731620210705,0.3967345693140487,-1.1902037079423735,1.4343480582895154
1539731620226718,0.213626306553806,-1.3733119707026162,1.6784924086366573
1539731620242731,-0.09155413138023505,-1.2512397955290453,1.4953841458761872
1539731620258743,-0.15259021896690683,-1.0070954451819034,1.0681315327688026
1539731620274756,0.15259021896690683,-0.8850232700083325,0.7019150072480898
1539731620290769,0.2746623941404778,-1.0070954451819034,0.6408789196611906
1539731620306781,-0.09155413138023505,-1.0681315327688026,0.9460593575952316
1539731620322794,-0.6408789196611906,-1.1291676203554744,1.4953841458761872
1539731620338807,-0.8239871824216607,-1.5564202334630863,2.04470893415737
1539731620354819,-0.7019150072480898,-2.3498893720911838,2.7771419851987957
1539731620370832,-0.5798428320745188,-3.3264667734797513,3.2654306858930795
1539731620386845,-0.45777065690094787,-3.692683299000464,3.3264667734797513
1539731620402857,0.03051804379333589,-3.570611123826893,3.0212863355459376
1539731620418870,0.8850232700083325,-3.3875028610666504,2.7161058976118966
1539731620434883,1.3733119707026162,-3.6316472114137923,2.8992141603723667
1539731620450895,1.0681315327688026,-3.997863736934505,3.2654306858930795
1539731620466908,0.15259021896690683,-3.6316472114137923,2.9602502479590385
1539731620482921,-0.15259021896690683,-2.7161058976118966,2.166781109330941
1539731620498962,0.09155413138023505,-2.04470893415737,1.4953841458761872
1539731620514975,0.3967345693140487,-1.9226367589837992,0.8850232700083325
1539731620530987,0.2746623941404778,-2.105745021744042,0.3967345693140487
1539731620547000,0.09155413138023505,-2.288853284504512,-0.2746623941404778
1539731620563013,0.2746623941404778,-2.227817196917613,-1.0681315327688026
1539731620579025,0.8850232700083325,-2.166781109330941,-1.739528496223329
1539731620595038,1.3122758831159445,-2.288853284504512,-2.04470893415737
1539731620611051,1.2512397955290453,-2.166781109330941,-1.739528496223329
1539731620627063,0.9460593575952316,-1.739528496223329,-1.1902037079423735
1539731620643076,0.5798428320745188,-1.2512397955290453,-0.5798428320745188
1539731620659089,0.5188067444876197,-0.7019150072480898,0.03051804379333589
1539731620675101,0.3967345693140487,-0.6408789196611906,0.7019150072480898
1539731620691114,0.3967345693140487,-0.8850232700083325,1.5564202334630863
1539731620707127,0.33569848172737693,-1.1291676203554744,2.04470893415737
1539731620723139,0.15259021896690683,-1.1902037079423735,2.288853284504512
1539731620739152,-0.15259021896690683,-1.3122758831159445,2.410925459678083
1539731620755165,0.03051804379333589,-1.6174563210497581,2.288853284504512
1539731620771177,0.5798428320745188,-2.227817196917613,2.288853284504512
1539731620787190,0.7019150072480898,-2.655069810025225,2.227817196917613
1539731620803203,0.33569848172737693,-2.9602502479590385,2.105745021744042
1539731620819213,0.03051804379333589,-2.9602502479590385,1.8616006713969
1539731620835226,0.09155413138023505,-2.8992141603723667,1.4953841458761872
1539731620851239,0.2746623941404778,-2.8381780727854675,1.1291676203554744
1539731620867251,0.2746623941404778,-2.8381780727854675,0.6408789196611906
1539731620883264,0.3967345693140487,-3.2043945983061803,0.5798428320745188
1539731620899277,0.5798428320745188,-3.875791561760934,0.8239871824216607
1539731620915290,0.7019150072480898,-4.60822461280236,0.8850232700083325
1539731620931302,1.0070954451819034,-5.0354772259097444,0.7019150072480898
1539731620947315,1.6784924086366573,-5.157549401083315,0.5188067444876197
1539731620963328,1.8616006713969,-4.791332875562603,0.3967345693140487
1539731620979340,1.4953841458761872,-4.119935912108076,0.213626306553806
1539731620995353,1.3733119707026162,-3.2654306858930795,-0.15259021896690683
1539731621011366,1.6784924086366573,-2.5940337224383256,-0.33569848172737693
1539731621027378,1.8616006713969,-2.04470893415737,-0.7019150072480898
1539731621043391,1.6174563210497581,-1.6784924086366573,-1.0070954451819034
1539731621059404,1.3733119707026162,-1.2512397955290453,-1.4343480582895154
1539731621075416,1.4953841458761872,-0.7019150072480898,-1.8616006713969
1539731621091429,1.8005645838102282,-0.5188067444876197,-2.3498893720911838
1539731621107442,2.04470893415737,-0.5798428320745188,-2.7771419851987957
1539731621123454,2.288853284504512,-0.7629510948347615,-2.8381780727854675
1539731621139495,2.227817196917613,-0.8239871824216607,-2.410925459678083
1539731621155508,1.6784924086366573,-0.5798428320745188,-1.739528496223329
1539731621171521,1.0681315327688026,-0.3967345693140487,-0.7019150072480898
1539731621187533,0.7629510948347615,-0.6408789196611906,0.5188067444876197
1539731621203546,0.7629510948347615,-0.9460593575952316,1.6174563210497581
1539731621219559,0.33569848172737693,-1.4343480582895154,2.532997634851654
1539731621235571,-0.15259021896690683,-1.8616006713969,3.1433585107195086
1539731621251584,-0.2746623941404778,-2.655069810025225,3.3875028610666504
1539731621267597,0.2746623941404778,-3.4485389486533222,3.2654306858930795
1539731621283609,0.213626306553806,-3.6316472114137923,2.8381780727854675
1539731621299622,-0.2746623941404778,-3.7537193865873633,2.288853284504512
1539731621315635,-0.3967345693140487,-4.119935912108076,1.9226367589837992
1539731621331647,0.09155413138023505,-4.852368963149502,1.8005645838102282
1539731621347660,0.213626306553806,-4.730296787975931,1.4953841458761872
1539731621363673,-0.213626306553806,-3.814755474174035,1.0070954451819034
1539731621379686,-0.45777065690094787,-2.7161058976118966,0.5798428320745188
1539731621395698,-0.09155413138023505,-2.227817196917613,0.5188067444876197
1539731621411711,0.5188067444876197,-2.410925459678083,0.9460593575952316
1539731621427724,0.8239871824216607,-2.5940337224383256,1.3122758831159445
1539731621443736,0.8850232700083325,-2.105745021744042,1.3122758831159445
1539731621459747,1.0070954451819034,-1.6174563210497581,1.1902037079423735
1539731621475760,1.1291676203554744,-1.4953841458761872,1.3122758831159445
1539731621491772,1.0681315327688026,-1.739528496223329,1.5564202334630863
1539731621507785,0.8850232700083325,-1.6784924086366573,1.5564202334630863
1539731621523798,0.7629510948347615,-1.6784924086366573,1.3733119707026162
1539731621539810,0.7019150072480898,-2.105745021744042,0.8850232700083325
1539731621555823,0.8239871824216607,-2.7161058976118966,0.213626306553806
1539731621571836,1.0681315327688026,-2.8381780727854675,-0.7629510948347615
1539731621587848,1.2512397955290453,-2.5940337224383256,-2.04470893415737
1539731621603861,1.3733119707026162,-2.3498893720911838,-3.1433585107195086
1539731621619874,1.739528496223329,-2.655069810025225,-3.692683299000464
1539731621635886,2.105745021744042,-3.0212863355459376,-3.692683299000464
1539731621651899,2.105745021744042,-2.7771419851987957,-3.4485389486533222
1539731621667912,1.4953841458761872,-1.8616006713969,-3.0212863355459376
1539731621683924,0.8850232700083325,-0.9460593575952316,-2.3498893720911838
1539731621699937,0.5798428320745188,-0.3967345693140487,-1.2512397955290453
1539731621715950,0.5188067444876197,-0.3967345693140487,-0.03051804379333589
1539731621731962,0.6408789196611906,-0.3967345693140487,1.2512397955290453
1539731621747975,0.8850232700083325,-0.45777065690094787,2.410925459678083
1539731621763988,0.5798428320745188,-0.5798428320745188,3.5095750362402214
1539731621779998,-0.213626306553806,-0.7019150072480898,4.791332875562603
1539731621796011,-1.1902037079423735,-0.8239871824216607,5.76791027695117
1539731621812024,-1.4343480582895154,-1.0681315327688026,6.134126802471883
1539731621828036,-1.0070954451819034,-1.4953841458761872,6.012054627298312
1539731621844049,-0.5798428320745188,-2.288853284504512,5.523765926604028
1539731621860062,-0.45777065690094787,-3.2654306858930795,4.9134050507361735
1539731621876074,-0.5798428320745188,-4.180971999694748,4.119935912108076
1539731621892087,-0.7629510948347615,-4.547188525215461,2.9602502479590385
1539731621908100,-0.45777065690094787,-4.791332875562603,1.5564202334630863
1539731621924112,0.15259021896690683,-4.9134050507361735,0.2746623941404778
1539731621940125,0.45777065690094787,-4.791332875562603,-0.45777065690094787
1539731621956138,0.03051804379333589,-4.364080262455218,-0.7629510948347615
1539731621972150,-0.5188067444876197,-3.875791561760934,-0.7629510948347615
1539731621988163,-0.5188067444876197,-3.692683299000464,-0.5798428320745188
1539731622004176,0.213626306553806,-3.7537193865873633,-0.33569848172737693
1539731622020188,0.9460593575952316,-3.814755474174035,-0.03051804379333589
1539731622036201,1.0681315327688026,-3.570611123826893,0.03051804379333589
1539731622052214,1.1291676203554744,-3.2043945983061803,0.03051804379333589
1539731622068226,1.1902037079423735,-2.8992141603723667,-0.03051804379333589
1539731622084239,1.3122758831159445,-2.5940337224383256,-0.03051804379333589
1539731622100250,1.3733119707026162,-2.288853284504512,-0.15259021896690683
1539731622116263,1.5564202334630863,-2.227817196917613,-0.09155413138023505
1539731622132275,1.5564202334630863,-2.410925459678083,0.213626306553806
1539731622148288,1.1902037079423735,-2.288853284504512,0.3967345693140487
1539731622164301,0.5798428320745188,-2.04470893415737,0.7629510948347615
1539731622180313,0.213626306553806,-1.9226367589837992,1.0681315327688026
1539731622196326,0.15259021896690683,-2.227817196917613,1.5564202334630863
1539731622212339,0.5188067444876197,-2.9602502479590385,2.166781109330941
1539731622228351,0.6408789196611906,-3.997863736934505,2.8381780727854675
1539731622244364,0.5188067444876197,-4.852368963149502,3.3264667734797513
1539731622260377,0.7629510948347615,-5.401693751430457,3.5095750362402214
1539731622276389,1.1902037079423735,-5.584802014190927,3.6316472114137923
1539731622292402,1.3122758831159445,-5.645838101777599,4.058899824521177
1539731622308415,0.9460593575952316,-5.76791027695117,4.486152437628789
1539731622324427,0.9460593575952316,-5.76791027695117,4.60822461280236
1539731622340440,1.6784924086366573,-5.95101853971164,4.364080262455218
1539731622356453,2.288853284504512,-6.012054627298312,3.5095750362402214
1539731622372465,2.5940337224383256,-5.889982452124741,2.5940337224383256
1539731622388478,2.532997634851654,-5.462729839017356,1.739528496223329
1539731622404491,2.04470893415737,-4.486152437628789,0.8850232700083325
1539731622420501,1.3122758831159445,-3.0212863355459376,-0.03051804379333589
1539731622436514,0.7019150072480898,-1.6174563210497581,-0.8850232700083325
1539731622452527,1.0070954451819034,-1.0681315327688026,-1.3122758831159445
1539731622468539,1.8005645838102282,-1.2512397955290453,-1.4343480582895154
1539731622484552,1.983672846570471,-1.5564202334630863,-1.3733119707026162
1539731622500565,1.4343480582895154,-1.6784924086366573,-1.1902037079423735
1539731622516577,1.0070954451819034,-1.8005645838102282,-1.1291676203554744
1539731622532590,1.1291676203554744,-2.227817196917613,-1.0681315327688026
1539731622548603,1.739528496223329,-2.7771419851987957,-0.8850232700083325
1539731622564615,2.3498893720911838,-3.4485389486533222,-0.7629510948347615
1539731622580628,2.410925459678083,-3.875791561760934,-0.5188067444876197
1539731622596641,1.9226367589837992,-4.058899824521177,-0.45777065690094787
1539731622612653,1.2512397955290453,-3.875791561760934,-0.5798428320745188
1539731622628666,0.8850232700083325,-3.4485389486533222,-0.8239871824216607
1539731622644679,0.8850232700083325,-2.9602502479590385,-1.0070954451819034
1539731622660691,0.9460593575952316,-2.8992141603723667,-0.9460593575952316
1539731622676704,0.8850232700083325,-2.9602502479590385,-0.7629510948347615
1539731622692717,0.8239871824216607,-3.0212863355459376,-0.6408789196611906
1539731622708729,0.7629510948347615,-2.9602502479590385,-0.5798428320745188
1539731622724742,0.8850232700083325,-2.8992141603723667,-0.33569848172737693
1539731622740753,0.5188067444876197,-2.7771419851987957,0.33569848172737693
1539731622756765,-0.03051804379333589,-2.655069810025225,0.7019150072480898
1539731622772778,0.7019150072480898,-3.0823224231326094,0.7019150072480898
1539731622788791,2.105745021744042,-3.936827649347606,0.9460593575952316
1539731622804803,2.410925459678083,-4.486152437628789,1.4953841458761872
1539731622820816,1.6174563210497581,-4.547188525215461,2.04470893415737
1539731622836829,1.3122758831159445,-4.180971999694748,2.4719615472647547
1539731622852841,1.4953841458761872,-3.692683299000464,2.3498893720911838
1539731622868854,1.1902037079423735,-2.9602502479590385,1.8005645838102282
1539731622884867,0.45777065690094787,-2.105745021744042,1.0681315327688026
1539731622900879,-0.09155413138023505,-1.5564202334630863,0.2746623941404778
1539731622916892,0.15259021896690683,-1.8005645838102282,-0.3967345693140487
1539731622932905,0.2746623941404778,-2.5940337224383256,-1.0070954451819034
1539731622948917,0.33569848172737693,-3.4485389486533222,-1.8005645838102282
1539731622964930,0.45777065690094787,-3.814755474174035,-2.5940337224383256
1539731622980943,0.5798428320745188,-3.5095750362402214,-3.4485389486533222
1539731622996955,0.6408789196611906,-3.2654306858930795,-3.875791561760934
1539731623012968,0.7019150072480898,-3.2654306858930795,-3.692683299000464
1539731623028981,0.8850232700083325,-3.2654306858930795,-3.1433585107195086
1539731623044994,0.6408789196611906,-2.7771419851987957,-2.166781109330941
1539731623061035,-0.15259021896690683,-2.105745021744042,-1.1902037079423735
1539731623077047,-0.5798428320745188,-1.8616006713969,-0.15259021896690683
1539731623093060,-0.15259021896690683,-2.166781109330941,0.9460593575952316
1539731623109073,0.3967345693140487,-2.410925459678083,1.9226367589837992
1539731623125085,0.7019150072480898,-2.288853284504512,2.5940337224383256
1539731623141098,0.7629510948347615,-2.227817196917613,3.0823224231326094
1539731623157111,0.5798428320745188,-2.532997634851654,3.4485389486533222
1539731623173123,0.33569848172737693,-3.0823224231326094,3.4485389486533222
1539731623189136,-0.15259021896690683,-3.5095750362402214,3.3264667734797513
1539731623205149,-0.7629510948347615,-3.3875028610666504,2.4719615472647547
1539731623221161,-0.8850232700083325,-3.0212863355459376,1.0681315327688026
1539731623237174,-0.03051804379333589,-2.7161058976118966,-0.33569848172737693
1539731623253187,0.7629510948347615,-2.532997634851654,-1.2512397955290453
1539731623269199,0.7019150072480898,-2.227817196917613,-1.4343480582895154
1539731623285212,0.15259021896690683,-1.8616006713969,-0.9460593575952316
1539731623301225,-0.09155413138023505,-1.4343480582895154,-0.09155413138023505
1539731623317237,-0.09155413138023505,-0.7629510948347615,0.5798428320745188
1539731623333250,0.09155413138023505,-0.09155413138023505,1.1291676203554744
1539731623349263,0.2746623941404778,0.2746623941404778,1.739528496223329
1539731623365275,0.33569848172737693,0.2746623941404778,2.410925459678083
1539731623381286,0.33569848172737693,-0.213626306553806,2.9602502479590385
