Timestamp (microseconds),Accel X (g),Accel Y (g),Accel Z (g)
1539732243225586,1.0059357595178149,0.09442282749675712,-0.038757915617608774
1539732243241588,0.9886015106431678,0.10833905546654421,-0.03399710078583951
1539732243257591,0.970046540016785,0.1184710460059506,-0.026062409399557396
1539732243273594,0.9541771572442208,0.12481879911497629,-0.021667811093308842
1539732243289596,0.9494163424124515,0.1281147478446636,-0.015930418860151008
1539732243305599,0.9574731059739072,0.12616159304188646,-0.010315098802166744
1539732243321601,0.9627222095063708,0.12494087129014986,-0.009582665751125319
1539732243337604,0.9721217669947357,0.12408636606393486,-0.004943923094529623
1539732243353607,0.9801785305561914,0.1251850156404979,-0.004943923094529623
1539732243369609,1.000808728160525,0.11871519035629774,-0.00836194399938961
1539732243385612,1.0132600900282291,0.1155413138017849,-0.001037613488975353
1539732243401615,1.0153353170061798,0.11432059205004919,-0.001159685664148924
1539732243417617,1.0135042343785763,0.11407644769970204,-0.00836194399938961
1539732243433620,1.0105745021744106,0.10894941634241206,-0.014709697108415298
1539732243449623,1.0091096360723277,0.10382238498512208,-0.01605249103532458
1539732243465625,0.9987335011825742,0.09613183794918712,-0.011657892729076025
1539732243481628,0.9955596246280614,0.08770885786221072,-0.014099336232547444
1539732243497631,0.9840848401617457,0.08331425955596217,-0.010681315327687457
1539732243513633,0.9739528496223393,0.07891966124971361,-0.014587624933241727
1539732243529636,0.9707789730678265,0.07196154726482007,-0.015930418860151008
1539732243545623,0.9756618600747693,0.06768902113374509,-0.018371862363622427
1539732243561626,0.9733424887464714,0.0663462272068358,-0.015930418860151008
1539732243577629,0.9696803234912643,0.062439917601281536,-0.015686274509803866
1539732243593631,0.96406500343328,0.06378271152819082,-0.012146181429770309
1539732243609634,0.9639429312581065,0.06170748455024011,-0.012512397955291021
1539732243625637,0.9724879835202564,0.06207370107576082,-0.019470511940184565
1539732243641639,0.9762722209506371,0.0659800106813151,-0.017029068436713146
1539732243657642,0.9694361791409172,0.07415884641794435,-0.00970473792629889
1539732243673645,0.9639429312581065,0.08258182650492074,-0.00457770656900891
1539732243689647,0.9644312199588008,0.089906157015335,-0.004455634393835339
1539732243705650,0.96577401388571,0.09173723964293856,-0.007873655298695326
1539732243721653,0.9756618600747693,0.08392462043183002,-0.011413748378728883
1539732243737655,0.9812771801327536,0.08123903257801146,-0.010070954451819603
1539732243753658,0.9883573662928207,0.07794308384832505,-0.008606088349736751
1539732243769661,0.9960479133287556,0.08331425955596217,-0.006286717021438903
1539732243785663,0.9909208819714657,0.08575570305943359,-0.011291676203555312
1539732243801666,0.9923857480735485,0.07989623865110218,-0.01898222323949028
1539732243817669,0.9933623254749371,0.07415884641794435,-0.019226367589837423
1539732243833671,0.9926298924238957,0.06854352635996008,-0.015442130159456724
1539732243849674,0.9956816968032349,0.06768902113374509,-0.01873807888914314
1539732243865692,1.0005645838101778,0.06622415503166224,-0.025818265049210254
1539732243881694,1.0004425116350042,0.06927595941100151,-0.02288853284504455
1539732243897697,1.0004425116350042,0.07318226901655578,-0.020447089341573133
1539732243913700,0.9994659342336156,0.08001831082627575,-0.015930418860151008
1539732243929702,0.9967803463797971,0.08807507438773143,-0.013244831006332447
1539732243945705,0.9981231403067063,0.0869764248111693,-0.012512397955291021
1539732243961708,1.000808728160525,0.08807507438773143,-0.012024109254596738
1539732243977710,1.0075226977950713,0.09234760051880642,-0.006286717021438903
1539732243993713,1.0092317082475013,0.10601968413824636,-7.934691386282111E-4
1539732244009716,1.023514152742809,0.11798275730525631,0.007507438773174613
1539732244025718,1.025223163195239,0.1281147478446636,0.011291676203555312
1539732244041721,1.0229037918669412,0.13214312962539143,0.0060425726710917615
1539732244057724,1.0176546883344777,0.1276264591439693,-6.713969634546402E-4
1539732244073726,1.0148470283054856,0.12335393301289344,-0.00836194399938961
1539732244089729,1.0165560387579156,0.1138323033493549,-0.009460593575951748
1539732244105732,1.0041046768902113,0.10589761196307279,-0.009094377050431035
1539732244121734,0.9921416037232014,0.09515526054779855,-0.01239032578011745
1539732244137737,0.9801785305561914,0.0869764248111693,-0.011535820553902454
1539732244153740,0.9724879835202564,0.0739147020675972,-0.014099336232547444
1539732244169742,0.97602807660029,0.060975051499198685,-0.020447089341573133
1539732244185852,0.9773708705271993,0.04962233920805659,-0.017883573662928143
1539732244201855,0.9732204165712979,0.03326466773479808,-0.02655069810025168
1539732244217858,0.9695582513160907,0.023254749370565264,-0.029724574654764524
1539732244233861,0.9677271686884872,0.011657892729076025,-0.040344853894865196
1539732244249864,0.9707789730678265,0.008117799649042468,-0.048157473105973736
1539732244265867,0.9704127565423057,0.014709697108415298,-0.0470588235294116
1539732244281870,0.9699244678416115,0.03204394598306237,-0.044007019150072324
1539732244297874,0.9639429312581065,0.04596017395284946,-0.04046692607003877
1539732244313877,0.9529564354924851,0.05548180361638799,-0.04437323567559304
1539732244329880,0.9470969710841537,0.058411535820553695,-0.04510566872663446
1539732244345883,0.9444113832303351,0.05938811322194226,-0.045593957427328746
1539732244361886,0.945876249332418,0.06121919584954583,-0.04107728694590662
1539732244377889,0.9519798580910965,0.06488136110475295,-0.038757915617608774
1539732244393892,0.9623559929808501,0.062317845426107965,-0.04132143129625376
1539732244409896,0.9679713130388343,0.05902189669642155,-0.042908369573510186
1539732244425899,0.9772487983520257,0.04718089570458517,-0.0499885557335773
1539732244441902,0.9929961089494164,0.04119935912108019,-0.04827954528114731
1539732244457905,0.9955596246280614,0.04583810177767589,-0.03460746166170736
1539732244473908,0.9882352941176471,0.053284504463263715,-0.025085831998168828
1539732244489911,0.9959258411535821,0.05889982452124798,-0.02789349202716096
1539732244506103,1.00166323338674,0.06207370107576082,-0.030090791180285237
1539732244522107,1.0038605325398642,0.06256198977645511,-0.03179980163271523
1539732244538111,1.0056916151674677,0.0659800106813151,-0.023376821545738835
1539732244554115,1.005325398641947,0.0776989394979779,-0.018127718013275285
1539732244570119,1.0106965743495842,0.0852674143587393,-0.010437170977340315
1539732244586124,1.0158236057068741,0.08563363088426001,-0.010559243152513886
1539732244602128,1.0117952239261463,0.08404669260700359,-0.010803387502861028
1539732244618132,1.0050812542916,0.08087281605249075,-0.010315098802166744
1539732244634136,0.9977569237811856,0.08087281605249075,-0.011902037079423167
1539732244650140,0.9940947585259785,0.07757686732280433,-0.008850232700083893
1539732244666144,0.9872587167162585,0.07306019684138221,-0.006408789196612474
1539732244682148,0.9772487983520257,0.05938811322194226,-0.012024109254596738
1539732244698152,0.9679713130388343,0.04596017395284946,-0.01739528496223386
1539732244714156,0.9695582513160907,0.03460746166170736,-0.019470511940184565
1539732244730160,0.98115510795758,0.02935835812924381,-0.015930418860151008
1539732244746164,0.9931181811245899,0.029480430304417382,-0.010193026626993174
1539732244762169,1.0066681925688563,0.028747997253375956,-0.007751583123521755
1539732244778173,1.0158236057068741,0.02789349202716096,-0.008239871824216038
1539732244794177,1.0290074006256198,0.03338673990997165,-0.014465552758068156
1539732244810181,1.0327916380560005,0.05145342183566015,-0.016540779736018862
1539732244826294,1.027786678873884,0.07232776379034078,-0.009460593575951748
1539732244842298,1.0220492866407263,0.0844129091325243,9.15541313801782E-4
1539732244858303,1.0168001831082627,0.09173723964293856,0.003112840466926059
1539732244874307,1.0077668421454185,0.10150301365682424,0.004821850919356052
1539732244890312,0.9954375524528878,0.1033340962844278,6.103608758678547E-5
1539732244906316,0.9870145723659114,0.10089265278095638,-0.00970473792629889
1539732244922321,0.9774929427023729,0.09600976577401354,-0.014099336232547444
1539732244938326,0.96919203479057,0.08734264133669001,-0.008239871824216038
1539732244954330,0.9663843747615779,0.07489127946898577,-0.0040894178683146265
1539732244970335,0.9684596017395286,0.060852979324025114,-0.008972304875257464
1539732244986339,0.9737087052719922,0.05145342183566015,-0.01617456321049815
1539732245002344,0.9750514991989014,0.04046692607003877,-0.021179522392614558
1539732245018348,0.9860379949645228,0.027649347676813818,-0.026062409399557396
1539732245034353,0.9971465629053178,0.02276646066987098,-0.02264438849469741
1539732245050357,1.0005645838101778,0.028747997253375956,-0.020447089341573133
1539732245066362,0.9934843976501107,0.039002059967955915,-0.01861600671396957
1539732245082367,0.9840848401617457,0.04193179217212162,-0.023743038071259548
1539732245098371,0.9829861905851836,0.0394903486686502,-0.02911421377889667
1539732245114376,0.9806668192568857,0.04132143129625376,-0.025940337224383825
1539732245130380,0.9762722209506371,0.04876783398184159,-0.018493934538795997
1539732245146545,0.97431906614786,0.06121919584954583,-0.015686274509803866
1539732245162550,0.9763942931258107,0.06744487678339794,-0.017761501487754572
1539732245178555,0.9713893339436943,0.06573586633096795,-0.017151140611886717
1539732245194560,0.9688258182650493,0.060975051499198685,-0.019104295414663852
1539732245210565,0.9684596017395286,0.057190814068817986,-0.022400244144350268
1539732245226570,0.973464560921645,0.051941710536354435,-0.021789883268482413
1539732245242575,0.978591592278935,0.05157549401083372,-0.01483176928358887
1539732245258580,0.9772487983520257,0.053772793163958,-0.014465552758068156
1539732245274585,0.9806668192568857,0.049378194857709445,-0.01898222323949028
1539732245290590,0.9889677271686885,0.04498359655146089,-0.02264438849469741
1539732245306595,0.9926298924238957,0.04437323567559304,-0.01995880064087885
1539732245322600,0.9898222323949035,0.045471885252155175,-0.020569161516746703
1539732245338606,0.9873807888914321,0.04827954528114731,-0.023132677195391693
1539732245354611,0.9839627679865721,0.0499885557335773,-0.023376821545738835
1539732245370616,0.9846952010376135,0.04864576180666802,-0.02923628595407024
1539732245386621,0.9849393453879607,0.05230792706187515,-0.0214236667429617
1539732245402626,0.98457312886244,0.05365072098878443,-0.020935378042267416
1539732245418631,0.9821316853589686,0.05560387579156156,-0.027405203326466676
1539732245434636,0.9867704280155642,0.05621423666742942,-0.029968719005111666
1539732245450641,0.9850614175631343,0.06024261844815726,-0.028381780727855244
1539732245466797,0.9831082627603571,0.05792324711985941,-0.0319218738078888
1539732245482802,0.9890897993438621,0.053284504463263715,-0.03143358510719452
1539732245498808,0.9976348516060121,0.049500267032883016,-0.021911955443655984
1539732245514813,1.0097199969481956,0.04608224612802303,-0.02008087281605242
1539732245530819,1.0111848630502784,0.05743495841916513,-0.022034027618829555
1539732245546824,1.0106965743495842,0.0663462272068358,-0.024475471122300974
1539732245562830,1.0100862134737163,0.07354848554207649,-0.02020294499122599
1539732245578835,1.0075226977950713,0.07818722819867219,-0.01629663538567172
1539732245594841,1.0076447699702449,0.0823376821545736,-0.0040894178683146265
1539732245610846,1.0141145952544441,0.08734264133669001,-0.004333562218661768
1539732245626852,1.0160677500572213,0.0957656214236664,-0.0061646448462653325
1539732245642857,1.0182650492103456,0.09723048752574925,-0.01495384145876244
1539732245658863,1.0247348744945448,0.08416876478217716,-0.028747997253375956
1539732245674868,1.029251544975967,0.062195773250934394,-0.04217593652246876
1539732245690874,1.033524071107042,0.0386358434424352,-0.04840161745632088
1539732245706879,1.029251544975967,0.02032501716639956,-0.05499351491569371
1539732245722885,1.0188754100862134,0.015320057984283153,-0.06598001068131554
1539732245738890,1.0043488212405585,0.013000686655985305,-0.07354848554207694
1539732245754896,0.9921416037232014,0.0109254596780346,-0.0800183108262762
1539732245770901,0.9781033035782407,0.005432211795223907,-0.08099488822766476
1539732245787017,0.9647974364843215,-0.00323491264209963,-0.07257190814068837
1539732245803023,0.9563744563973451,6.713969634546402E-4,-0.06207370107576082
1539732245819029,0.953566796368353,0.015686274509803866,-0.05645838101777656
1539732245835035,0.9560082398718244,0.036316472114137355,-0.05511558709086728
1539732245851041,0.9591821164263372,0.05230792706187515,-0.05535973144121442
1539732245867047,0.954421301594568,0.06305027847714939,-0.04193179217212162
1539732245883053,0.9514915693904022,0.07049668116273722,-0.027405203326466676
1539732245899059,0.9521019302662701,0.08868543526359929,-0.020447089341573133
1539732245915065,0.9607690547035936,0.09515526054779855,-0.02532997634851597
1539732245931071,0.9823758297093157,0.0709849698634315,-0.04229800869764233
1539732245947077,1.0082551308461127,0.03582818341344307,-0.053162432288090145
1539732245963083,1.0185091935606927,0.01861600671396957,-0.04510566872663446
1539732245979089,1.0071564812695506,0.034973678187228074,-0.031189440756847375
1539732245995095,0.9876249332417792,0.06817730983443937,-0.024353398947127403
1539732246011101,0.9710231174181736,0.07953002212558147,-0.02655069810025168
1539732246027107,0.9618677042801558,0.06207370107576082,-0.029846646829938095
1539732246043113,0.9575951781490808,0.033630884260318794,-0.03582818341344307
1539732246059119,0.9643091477836272,0.023254749370565264,-0.045593957427328746
1539732246075125,0.97944609750515,0.03472953383688093,-0.049134050507362304
1539732246091131,1.0023956664377813,0.04449530785076661,-0.057190814068817986
1539732246107269,1.0314488441290912,0.03973449301899734,-0.06610208285648911
1539732246123275,1.058548867017624,0.026306553749904538,-0.06451514457923269
1539732246139282,1.063065537499046,0.022400244144350268,-0.06610208285648911
1539732246155288,1.0420691233691919,0.03558403906309593,-0.06060883497367797
1539732246171295,1.0210727092393377,0.052918287937743,-0.06146334019989297
1539732246187301,0.9984893568322271,0.07171740291447293,-0.06268406195162912
1539732246203308,0.9754177157244222,0.07330434119172935,-0.0631723506523234
1539732246219314,0.9512474250400551,0.07086289768825793,-0.05804531929503298
1539732246235321,0.9362325474937059,0.07354848554207649,-0.0575570305943387
1539732246251327,0.9365987640192266,0.08014038300144932,-0.05816739147020655
1539732246267334,0.9532005798428322,0.08429083695735073,-0.05682459754329727
1539732246283340,0.9641870756084536,0.07879758907454004,-0.054627298390172996
1539732246299347,0.9838406958113985,0.06170748455024011,-0.06146334019989297
1539732246315353,0.9945830472266728,0.06268406195162868,-0.0657358663309684
1539732246331359,0.9867704280155642,0.06952010376134865,-0.06976424811169624
1539732246347366,0.98286411841001,0.07501335164415934,-0.0631723506523234
1539732246363372,0.9767605096513314,0.0718394750896465,-0.051819638361180864
1539732246379379,0.9661402304112308,0.07244983596551435,-0.04071107042038591
1539732246395385,0.9597924773022051,0.07220569161516721,-0.04254215304798947
1539732246411392,0.9646753643091479,0.07586785687037434,-0.05426108186465228
1539732246427520,0.9627222095063708,0.07721065079728362,-0.04779125658045302
1539732246443527,0.9721217669947357,0.06610208285648866,-0.04315251392385733
1539732246459534,0.9823758297093157,0.054505226214999425,-0.03350881208514522
1539732246475541,0.9872587167162585,0.0567025253681237,-0.0319218738078888
1539732246491548,0.9878690775921264,0.06207370107576082,-0.0357061112382695
1539732246507555,0.9895780880445564,0.06854352635996008,-0.03326466773479808
1539732246523562,0.9833524071107043,0.07440299076829149,-0.03216601815823594
1539732246539569,0.975173571374075,0.06659037155718295,-0.0319218738078888
1539732246555576,0.9606469825284201,0.06500343327992653,-0.028503852903028815
1539732246571583,0.952712291142138,0.06500343327992653,-0.02679484245059882
1539732246587590,0.9606469825284201,0.07061875333791079,-0.023010605020218122
1539732246603597,0.9572289616235601,0.0776989394979779,-0.018371862363622427
1539732246619604,0.9499046311131458,0.08502327000839216,-0.016662851911192433
1539732246635611,0.9466086823834594,0.07684443427176291,-0.022400244144350268
1539732246651618,0.9440451667048144,0.06659037155718295,-0.029968719005111666
1539732246667625,0.9497825589379723,0.05804531929503298,-0.028381780727855244
1539732246683632,0.9440451667048144,0.05926604104676869,-0.023620965896085977
1539732246699638,0.9491721980621044,0.061097123674372256,-0.02386511024643312
1539732246715645,0.964919508659495,0.05877775234607441,-0.029480430304417382
1539732246731652,0.9938506141756314,0.04644846265354374,-0.03814755474174092
1539732246747741,1.0213168535896848,0.026062409399557396,-0.048157473105973736
1539732246763749,1.0539101243610283,0.004821850919356052,-0.06707866025787768
1539732246779756,1.0618448157473104,-0.004943923094529623,-0.07818722819867263
1539732246795764,1.0501258869306476,-0.0015259021896696368,-0.0707408255130848
1539732246811771,1.0261997405966277,0.012024109254596738,-0.056946669718470844
1539732246827778,1.010452429999237,0.02008087281605242,-0.0640268558785384
1539732246843786,1.010452429999237,0.021911955443655984,-0.07098496986343195
1539732246859793,1.0011749446860456,0.028259708552681673,-0.06793316548409267
1539732246875801,0.9842069123369193,0.041565575646600905,-0.053284504463263715
1539732246891808,0.9757839322499429,0.05877775234607441,-0.044007019150072324
1539732246907816,0.9840848401617457,0.08770885786221072,-0.03680476081483164
1539732246923823,0.9846952010376135,0.11615167467765275,-0.02679484245059882
1539732246939830,0.9781033035782407,0.13250934615091214,-0.02386511024643312
1539732246955838,0.9696803234912643,0.13446250095368928,-0.024719615472648115
1539732246971845,0.9673609521629665,0.12127870603494273,-0.023620965896085977
1539732246987853,0.971755550469215,0.10785076676584993,-0.016662851911192433
1539732247003860,0.9746852826733807,0.09356832227054213,-0.01483176928358887
1539732247019868,0.9864042114900435,0.08197146562905289,-0.01995880064087885
1539732247035875,0.9901884489204242,0.06781109330891866,-0.02789349202716096
1539732247051882,0.9886015106431678,0.056946669718470844,-0.022278171969176697
1539732247067993,0.982009613183795,0.04718089570458517,-0.01483176928358887
1539732247084001,0.9868925001907378,0.031189440756847375,-0.020691233691920274
1539732247100009,0.9939726863508049,0.013122758831158876,-0.027283131151293105
1539732247116016,0.9967803463797971,6.713969634546402E-4,-0.0252079041733424
1539732247132024,0.9972686350804914,0.005310139620050336,-0.025696192874036683
1539732247148032,1.0060578316929885,0.015808346684977437,-0.02423132677195383
1539732247164040,1.0152132448310063,0.024841687647821686,-0.021057450217440987
1539732247180048,1.0219272144655527,0.029846646829938095,-0.022278171969176697
1539732247196056,1.0274204623483634,0.03302052338445094,-0.02252231631952384
1539732247212064,1.024979018844892,0.04180971999694805,-0.0214236667429617
1539732247228072,1.022659647516594,0.04827954528114731,-0.017029068436713146
1539732247244080,1.021560997940032,0.04632639047837017,-0.019226367589837423
1539732247260088,1.0200961318379491,0.04583810177767589,-0.0214236667429617
1539732247276095,1.0114290074006256,0.05108720531013944,-0.024353398947127403
1539732247292103,1.005325398641947,0.04888990615701516,-0.028625925078202386
1539732247308111,0.9948271915770199,0.04583810177767589,-0.0319218738078888
1539732247324119,0.9872587167162585,0.03814755474174092,-0.03338673990997165
1539732247340127,0.9782253757534143,0.032288090333409514,-0.03326466773479808
1539732247356135,0.96919203479057,0.030823224231326662,-0.033630884260318794
1539732247372143,0.9704127565423057,0.027405203326466676,-0.041443503471427334
1539732247388214,0.9722438391699093,0.022400244144350268,-0.0499885557335773
1539732247404222,0.9732204165712979,0.020813305867093845,-0.049378194857709445
1539732247420230,0.9672388799877929,0.02130159456778813,-0.042786297398336615
1539732247436237,0.9705348287174793,0.021179522392614558,-0.04449530785076661
1539732247452245,0.9829861905851836,0.021179522392614558,-0.046814679179064456
1539732247468253,0.99140917067216,0.022400244144350268,-0.04693675135423803
1539732247484261,1.0009308003356985,0.02020294499122599,-0.05157549401083372
1539732247500269,1.0006866559853513,0.022034027618829555,-0.04852368963149445
1539732247516277,0.9966582742046235,0.023254749370565264,-0.05096513313496587
1539732247532285,0.9960479133287556,0.020935378042267416,-0.044251163500419466
1539732247548293,0.9955596246280614,0.024719615472648115,-0.038879987792782345
1539732247564301,0.9917753871976807,0.03143358510719452,-0.03607232776379021
1539732247580309,0.987136644541085,0.03668268863965807,-0.041565575646600905
1539732247596316,0.9795681696803236,0.0432745860990309,-0.04095521477073305
1539732247612324,0.9754177157244222,0.035095750362401645,-0.05035477225909801
1539732247628332,0.9784695201037614,0.027527275501640247,-0.04180971999694805
1539732247644340,0.9761501487754636,0.012634470130464592,-0.04229800869764233
1539732247660348,0.9665064469367515,0.006530861371786045,-0.04217593652246876
1539732247676356,0.9646753643091479,0.01226825360494388,-0.045349813076981604
1539732247692364,0.9752956435492486,0.023620965896085977,-0.04046692607003877
1539732247708465,0.9835965514610514,0.034851606012054503,-0.03668268863965807
1539732247724474,0.9915312428473335,0.036438544289310926,-0.03802548256656735
1539732247740482,1.0054474708171206,0.03350881208514522,-0.04461738002594018
1539732247756490,1.0127718013275349,0.0365606164644845,-0.04522774090180803
1539732247772499,1.0039826047150378,0.041565575646600905,-0.04193179217212162
1539732247788507,0.9909208819714657,0.04852368963149445,-0.03973449301899734
1539732247804515,0.982009613183795,0.053040360112916574,-0.03704890516517878
1539732247820524,0.96748302433814,0.05804531929503298,-0.02789349202716096
1539732247836532,0.9578393224994279,0.05889982452124798,-0.023498893720912406
1539732247852541,0.9551537346456094,0.04693675135423803,-0.026062409399557396
1539732247868549,0.9506370641641873,0.042786297398336615,-0.027038986800945963
1539732247884557,0.9369649805447473,0.051941710536354435,-0.015197985809109582
1539732247900566,0.928786144808118,0.057068741893644415,-0.01104753185320817
1539732247916574,0.9258564126039524,0.05560387579156156,-0.011413748378728883
1539732247932582,0.9362325474937059,0.04742504005493231,-5.493247882810692E-4
1539732247948591,0.9540550850690472,0.032288090333409514,5.493247882810692E-4
1539732247964599,0.9918974593728542,0.01739528496223386,-0.010193026626993174
1539732247980608,1.0315709163042648,0.011535820553902454,-0.01629663538567172
1539732247996616,1.0539101243610283,0.010803387502861028,-0.01751735713740743
1539732248012624,1.0606240939955747,0.00982681010147246,-0.022156099794003126
1539732248028717,1.0545204852368961,0.0012817578393224949,-0.028381780727855244
1539732248044726,1.0435339894712747,-0.0042114900434881974,-0.03448538948653379
1539732248060734,1.0296177615014876,-0.007507438773174613,-0.03668268863965807
1539732248076743,1.0220492866407263,-0.008239871824216038,-0.03717097734035235
1539732248092752,1.0159456778820477,-0.01226825360494388,-0.04229800869764233
1539732248108761,1.0108186465247577,-0.010681315327687457,-0.04974441138323016
1539732248124770,1.0026398107881285,-0.010070954451819603,-0.05401693751430514
1539732248140779,0.9951934081025406,-0.010070954451819603,-0.05658045319295013
1539732248156787,0.9878690775921264,-0.015808346684977437,-0.06182955672541368
1539732248172796,0.97773708705272,-0.01373311970702673,-0.05926604104676869
1539732248188805,0.9606469825284201,-0.007873655298695326,-0.056946669718470844
1539732248204814,0.9542992294193944,-0.006530861371786045,-0.059876401922636546
1539732248220823,0.9560082398718244,4.272526131074983E-4,-0.058533607995727266
1539732248236832,0.9621118486305029,0.004455634393835339,-0.052063782711528006
1539732248252841,0.96406500343328,0.01605249103532458,-0.040344853894865196
1539732248268849,0.9663843747615779,0.029846646829938095,-0.03289845120927737
1539732248284858,0.9696803234912643,0.041565575646600905,-0.02398718242160669
1539732248300867,0.9796902418554971,0.04193179217212162,-0.024597543297474544
1539732248316876,0.9868925001907378,0.04498359655146089,-0.02288853284504455
1539732248332885,0.9866483558403907,0.046814679179064456,-0.015808346684977437
1539732248348938,0.9886015106431678,0.04608224612802303,-0.00982681010147246
1539732248364946,0.9966582742046235,0.04632639047837017,-0.0040894178683146265
1539732248380955,1.012161440451667,0.03839169909208806,-0.004333562218661768
1539732248396964,1.023270008392462,0.02801556420233453,-0.0021362630655374915
1539732248412973,1.0204623483634698,0.025818265049210254,0.0017700465400167786
1539732248428982,1.0116731517509727,0.02679484245059882,0.004821850919356052
1539732248444991,1.0237582970931562,0.018493934538795997,-0.004699778744182481
1539732248461000,1.0407263294422826,0.011657892729076025,-0.007019150072480329
1539732248477008,1.0442664225223162,0.004455634393835339,-0.013244831006332447
1539732248493017,1.036331731136034,0.0037232013427939137,-0.011291676203555312
1539732248509026,1.0251010910200655,0.01226825360494388,-0.010193026626993174
1539732248525035,1.018997482261387,0.017883573662928143,-0.014343480582894585
1539732248541044,1.0050812542916,0.01629663538567172,-0.02032501716639956
1539732248557053,0.9899443045700771,0.012024109254596738,-0.02264438849469741
1539732248573062,0.9792019531548029,0.008972304875257464,-0.027283131151293105
1539732248589070,0.9766384374761579,0.011169604028381741,-0.028381780727855244
1539732248605079,0.9699244678416115,0.02264438849469741,-0.025940337224383825
1539732248621088,0.9656519417105365,0.028503852903028815,-0.02679484245059882
1539732248637097,0.9706569008926529,0.021667811093308842,-0.03717097734035235
1539732248653106,0.97602807660029,0.016540779736018862,-0.03680476081483164
1539732248669220,0.9718776226443886,0.01861600671396957,-0.03045700770580595
1539732248685229,0.9689478904402229,0.023743038071259548,-0.027405203326466676
1539732248701238,0.9724879835202564,0.0252079041733424,-0.029968719005111666
1539732248717248,0.9789578088044557,0.019592584115358136,-0.036316472114137355
1539732248733257,0.9822537575341421,0.01239032578011745,-0.03289845120927737
1539732248749266,0.9793240253299764,0.010437170977340315,-0.028870069428549527
1539732248765276,0.9807888914320593,0.011779964904249596,-0.03179980163271523
1539732248781285,0.9805447470817121,0.009460593575951748,-0.030823224231326662
1539732248797294,0.9782253757534143,-1.831082627603564E-4,-0.03607232776379021
1539732248813304,0.9773708705271993,-0.009582665751125319,-0.039124132143129486
1539732248829313,0.9752956435492486,-0.012024109254596738,-0.04058899824521234
1539732248845322,0.9767605096513314,-0.011535820553902454,-0.03448538948653379
1539732248861332,0.9813992523079271,-0.01104753185320817,-0.03729304951552592
1539732248877341,0.9866483558403907,-0.010559243152513886,-0.04095521477073305
1539732248893350,0.9884794384679942,-0.011779964904249596,-0.042908369573510186
1539732248909360,0.990554665445945,-0.0109254596780346,-0.04596017395284946
1539732248925369,0.9879911497673,-0.008239871824216038,-0.04583810177767589
1539732248941378,0.9875028610666057,-0.007629510948348184,-0.046570534828717314
1539732248957388,0.9876249332417792,4.272526131074983E-4,-0.04522774090180803
1539732248973397,0.9866483558403907,0.004699778744182481,-0.04473945220111375
1539732248989471,0.9829861905851836,0.013000686655985305,-0.04473945220111375
1539732249005481,0.9813992523079271,0.013366903181506018,-0.045349813076981604
1539732249021491,0.9829861905851836,0.011291676203555312,-0.044129091325245895
1539732249037500,0.9783474479285879,0.017151140611886717,-0.03839169909208806
1539732249053510,0.9824979018844893,0.014709697108415298,-0.04254215304798947
1539732249069520,0.9859159227893493,0.009582665751125319,-0.04608224612802303
1539732249085530,0.9872587167162585,0.004821850919356052,-0.04254215304798947
1539732249101540,0.9904325932707714,-0.00323491264209963,-0.03790341039139378
1539732249117550,0.9920195315480278,-0.00323491264209963,-0.037537193865873064
1539732249133559,0.9892118715190357,-0.0023804074158846333,-0.03533989471274879
1539732249149569,0.9890897993438621,-0.0036011291676203427,-0.03704890516517878
1539732249165579,0.9940947585259785,-0.004333562218661768,-0.036194399938963784
1539732249181589,0.9951934081025406,-0.004821850919356052,-0.036194399938963784
1539732249197599,0.9915312428473335,-0.0036011291676203427,-0.03204394598306237
1539732249213608,0.9875028610666057,-0.0021362630655374915,-0.030823224231326662
1539732249229618,0.9877470054169528,-0.0036011291676203427,-0.03216601815823594
1539732249245628,0.9889677271686885,-0.006530861371786045,-0.03472953383688093
1539732249261638,0.9947051194018464,-0.015442130159456724,-0.03802548256656735
1539732249277648,0.9962920576791028,-0.01898222323949028,-0.029602502479590953
1539732249293657,0.9969024185549706,-0.019592584115358136,-0.028870069428549527
1539732249309723,0.9938506141756314,-0.016784924086366004,-0.03033493553063238
1539732249325732,0.9928740367742428,-0.015564202334630295,-0.033752956435492365
1539732249341742,0.9925078202487221,-0.01641870756084529,-0.03350881208514522
1539732249357752,0.9860379949645228,-0.014465552758068156,-0.03289845120927737
1539732249373762,0.990554665445945,-0.01495384145876244,-0.03582818341344307
1539732249389772,0.98970016021973,-0.011779964904249596,-0.0319218738078888
1539732249405781,0.9886015106431678,-0.010070954451819603,-0.03204394598306237
1539732249421791,0.9934843976501107,-0.013122758831158876,-0.030945296406500233
1539732249437801,0.9987335011825742,-0.01641870756084529,-0.03424124513618665
1539732249453811,0.9939726863508049,-0.011291676203555312,-0.03314259555962451
1539732249469821,0.9881132219424735,-0.004821850919356052,-0.027527275501640247
1539732249485830,0.9864042114900435,-0.002868696116578917,-0.026306553749904538
1539732249501840,0.9895780880445564,-0.006652933546959616,-0.031189440756847375
1539732249517850,0.9936064698252842,-0.011169604028381741,-0.028870069428549527
1539732249533860,0.9978789959563592,-0.012634470130464592,-0.028503852903028815
1539732249549870,1.0011749446860456,-0.012634470130464592,-0.025574120698863112
1539732249565879,1.002517738612955,-0.012024109254596738,-0.02398718242160669
1539732249581889,1.000198367284657,-0.011779964904249596,-0.03045700770580595
1539732249597899,0.9971465629053178,-0.017883573662928143,-0.03167772945754166
1539732249613909,0.9964141298542764,-0.021179522392614558,-0.0319218738078888
1539732249629974,1.0043488212405585,-0.02276646066987098,-0.028625925078202386
1539732249645984,1.0103303578240634,-0.01873807888914314,-0.02386511024643312
1539732249661994,1.007034409094377,-0.01104753185320817,-0.028381780727855244
1539732249678003,1.0032501716639963,-0.011535820553902454,-0.03143358510719452
1539732249694013,0.9959258411535821,-0.005310139620050336,-0.024597543297474544
1539732249710023,0.9875028610666057,-0.005920500495918191,-0.017761501487754572
1539732249726033,0.9922636758983749,-0.00579842832074462,-0.024597543297474544
1539732249742043,0.9915312428473335,-0.005676356145571049,-0.027038986800945963
1539732249758052,0.9843289845120928,-0.0061646448462653325,-0.028381780727855244
1539732249774062,0.97602807660029,-0.012756542305638163,-0.03448538948653379
1539732249790072,0.9754177157244222,-0.019470511940184565,-0.032410162508583085
1539732249806082,0.97773708705272,-0.024963759822995257,-0.03704890516517878
1539732249822092,0.9778591592278936,-0.024963759822995257,-0.03216601815823594
1539732249838101,0.9757839322499429,-0.02655069810025168,-0.029724574654764524
1539732249854111,0.9788357366292821,-0.0319218738078888,-0.036194399938963784
1539732249870121,0.98115510795758,-0.03582818341344307,-0.03802548256656735
1539732249886131,0.9805447470817121,-0.03704890516517878,-0.03302052338445094
1539732249902141,0.9815213244831007,-0.032532234683756656,-0.03314259555962451
1539732249918151,0.9771267261768521,-0.02386511024643312,-0.027161058976119534
1539732249934160,0.9706569008926529,-0.01641870756084529,-0.025574120698863112
1539732249950225,0.973464560921645,-0.01104753185320817,-0.020691233691920274
1539732249966236,0.9793240253299764,-0.011535820553902454,-0.020691233691920274
1539732249982246,0.9857938506141757,-0.012512397955291021,-0.023132677195391693
1539732249998256,0.9920195315480278,-0.007873655298695326,-0.024353398947127403
1539732250014267,0.9901884489204242,-0.005188067444876765,-0.02130159456778813
1539732250030277,0.9884794384679942,-0.005432211795223907,-0.016662851911192433
1539732250046287,0.9899443045700771,-0.00970473792629889,-0.01886015106431671
1539732250062297,0.9872587167162585,-0.012878614480811734,-0.020447089341573133
1539732250078308,0.988845654993515,-0.018249790188448856,-0.025940337224383825
1539732250094318,0.9989776455329213,-0.027649347676813818,-0.026916914625772392
1539732250110328,1.0028839551384756,-0.03179980163271523,-0.03033493553063238
1539732250126339,1.0063019760433356,-0.031311512932020946,-0.03558403906309593
1539732250142349,1.0037384603646906,-0.026306553749904538,-0.03070115205615309
1539732250158359,0.9989776455329213,-0.02154573891813527,-0.03143358510719452
1539732250174369,0.9959258411535821,-0.021057450217440987,-0.04119935912108019
1539732250190380,0.9936064698252842,-0.0214236667429617,-0.044251163500419466
1539732250206390,0.9855497062638285,-0.015564202334630295,-0.03790341039139378
1539732250222400,0.97944609750515,-0.005554283970397478,-0.035217822537575216
1539732250238411,0.9809109636072328,-7.934691386282111E-4,-0.03045700770580595
1539732250254421,0.9821316853589686,0.0020141908903639205,-0.031189440756847375
1539732250270446,1.0021515220874342,-0.009582665751125319,-0.039002059967955915
1539732250286457,1.0196078431372548,-0.018249790188448856,-0.03839169909208806
1539732250302467,1.0254673075455862,-0.015075913633936011,-0.03070115205615309
1539732250318477,1.012161440451667,-0.0036011291676203427,-0.02398718242160669
1539732250334488,1.0015411612115663,-0.0023804074158846333,-0.03350881208514522
1539732250350498,1.0088654917219806,-0.017761501487754572,-0.04583810177767589
1539732250366508,1.0052033264667735,-0.027649347676813818,-0.03826962691691449
1539732250382518,0.9895780880445564,-0.02789349202716096,-0.029968719005111666
1539732250398529,0.9821316853589686,-0.030823224231326662,-0.03814755474174092
1539732250414539,0.9805447470817121,-0.030090791180285237,-0.04449530785076661
1539732250430549,0.9778591592278936,-0.03936827649347663,-0.04742504005493231
1539732250446560,0.9789578088044557,-0.05035477225909801,-0.049256122682535874
1539732250462570,0.9759060044251164,-0.04583810177767589,-0.04644846265354374
1539732250478580,0.96748302433814,-0.035217822537575216,-0.038879987792782345
1539732250494590,0.9601586938277258,-0.029724574654764524,-0.04644846265354374
1539732250510601,0.9650415808346686,-0.04071107042038591,-0.0575570305943387
1539732250526611,0.9656519417105365,-0.04754711223010588,-0.06073090714885154
1539732250542621,0.9538109407187001,-0.04864576180666802,-0.05108720531013944
1539732250558632,0.9541771572442208,-0.0499885557335773,-0.04522774090180803
1539732250574642,0.9591821164263372,-0.04522774090180803,-0.04498359655146089
1539732250590667,0.9716334782940415,-0.04229800869764233,-0.04888990615701516
1539732250606678,0.9795681696803236,-0.04107728694590662,-0.047913328755626594
1539732250622688,0.9850614175631343,-0.029846646829938095,-0.039124132143129486
1539732250638698,0.9840848401617457,-0.017639429312581,-0.02655069810025168
1539732250654708,0.9926298924238957,-0.011169604028381741,-0.02252231631952384
1539732250670719,1.007034409094377,-0.005188067444876765,-0.022278171969176697
1539732250686729,1.0153353170061798,-0.005188067444876765,-0.02777141985198739
1539732250702739,1.0187533379110398,-5.493247882810692E-4,-0.026306553749904538
1539732250718750,1.0152132448310063,0.003112840466926059,-0.021057450217440987
1539732250734760,1.0117952239261463,0.0061646448462653325,-0.011779964904249596
1539732250750770,1.0088654917219806,0.005310139620050336,-0.009216449225604606
1539732250766780,1.0124055848020141,0.002990768291752488,-0.015197985809109582
1539732250782791,1.0083772030212863,3.0518043793392735E-4,-0.022034027618829555
1539732250798801,1.0052033264667735,-0.0026245517662317752,-0.027527275501640247
1539732250814811,1.0034943160143435,-0.004333562218661768,-0.02532997634851597
1539732250830822,1.0047150377660792,-0.007263294422827471,-0.019714656290531707
1539732250846832,1.0012970168612192,-0.005310139620050336,-0.02264438849469741
1539732250862842,1.0011749446860456,-0.00457770656900891,-0.03045700770580595
1539732250878852,0.9942168307011521,-0.006408789196612474,-0.035095750362401645
1539732250894863,0.9796902418554971,0.001037613488975353,-0.028137636377508102
1539732250910919,0.9641870756084536,0.0039673456931410556,-0.02679484245059882
1539732250926930,0.9680933852140079,-0.010315098802166744,-0.040100709544518054
1539732250942940,0.9792019531548029,-0.028747997253375956,-0.053406576638437286
1539732250958951,0.9873807888914321,-0.049256122682535874,-0.06121919584954583
1539732250974962,0.9916533150225071,-0.05816739147020655,-0.06622415503166268
1539732250990973,0.9927519645990692,-0.05914396887159512,-0.06549172198062125
1539732251006983,0.9898222323949035,-0.06475928892957983,-0.07196154726482051
1539732251022994,0.9806668192568857,-0.07293812466620908,-0.07928587777523477
1539732251039005,0.9754177157244222,-0.07940794995040834,-0.07977416647592905
1539732251055016,0.9750514991989014,-0.07977416647592905,-0.08075074387731762
1539732251071026,0.9739528496223393,-0.06414892805371197,-0.07635614557106907
1539732251087037,0.970901045243,-0.04766918440527945,-0.06878767071030767
1539732251103048,0.9688258182650493,-0.030945296406500233,-0.06427100022888554
1539732251119059,0.9699244678416115,-0.0214236667429617,-0.05365072098878443
1539732251135069,0.9767605096513314,-0.017639429312581,-0.04632639047837017
1539732251151080,0.9856717784390021,-0.011535820553902454,-0.04205386434729519
1539732251167091,0.9936064698252842,-0.005310139620050336,-0.042908369573510186
1539732251183102,1.00166323338674,-0.007995727473868897,-0.04840161745632088
1539732251199113,1.0080109864957656,-0.008606088349736751,-0.04449530785076661
1539732251215123,1.010452429999237,-0.006652933546959616,-0.024841687647821686
1539732251231170,1.0122835126268406,-0.005554283970397478,-0.016540779736018862
1539732251247181,1.0143587396047913,-0.010437170977340315,-0.02264438849469741
1539732251263192,1.0115510795757992,-0.019592584115358136,-0.031311512932020946
1539732251279203,1.0152132448310063,-0.027649347676813818,-0.025574120698863112
1539732251295213,1.021560997940032,-0.025818265049210254,-0.025085831998168828
1539732251311224,1.0175326161593041,-0.01373311970702673,-0.019714656290531707
1539732251327235,1.0084992751964599,-0.010681315327687457,-0.02032501716639956
1539732251343246,1.0108186465247577,-0.013122758831158876,-0.023010605020218122
1539732251359256,1.0065461203936827,-0.012756542305638163,-0.023498893720912406
1539732251375267,1.0052033264667735,-0.015808346684977437,-0.03045700770580595
1539732251391278,0.9992217898832685,-0.007263294422827471,-0.033875028610665936
1539732251407289,0.9818875410086214,0.0016479743648432077,-0.033630884260318794
1539732251423299,0.9646753643091479,9.15541313801782E-4,-0.029602502479590953
1539732251439310,0.9594262607766844,-0.007751583123521755,-0.03302052338445094
1539732251455321,0.9580834668497751,-0.017639429312581,-0.04095521477073305
1539732251471332,0.96406500343328,-0.02679484245059882,-0.04486152437628732
1539732251487342,0.9771267261768521,-0.0327763790341038,-0.04986648355840373
1539732251503353,0.9848172732127871,-0.02789349202716096,-0.048035400930800165
1539732251519364,0.9816433966582743,-0.022034027618829555,-0.04437323567559304
1539732251535375,0.9832303349355307,-0.031067368581673804,-0.05426108186465228
1539732251551422,0.9879911497673,-0.036316472114137355,-0.05951018539711583
1539732251567433,0.982009613183795,-0.039002059967955915,-0.06073090714885154
1539732251583443,0.9824979018844893,-0.03558403906309593,-0.05926604104676869
1539732251599454,0.9779812314030671,-0.02410925459678026,-0.05523765926604085
1539732251615465,0.9756618600747693,-0.02264438849469741,-0.0604867627985044
1539732251631476,0.9800564583810178,-0.03070115205615309,-0.06073090714885154
1539732251647486,0.9823758297093157,-0.033752956435492365,-0.05926604104676869
1539732251663497,0.9827420462348364,-0.03448538948653379,-0.05743495841916513
1539732251679508,0.9842069123369193,-0.030945296406500233,-0.057190814068817986
1539732251695519,0.9895780880445564,-0.027649347676813818,-0.055725947966735134
1539732251711529,0.9903105210955978,-0.028137636377508102,-0.054505226214999425
1539732251727540,0.98970016021973,-0.02642862592507811,-0.05133134966048658
1539732251743551,0.985427634088655,-0.02154573891813527,-0.0470588235294116
1539732251759562,0.9883573662928207,-0.015930418860151008,-0.04461738002594018
1539732251775572,0.9890897993438621,-0.010437170977340315,-0.044251163500419466
1539732251791583,0.9899443045700771,-0.010681315327687457,-0.046692607003890885
1539732251807594,0.9910429541466392,-0.00982681010147246,-0.04205386434729519
1539732251823605,0.9906767376211185,-0.008850232700083893,-0.03729304951552592
1539732251839615,0.9922636758983749,-0.010315098802166744,-0.03692683299000521
1539732251855626,1.0020294499122606,-0.018127718013275285,-0.038757915617608774
1539732251871673,1.0064240482185092,-0.01873807888914314,-0.03839169909208806
1539732251887684,1.0076447699702449,-0.018249790188448856,-0.03680476081483164
1539732251903695,1.0083772030212863,-0.016906996261539575,-0.042908369573510186
1539732251919705,1.0077668421454185,-0.015075913633936011,-0.04339665827420447
1539732251935716,0.9969024185549706,-0.01239032578011745,-0.04205386434729519
1539732251951727,0.9949492637521935,-0.016540779736018862,-0.04217593652246876
1539732251967738,0.9986114290074006,-0.015686274509803866,-0.044251163500419466
1539732251983749,1.0004425116350042,-0.014343480582894585,-0.04888990615701516
1539732251999759,0.9925078202487221,-0.010559243152513886,-0.04644846265354374
1539732252015770,0.9787136644541086,-0.007629510948348184,-0.043030441748683756
1539732252031781,0.9831082627603571,-0.018493934538795997,-0.05035477225909801
1539732252047792,0.9882352941176471,-0.025818265049210254,-0.05218585488670158
1539732252063802,0.97773708705272,-0.023498893720912406,-0.04876783398184159
1539732252079813,0.9696803234912643,-0.022278171969176697,-0.042664225223163044
1539732252095824,0.9688258182650493,-0.02252231631952384,-0.04205386434729519
1539732252111835,0.9738307774471657,-0.028503852903028815,-0.04596017395284946
1539732252127845,0.9799343862058443,-0.03692683299000521,-0.054383154039825854
1539732252143856,0.9826199740596628,-0.04693675135423803,-0.05499351491569371
1539732252159867,0.9815213244831007,-0.04498359655146089,-0.04864576180666802
1539732252175878,0.9815213244831007,-0.04046692607003877,-0.04315251392385733
1539732252191925,0.9840848401617457,-0.03204394598306237,-0.04473945220111375
1539732252207936,0.9823758297093157,-0.027405203326466676,-0.04852368963149445
1539732252223947,0.9826199740596628,-0.027405203326466676,-0.05230792706187515
1539732252239958,0.9873807888914321,-0.025085831998168828,-0.04974441138323016
1539732252255970,0.9861600671396964,-0.015808346684977437,-0.04473945220111375
1539732252271981,0.9850614175631343,-0.005310139620050336,-0.03985656519417091
1539732252287992,0.9815213244831007,-0.001159685664148924,-0.04180971999694805
1539732252304003,0.9834744792858778,-0.004333562218661768,-0.03997863736934448
1539732252320015,0.9877470054169528,-0.011902037079423167,-0.041443503471427334
1539732252336026,0.9926298924238957,-0.01361104753185316,-0.034973678187228074
1539732252352037,0.9931181811245899,-0.01104753185320817,-0.027527275501640247
1539732252368048,0.9942168307011521,-0.013244831006332447,-0.03070115205615309
1539732252384060,0.9971465629053178,-0.017273212787060288,-0.034973678187228074
1539732252400071,1.0004425116350042,-0.01995880064087885,-0.035217822537575216
1539732252416082,0.9972686350804914,-0.024475471122300974,-0.03668268863965807
1539732252432093,0.9940947585259785,-0.02410925459678026,-0.038757915617608774
1539732252448104,0.9890897993438621,-0.021179522392614558,-0.03936827649347663
1539732252464116,0.9865262836652171,-0.02032501716639956,-0.04205386434729519
1539732252480127,0.985427634088655,-0.02008087281605242,-0.04217593652246876
1539732252496138,0.98628213931487,-0.020569161516746703,-0.04632639047837017
1539732252512176,0.9942168307011521,-0.02276646066987098,-0.04388494697489875
1539732252528187,1.0037384603646906,-0.015686274509803866,-0.04840161745632088
1539732252544199,1.004470893415732,-0.006652933546959616,-0.05365072098878443
1539732252560210,0.988845654993515,-0.002868696116578917,-0.05511558709086728
1539732252576221,0.9824979018844893,-0.007995727473868897,-0.053162432288090145
1539732252592232,0.9793240253299764,-0.015930418860151008,-0.0567025253681237
1539732252608244,0.9782253757534143,-0.016662851911192433,-0.053772793163958
1539732252624255,0.9752956435492486,-0.008728160524910322,-0.049134050507362304
1539732252640266,0.9787136644541086,-0.004455634393835339,-0.05096513313496587
1539732252656277,0.9860379949645228,-0.005065995269703194,-0.04901197833218873
1539732252672289,0.98628213931487,-0.008728160524910322,-0.04693675135423803
1539732252688300,0.9842069123369193,-0.00982681010147246,-0.03729304951552592
1539732252704311,0.9895780880445564,-0.005920500495918191,-0.034973678187228074
1539732252720322,0.9949492637521935,-7.934691386282111E-4,-0.033875028610665936
1539732252736333,1.0032501716639963,-0.0039673456931410556,-0.032288090333409514
1539732252752345,1.0102082856488899,-0.01641870756084529,-0.03289845120927737
1539732252768356,1.0122835126268406,-0.02288853284504455,-0.031067368581673804
1539732252784367,1.0160677500572213,-0.026306553749904538,-0.026184481574730967
1539732252800378,1.0219272144655527,-0.02423132677195383,-0.024597543297474544
1539732252816390,1.0149691004806591,-0.018005645838101714,-0.02911421377889667
1539732252832428,1.0084992751964599,-0.015686274509803866,-0.03436331731136022
1539732252848439,1.0021515220874342,-0.013244831006332447,-0.034973678187228074
1539732252864450,0.9975127794308385,-0.018127718013275285,-0.03924620431830306
1539732252880461,0.9932402532997635,-0.017639429312581,-0.039124132143129486
1539732252896473,0.9831082627603571,-0.015320057984283153,-0.03802548256656735
1539732252912484,0.9843289845120928,-0.0109254596780346,-0.04071107042038591
1539732252928495,0.983718623636225,-0.007263294422827471,-0.04083314259555948
1539732252944506,0.9783474479285879,-0.007751583123521755,-0.04571602960250232
1539732252960518,0.9776150148775464,-0.010559243152513886,-0.0462043183031966
1539732252976529,0.9752956435492486,-0.013000686655985305,-0.045593957427328746
1539732252992540,0.9761501487754636,-0.00970473792629889,-0.048157473105973736
1539732253008551,0.9776150148775464,-0.0039673456931410556,-0.04718089570458517
1539732253024562,0.9815213244831007,-0.005554283970397478,-0.04730296787975874
1539732253040574,0.978591592278935,-0.009338521400778177,-0.05096513313496587
1539732253056585,0.978591592278935,-0.011902037079423167,-0.05523765926604085
1539732253072596,0.9752956435492486,-0.014465552758068156,-0.054383154039825854
1539732253088607,0.9705348287174793,-0.018371862363622427,-0.05401693751430514
1539732253104619,0.9712672617685207,-0.019226367589837423,-0.05682459754329727
1539732253120630,0.9727321278706036,-0.022400244144350268,-0.05877775234607441
1539732253136641,0.9724879835202564,-0.020813305867093845,-0.05767910276951227
1539732253152679,0.9738307774471657,-0.020935378042267416,-0.054383154039825854
1539732253168690,0.9748073548485543,-0.01873807888914314,-0.05487144274052014
1539732253184702,0.9799343862058443,-0.019226367589837423,-0.05389486533913157
1539732253200713,0.9873807888914321,-0.01898222323949028,-0.05267414358739586
1539732253216724,0.9936064698252842,-0.014587624933241727,-0.049500267032883016
1539732253232735,0.9936064698252842,-0.0021362630655374915,-0.04510566872663446
1539732253248746,0.9887235828183414,0.0037232013427939137,-0.03936827649347663
1539732253264758,0.9883573662928207,0.004333562218661768,-0.037659266041046635
1539732253280769,0.9848172732127871,0.006530861371786045,-0.03424124513618665
1539732253296780,0.9827420462348364,0.010559243152513886,-0.033630884260318794
1539732253312791,0.9955596246280614,0.0040894178683146265,-0.03582818341344307
1539732253328803,1.0039826047150378,-0.0025024795910582043,-0.036438544289310926
1539732253344814,1.0028839551384756,-0.002868696116578917,-0.03033493553063238
1539732253360825,0.9987335011825742,-0.0012817578393224949,-0.029724574654764524
1539732253376836,0.9971465629053178,-0.006286717021438903,-0.03607232776379021
1539732253392848,0.9997100785839628,-0.0109254596780346,-0.04058899824521234
1539732253408859,0.9958037689784085,-0.014465552758068156,-0.04339665827420447
1539732253424870,0.9971465629053178,-0.014709697108415298,-0.044007019150072324
1539732253440881,0.9997100785839628,-0.011291676203555312,-0.044129091325245895
1539732253456893,0.9945830472266728,-0.0071412222476539,-0.04339665827420447
1539732253472931,0.9895780880445564,-0.007995727473868897,-0.042664225223163044
1539732253488942,0.9876249332417792,-0.007385366598001042,-0.04596017395284946
1539732253504953,0.9859159227893493,-0.009338521400778177,-0.049256122682535874
1539732253520964,0.9879911497673,-0.011779964904249596,-0.049134050507362304
1539732253536975,0.9894560158693828,-0.008606088349736751,-0.04364080262455161
1539732253552987,0.9886015106431678,-0.006775005722133187,-0.04315251392385733
1539732253568998,0.9872587167162585,-0.006408789196612474,-0.04486152437628732
1539732253585009,0.9893339436942092,-0.008728160524910322,-0.046570534828717314
1539732253601020,0.9868925001907378,-0.0071412222476539,-0.04364080262455161
1539732253617032,0.9809109636072328,-0.00836194399938961,-0.044251163500419466
1539732253633043,0.9804226749065386,-0.010681315327687457,-0.04461738002594018
1539732253649054,0.9789578088044557,-0.016540779736018862,-0.04510566872663446
1539732253665065,0.9823758297093157,-0.02130159456778813,-0.04473945220111375
1539732253681077,0.9816433966582743,-0.02423132677195383,-0.04364080262455161
1539732253697088,0.9826199740596628,-0.024963759822995257,-0.04522774090180803
1539732253713099,0.9856717784390021,-0.028503852903028815,-0.045349813076981604
1539732253729110,0.985427634088655,-0.029602502479590953,-0.04473945220111375
1539732253745122,0.9895780880445564,-0.02667277027542525,-0.04473945220111375
1539732253761133,0.9870145723659114,-0.02032501716639956,-0.04473945220111375
1539732253777144,0.9831082627603571,-0.013122758831158876,-0.04644846265354374
1539732253793151,0.9798123140306707,-0.008117799649042468,-0.041687647821774476
1539732253809163,0.9879911497673,-0.006408789196612474,-0.04193179217212162
1539732253825174,0.990554665445945,-7.934691386282111E-4,-0.03741512169069949
1539732253841185,0.9953154802777142,0.0021362630655374915,-0.04058899824521234
1539732253857196,1.006179903868162,0.00579842832074462,-0.03814755474174092
1539732253873208,1.0091096360723277,0.008117799649042468,-0.03595025558861664
1539732253889219,1.010452429999237,0.01361104753185316,-0.03399710078583951
1539732253905230,1.011306935225452,0.014465552758068156,-0.035217822537575216
1539732253921241,1.0157015335317006,0.014465552758068156,-0.03729304951552592
1539732253937253,1.0127718013275349,0.011902037079423167,-0.0424200808728159
1539732253953264,1.0076447699702449,0.016784924086366004,-0.04095521477073305
1539732253969275,1.001907377737087,0.015808346684977437,-0.040100709544518054
1539732253985286,1.0003204394598306,0.007995727473868897,-0.04315251392385733
1539732254001298,0.9939726863508049,-0.0021362630655374915,-0.04473945220111375
1539732254017309,0.9843289845120928,-0.00457770656900891,-0.03790341039139378
1539732254033320,0.988845654993515,-0.007263294422827471,-0.03741512169069949
1539732254049331,1.0037384603646906,-0.009094377050431035,-0.03973449301899734
1539732254065343,1.0059357595178149,-0.0109254596780346,-0.03802548256656735
1539732254081354,1.002517738612955,-0.013000686655985305,-0.0386358434424352
1539732254097365,0.9926298924238957,-0.009094377050431035,-0.03399710078583951
1539732254113403,0.9827420462348364,-0.00323491264209963,-0.032410162508583085
1539732254129415,0.9788357366292821,0.00323491264209963,-0.030823224231326662
1539732254145426,0.9755397878995957,0.0061646448462653325,-0.03045700770580595
1539732254161438,0.9693141069657436,0.004943923094529623,-0.03924620431830306
1539732254177450,0.9724879835202564,0.0015259021896696368,-0.04473945220111375
1539732254193462,0.9733424887464714,-0.0025024795910582043,-0.04119935912108019
1539732254209473,0.975173571374075,-0.007263294422827471,-0.041687647821774476
1539732254225485,0.9750514991989014,-0.010193026626993174,-0.03985656519417091
1539732254241497,0.975173571374075,-0.011902037079423167,-0.04119935912108019
1539732254257508,0.9772487983520257,-0.010681315327687457,-0.04217593652246876
1539732254273520,0.9822537575341421,-0.010803387502861028,-0.04388494697489875
1539732254289532,0.9821316853589686,-0.011169604028381741,-0.04608224612802303
1539732254305544,0.9776150148775464,-0.011657892729076025,-0.04486152437628732
1539732254321555,0.9689478904402229,-0.011779964904249596,-0.04095521477073305
1539732254337567,0.9655298695353629,-0.009582665751125319,-0.04180971999694805
1539732254353579,0.9597924773022051,-0.006652933546959616,-0.04193179217212162
1539732254369590,0.9644312199588008,-0.007019150072480329,-0.03985656519417091
1539732254385602,0.9715114061188679,-0.007629510948348184,-0.04046692607003877
1539732254401614,0.9838406958113985,-0.007019150072480329,-0.03448538948653379
1539732254417626,0.99140917067216,-0.004333562218661768,-0.03155565728236809
1539732254433654,0.9898222323949035,0.006530861371786045,-0.027038986800945963
1539732254449666,0.9903105210955978,0.016540779736018862,-0.02642862592507811
1539732254465678,0.9938506141756314,0.013244831006332447,-0.02655069810025168
1539732254481690,1.0066681925688563,0.008728160524910322,-0.03204394598306237
1539732254497701,1.010452429999237,0.007507438773174613,-0.031189440756847375
1539732254513713,1.0076447699702449,0.008850232700083893,-0.026916914625772392
1539732254529725,1.0084992751964599,0.008850232700083893,-0.024475471122300974
1539732254545736,1.0091096360723277,0.008606088349736751,-0.026062409399557396
1539732254561748,1.007034409094377,0.009094377050431035,-0.029968719005111666
1539732254577760,1.0064240482185092,0.006286717021438903,-0.029602502479590953
1539732254593772,1.000198367284657,0.006408789196612474,-0.03204394598306237
1539732254609783,0.9969024185549706,0.007751583123521755,-0.031067368581673804
1539732254625795,0.9954375524528878,0.008239871824216038,-0.029724574654764524
1539732254641807,0.9929961089494164,0.013244831006332447,-0.031311512932020946
1539732254657818,0.9960479133287556,0.013122758831158876,-0.03814755474174092
1539732254673830,0.9983672846570535,0.010559243152513886,-0.037781338216220206
1539732254689842,1.0005645838101778,0.0061646448462653325,-0.03961242084382377
1539732254705854,0.9975127794308385,0.00836194399938961,-0.03924620431830306
1539732254721865,0.9949492637521935,0.012146181429770309,-0.037659266041046635
1539732254737877,0.9953154802777142,0.01629663538567172,-0.040222781719691625
1539732254753936,0.9872587167162585,0.013000686655985305,-0.044251163500419466
1539732254769948,0.9792019531548029,0.011779964904249596,-0.04510566872663446
1539732254785960,0.9723659113450829,0.0071412222476539,-0.041443503471427334
1539732254801972,0.96748302433814,0.004943923094529623,-0.04229800869764233
1539732254817983,0.9684596017395286,-7.934691386282111E-4,-0.04437323567559304
1539732254833995,0.9680933852140079,-0.00848401617456318,-0.04205386434729519
1539732254850007,0.9693141069657436,-0.009216449225604606,-0.04095521477073305
1539732254866018,0.9756618600747693,-0.01361104753185316,-0.04083314259555948
1539732254882030,0.9815213244831007,-0.018249790188448856,-0.040222781719691625
1539732254898042,0.9767605096513314,-0.020935378042267416,-0.03729304951552592
1539732254914054,0.9772487983520257,-0.023254749370565264,-0.03704890516517878
1539732254930065,0.9801785305561914,-0.021179522392614558,-0.03143358510719452
1539732254946077,0.9834744792858778,-0.017639429312581,-0.03302052338445094
1539732254962089,0.9868925001907378,-0.016540779736018862,-0.036438544289310926
1539732254978100,0.9916533150225071,-0.014709697108415298,-0.03179980163271523
1539732254994112,0.9955596246280614,-0.010315098802166744,-0.030212863355458808
1539732255010124,0.9976348516060121,-0.0040894178683146265,-0.028625925078202386
1539732255026136,0.9983672846570535,0.004455634393835339,-0.030090791180285237
1539732255042147,0.9964141298542764,0.009338521400778177,-0.03155565728236809
1539732255058159,0.9964141298542764,0.010070954451819603,-0.03460746166170736
1539732255074188,0.9954375524528878,0.013366903181506018,-0.03326466773479808
1539732255090200,0.9949492637521935,0.013977264057373873,-0.031311512932020946
1539732255106211,0.9977569237811856,0.014587624933241727,-0.034973678187228074
1539732255122223,0.9997100785839628,0.014709697108415298,-0.03460746166170736
1539732255138235,1.0064240482185092,0.011413748378728883,-0.040100709544518054
1539732255154246,1.0171663996337834,0.005676356145571049,-0.04388494697489875
1539732255170258,1.0211947814145113,0.004821850919356052,-0.041687647821774476
1539732255186270,1.0202182040131227,0.008239871824216038,-0.03985656519417091
1539732255202282,1.0188754100862134,0.011657892729076025,-0.04193179217212162
1539732255218293,1.0185091935606927,0.012634470130464592,-0.039124132143129486
1539732255234305,1.0132600900282291,0.0061646448462653325,-0.024353398947127403
1539732255250317,0.10064850843060924,0.4069275959411005,0.18219272144655552
1539732255266328,1.3714198519874872,-0.4151064316777293,-0.2485999847409781
1539732255282340,1.20674448767834,-0.11371023117418178,-0.2171053635461968
1539732255298352,1.039749752040894,-0.0905165178912033,-0.07403677424277122
1539732255314364,1.0203402761882963,-0.001037613488975353,0.003356984817273201
1539732255330375,0.9972686350804914,0.08416876478217716,0.018127718013275285
1539732255346387,0.9746852826733807,0.06402685587853796,-0.03155565728236809
1539732255362399,0.9511253528648815,0.030090791180285237,-0.06890974288548124
1539732255378410,0.9223163195239188,-0.012146181429770309,-0.053162432288090145
1539732255394409,0.9328145265888459,0.0060425726710917615,-0.04071107042038591
1539732255410421,0.9557640955214772,0.017761501487754572,-0.028870069428549527
1539732255426432,0.9767605096513314,0.025696192874036683,-0.023254749370565264
1539732255442444,0.9923857480735485,0.02154573891813527,-0.026916914625772392
1539732255458456,0.9992217898832685,0.001037613488975353,-0.0252079041733424
1539732255474467,1.0017853055619135,-0.01629663538567172,-0.031311512932020946
1539732255490479,1.0103303578240634,-0.03167772945754166,-0.03436331731136022
1539732255506491,1.0136263065537499,-0.0470588235294116,-0.029846646829938095
1539732255522503,1.006179903868162,-0.04876783398184159,-0.02655069810025168
1539732255538514,0.9989776455329213,-0.0386358434424352,-0.029724574654764524
1539732255554526,1.0006866559853513,-0.025085831998168828,-0.035217822537575216
1539732255570538,1.00337224383917,-0.01617456321049815,-0.03448538948653379
1539732255586549,1.0069123369192035,-0.014465552758068156,-0.031311512932020946
1539732255602561,1.005325398641947,-0.005920500495918191,-0.027283131151293105
1539732255618573,0.9984893568322271,0.0025024795910582043,-0.022034027618829555
1539732255634585,0.9969024185549706,0.011535820553902454,-0.023010605020218122
1539732255650596,0.9950713359273671,0.015320057984283153,-0.032410162508583085
1539732255666608,0.9943389028763256,0.014465552758068156,-0.036438544289310926
1539732255682620,0.9895780880445564,0.009094377050431035,-0.03741512169069949
1539732255698631,0.9872587167162585,0.0036011291676203427,-0.038879987792782345
1539732255714660,0.987136644541085,0.003356984817273201,-0.04254215304798947
1539732255730672,0.9838406958113985,-0.0016479743648432077,-0.04437323567559304
1539732255746684,0.9790798809796293,-0.005188067444876765,-0.05255207141222229
1539732255762695,0.9817654688334478,-0.009948882276646032,-0.06012054627298369
1539732255778707,0.9831082627603571,-0.015686274509803866,-0.05877775234607441
1539732255794719,0.9833524071107043,-0.017761501487754572,-0.06024261844815726
1539732255810731,0.98115510795758,-0.01483176928358887,-0.05743495841916513
1539732255826742,0.978591592278935,-0.010681315327687457,-0.05816739147020655
1539732255842754,0.9767605096513314,-0.006775005722133187,-0.05780117494468584
1539732255858766,0.98115510795758,-0.006652933546959616,-0.060975051499198685
1539732255874777,0.9806668192568857,-0.0060425726710917615,-0.05767910276951227
1539732255890789,0.9781033035782407,1.831082627603564E-4,-0.05096513313496587
1539732255906801,0.9702906843671322,0.00579842832074462,-0.04388494697489875
1539732255922813,0.9621118486305029,0.008606088349736751,-0.037537193865873064
1539732255938824,0.9628442816815443,0.0061646448462653325,-0.03851377126726163
1539732255954836,0.9655298695353629,3.0518043793392735E-4,-0.03826962691691449
1539732255970848,0.9696803234912643,-0.003356984817273201,-0.03424124513618665
1539732255986859,0.980300602731365,-0.007873655298695326,-0.03143358510719452
1539732256002871,0.9882352941176471,-0.014587624933241727,-0.035217822537575216
1539732256018883,1.0005645838101778,-0.023620965896085977,-0.039002059967955915
1539732256034912,1.0119172961013199,-0.03338673990997165,-0.03997863736934448
1539732256050923,1.017288471808957,-0.03460746166170736,-0.040344853894865196
1539732256066935,1.0222934309910734,-0.027405203326466676,-0.0386358434424352
1539732256082947,1.0191195544365605,-0.014587624933241727,-0.034973678187228074
1539732256098959,1.0069123369192035,-0.0040894178683146265,-0.0365606164644845
1539732256114970,0.9945830472266728,0.0012817578393224949,-0.03460746166170736
1539732256130982,0.9853055619134814,-1.831082627603564E-4,-0.032410162508583085
1539732256146994,0.9710231174181736,0.012512397955291021,-0.023254749370565264
1539732256163005,0.9623559929808501,0.019592584115358136,-0.022156099794003126
1539732256179017,0.9788357366292821,0.009338521400778177,-0.038879987792782345
1539732256195029,0.9969024185549706,-0.005676356145571049,-0.05023270008392444
1539732256211041,0.9977569237811856,-0.010681315327687457,-0.0394903486686502
1539732256227052,0.9945830472266728,-0.01483176928358887,-0.03045700770580595
1539732256243064,0.9926298924238957,-0.010315098802166744,-0.024841687647821686
1539732256259076,0.9849393453879607,-0.00579842832074462,-0.028381780727855244
1539732256275087,0.9932402532997635,-0.00848401617456318,-0.041443503471427334
1539732256291099,1.0055695429922942,-0.008606088349736751,-0.05352864881361086
1539732256307111,0.9944609750514992,-0.0071412222476539,-0.049134050507362304
1539732256323123,0.9750514991989014,-0.00836194399938961,-0.03289845120927737
1539732256339134,0.9694361791409172,-0.0109254596780346,-0.026306553749904538
1539732256355194,0.9728542000457772,-0.014587624933241727,-0.03302052338445094
1539732256371206,0.9807888914320593,-0.017151140611886717,-0.04180971999694805
1539732256387218,0.9879911497673,-0.022278171969176697,-0.04254215304798947
1539732256403230,0.9907988097962921,-0.023376821545738835,-0.03704890516517878
1539732256419242,0.9886015106431678,-0.025818265049210254,-0.03155565728236809
1539732256435255,0.9937285420004578,-0.02386511024643312,-0.03399710078583951
1539732256451267,0.9987335011825742,-0.021911955443655984,-0.039002059967955915
1539732256467279,1.0005645838101778,-0.013366903181506018,-0.04339665827420447
1539732256483291,0.9982452124818799,-0.006408789196612474,-0.039002059967955915
1539732256499303,0.9931181811245899,-0.005554283970397478,-0.03607232776379021
1539732256515316,0.9893339436942092,-0.002990768291752488,-0.036316472114137355
1539732256531328,0.9898222323949035,-0.004455634393835339,-0.03790341039139378
1539732256547340,0.9943389028763256,-0.0020141908903639205,-0.0432745860990309
1539732256563352,0.9933623254749371,0.0025024795910582043,-0.0394903486686502
1539732256579364,0.9886015106431678,0.0026245517662317752,-0.036316472114137355
1539732256595377,0.9881132219424735,-0.0020141908903639205,-0.03851377126726163
1539732256611389,0.9916533150225071,-0.007873655298695326,-0.04229800869764233
1539732256627401,0.9947051194018464,-0.009216449225604606,-0.042786297398336615
1539732256643413,0.9945830472266728,-0.010070954451819603,-0.040344853894865196
1539732256659425,0.9969024185549706,-0.006897077897306758,-0.04095521477073305
1539732256675415,0.9947051194018464,-0.0021362630655374915,-0.037781338216220206
1539732256691427,0.9931181811245899,-0.001159685664148924,-0.040222781719691625
1539732256707439,0.9978789959563592,-0.004699778744182481,-0.04461738002594018
1539732256723451,1.0003204394598306,-0.005188067444876765,-0.04229800869764233
1539732256739463,0.9955596246280614,-1.831082627603564E-4,-0.03302052338445094
1539732256755476,0.9875028610666057,0.0025024795910582043,-0.031311512932020946
1539732256771488,0.9894560158693828,-0.0020141908903639205,-0.037781338216220206
1539732256787500,0.9962920576791028,-0.008239871824216038,-0.03448538948653379
1539732256803512,0.9975127794308385,-0.010559243152513886,-0.03057907988097952
1539732256819524,0.9929961089494164,-0.009460593575951748,-0.03558403906309593
1539732256835537,0.9881132219424735,-0.010437170977340315,-0.036316472114137355
1539732256851549,0.9853055619134814,-0.015197985809109582,-0.0365606164644845
1539732256867561,0.9850614175631343,-0.016662851911192433,-0.032288090333409514
1539732256883573,0.9839627679865721,-0.015686274509803866,-0.034973678187228074
1539732256899585,0.9827420462348364,-0.01483176928358887,-0.03704890516517878
1539732256915598,0.97944609750515,-0.012512397955291021,-0.034851606012054503
1539732256931610,0.9779812314030671,-0.01361104753185316,-0.032288090333409514
1539732256947622,0.97944609750515,-0.018371862363622427,-0.036438544289310926
1539732256963634,0.9818875410086214,-0.020935378042267416,-0.03680476081483164
1539732256979646,0.9834744792858778,-0.020447089341573133,-0.03326466773479808
1539732256995666,0.9870145723659114,-0.019104295414663852,-0.0327763790341038
1539732257011678,0.9900663767452507,-0.017883573662928143,-0.034851606012054503
1539732257027691,0.9899443045700771,-0.015930418860151008,-0.03814755474174092
1539732257043703,0.9904325932707714,-0.01617456321049815,-0.04071107042038591
1539732257059715,0.9910429541466392,-0.015442130159456724,-0.04388494697489875
1539732257075727,0.9922636758983749,-0.012146181429770309,-0.04180971999694805
1539732257091739,0.9899443045700771,-0.006652933546959616,-0.040344853894865196
1539732257107751,0.9901884489204242,-5.493247882810692E-4,-0.040222781719691625
1539732257123764,0.9911650263218128,5.493247882810692E-4,-0.04315251392385733
1539732257139776,0.9909208819714657,-0.003356984817273201,-0.04522774090180803
1539732257155788,0.9907988097962921,-0.003479056992446772,-0.04339665827420447
1539732257171800,0.9882352941176471,-6.103608758678547E-5,-0.0424200808728159
1539732257187812,0.9861600671396964,7.934691386282111E-4,-0.04376287479972518
1539732257203825,0.9860379949645228,-6.713969634546402E-4,-0.04315251392385733
1539732257219837,0.98457312886244,-0.007263294422827471,-0.0432745860990309
1539732257235849,0.98286411841001,-0.010437170977340315,-0.04596017395284946
1539732257251861,0.9850614175631343,-0.013000686655985305,-0.04608224612802303
1539732257267873,0.9832303349355307,-0.01483176928358887,-0.039124132143129486
1539732257283886,0.9860379949645228,-0.01104753185320817,-0.04205386434729519
1539732257299898,0.9834744792858778,-0.005920500495918191,-0.045349813076981604
1539732257315887,0.9810330357824064,-0.011169604028381741,-0.04693675135423803
1539732257331899,0.9800564583810178,-0.012146181429770309,-0.0424200808728159
1539732257347911,0.9864042114900435,-0.01641870756084529,-0.042786297398336615
1539732257363924,0.9918974593728542,-0.011535820553902454,-0.03668268863965807
1539732257379936,0.9953154802777142,-0.00836194399938961,-0.04205386434729519
1539732257395948,0.9987335011825742,-0.011413748378728883,-0.04693675135423803
1539732257411960,1.001052872510872,-0.008606088349736751,-0.04083314259555948
1539732257427972,0.9978789959563592,-0.008972304875257464,-0.03668268863965807
1539732257443985,0.9955596246280614,-0.0037232013427939137,-0.03692683299000521
1539732257459997,0.9943389028763256,-6.713969634546402E-4,-0.041565575646600905
1539732257476009,0.9932402532997635,-4.272526131074983E-4,-0.03814755474174092
1539732257492021,0.9904325932707714,-0.0012817578393224949,-0.03936827649347663
1539732257508033,0.9907988097962921,-0.003356984817273201,-0.0386358434424352
1539732257524046,0.9903105210955978,-0.005188067444876765,-0.03741512169069949
1539732257540058,0.9864042114900435,-0.00836194399938961,-0.035217822537575216
1539732257556070,0.9848172732127871,-0.00982681010147246,-0.03582818341344307
1539732257572082,0.9899443045700771,-0.013488975356679589,-0.03741512169069949
1539732257588094,0.9921416037232014,-0.015442130159456724,-0.03350881208514522
1539732257604107,0.9951934081025406,-0.018371862363622427,-0.03533989471274879
1539732257620119,0.9954375524528878,-0.02130159456778813,-0.0365606164644845
1539732257636139,0.9973907072556649,-0.0214236667429617,-0.035095750362401645
1539732257652151,0.9945830472266728,-0.014587624933241727,-0.03314259555962451
1539732257668163,0.9940947585259785,-0.012878614480811734,-0.038879987792782345
1539732257684175,0.9927519645990692,-0.015075913633936011,-0.03973449301899734
1539732257700187,0.9951934081025406,-0.017151140611886717,-0.03997863736934448
1539732257716199,0.9953154802777142,-0.01373311970702673,-0.0432745860990309
1539732257732212,0.9931181811245899,-0.012024109254596738,-0.037537193865873064
1539732257748224,0.9912870984969864,-0.006775005722133187,-0.040100709544518054
1539732257764236,0.9872587167162585,-0.005920500495918191,-0.04596017395284946
1539732257780248,0.9859159227893493,-0.008728160524910322,-0.04522774090180803
1539732257796260,0.9842069123369193,-0.00982681010147246,-0.04388494697489875
1539732257812273,0.9853055619134814,-0.008606088349736751,-0.0432745860990309
1539732257828285,0.9832303349355307,-0.0040894178683146265,-0.042786297398336615
1539732257844297,0.9810330357824064,-3.0518043793392735E-4,-0.04119935912108019
1539732257860309,0.9823758297093157,-0.004821850919356052,-0.04229800869764233
1539732257876321,0.987136644541085,-0.00970473792629889,-0.03997863736934448
1539732257892334,0.98970016021973,-0.010681315327687457,-0.038879987792782345
1539732257908346,0.9894560158693828,-0.00970473792629889,-0.0357061112382695
1539732257924358,0.9882352941176471,-0.008850232700083893,-0.03582818341344307
1539732257940370,0.9893339436942092,-0.013977264057373873,-0.03448538948653379
1539732257956390,0.9903105210955978,-0.01739528496223386,-0.036194399938963784
1539732257972402,0.9846952010376135,-0.021057450217440987,-0.03533989471274879
1539732257988414,0.9801785305561914,-0.021057450217440987,-0.030823224231326662
1539732258004427,0.9844510566872664,-0.019592584115358136,-0.03070115205615309
1539732258020439,0.9929961089494164,-0.015442130159456724,-0.029968719005111666
1539732258036451,0.9932402532997635,-0.011291676203555312,-0.032410162508583085
1539732258052463,0.9980010681315328,-0.011413748378728883,-0.0386358434424352
1539732258068475,0.9943389028763256,-0.008117799649042468,-0.03533989471274879
1539732258084488,0.9881132219424735,-0.002868696116578917,-0.03155565728236809
1539732258100500,0.9881132219424735,-0.0012817578393224949,-0.03350881208514522
1539732258116512,0.9873807888914321,1.831082627603564E-4,-0.03790341039139378
1539732258132524,0.9846952010376135,-4.272526131074983E-4,-0.040222781719691625
1539732258148536,0.9887235828183414,-0.0039673456931410556,-0.042664225223163044
1539732258164548,0.9893339436942092,-0.004943923094529623,-0.042786297398336615
1539732258180561,0.9865262836652171,-0.007995727473868897,-0.046570534828717314
1539732258196573,0.985427634088655,-0.015442130159456724,-0.04193179217212162
1539732258212585,0.9849393453879607,-0.016906996261539575,-0.041687647821774476
1539732258228597,0.9855497062638285,-0.015564202334630295,-0.03607232776379021
1539732258244609,0.9826199740596628,-0.016784924086366004,-0.038757915617608774
1539732258260622,0.9870145723659114,-0.023498893720912406,-0.04730296787975874
1539732258276641,0.9938506141756314,-0.03436331731136022,-0.048157473105973736
1539732258292654,0.9916533150225071,-0.03546196688792236,-0.03936827649347663
1539732258308666,0.9860379949645228,-0.03143358510719452,-0.035217822537575216
1539732258324678,0.98286411841001,-0.02655069810025168,-0.03704890516517878
1539732258340690,0.976882581826505,-0.02386511024643312,-0.03851377126726163
1539732258356702,0.9744411383230336,-0.023010605020218122,-0.03985656519417091
1539732258372715,0.9784695201037614,-0.019226367589837423,-0.0357061112382695
1539732258388727,0.9842069123369193,-0.011169604028381741,-0.03033493553063238
1539732258404739,0.9882352941176471,-0.005676356145571049,-0.026916914625772392
1539732258420751,0.990554665445945,-0.0022583352407110624,-0.03216601815823594
1539732258436763,0.9984893568322271,-0.0021362630655374915,-0.032288090333409514
1539732258452776,1.001052872510872,-0.0016479743648432077,-0.028381780727855244
1539732258468788,1.0048371099412527,-0.0037232013427939137,-0.027527275501640247
1539732258484800,1.0080109864957656,-0.005310139620050336,-0.03424124513618665
1539732258500812,1.0086213473716334,-0.004333562218661768,-0.039002059967955915
1539732258516824,1.000808728160525,-0.002746623941405346,-0.036438544289310926
1539732258532837,0.9990997177080949,-0.0036011291676203427,-0.03558403906309593
1539732258548849,1.0031280994888228,-0.0109254596780346,-0.03985656519417091
1539732258564861,0.9990997177080949,-0.010070954451819603,-0.040100709544518054
1539732258580873,0.9892118715190357,-0.008972304875257464,-0.04315251392385733
1539732258596893,0.9884794384679942,-0.008239871824216038,-0.04046692607003877
1539732258612905,0.9892118715190357,-0.00970473792629889,-0.0394903486686502
1539732258628917,0.9859159227893493,-0.00970473792629889,-0.0365606164644845
1539732258644930,0.9873807888914321,-0.01483176928358887,-0.04180971999694805
1539732258660942,0.9872587167162585,-0.019104295414663852,-0.0462043183031966
1539732258676954,0.9815213244831007,-0.020691233691920274,-0.0394903486686502
1539732258692966,0.9795681696803236,-0.023498893720912406,-0.037659266041046635
1539732258708978,0.97773708705272,-0.024841687647821686,-0.036438544289310926
1539732258724990,0.9805447470817121,-0.02801556420233453,-0.04339665827420447
1539732258741003,0.987136644541085,-0.03143358510719452,-0.04693675135423803
1539732258757015,0.9944609750514992,-0.03411917296101308,-0.047913328755626594
1539732258773027,0.9964141298542764,-0.02935835812924381,-0.04608224612802303
1539732258789039,0.9971465629053178,-0.026062409399557396,-0.04608224612802303
1539732258805051,1.00337224383917,-0.02545204852368954,-0.0462043183031966
1539732258821064,1.0028839551384756,-0.011657892729076025,-0.0432745860990309
1539732258837076,0.9910429541466392,0.009582665751125319,-0.03338673990997165
1539732258853088,0.97773708705272,0.023010605020218122,-0.03204394598306237
1539732258869100,0.9781033035782407,0.019104295414663852,-0.03582818341344307
1539732258885112,0.9783474479285879,0.009094377050431035,-0.03326466773479808
1539732258901125,0.9795681696803236,9.15541313801782E-4,-0.02655069810025168
1539732258917144,0.98115510795758,-0.0022583352407110624,-0.026306553749904538
1539732258933157,0.98286411841001,-0.007873655298695326,-0.027038986800945963
1539732258949169,0.985427634088655,-0.019714656290531707,-0.034851606012054503
1539732258965181,0.9881132219424735,-0.03814755474174092,-0.04046692607003877
1539732258981193,0.9939726863508049,-0.04827954528114731,-0.0424200808728159
1539732258997205,0.9962920576791028,-0.04864576180666802,-0.04388494697489875
1539732259013218,0.9967803463797971,-0.03607232776379021,-0.045471885252155175
1539732259029230,0.9911650263218128,-0.025818265049210254,-0.04693675135423803
1539732259045242,0.9890897993438621,-0.024719615472648115,-0.05401693751430514
1539732259061254,0.9942168307011521,-0.027405203326466676,-0.05914396887159512
1539732259077266,0.9934843976501107,-0.015808346684977437,-0.051819638361180864
1539732259093279,0.9894560158693828,-0.002746623941405346,-0.045349813076981604
1539732259109291,0.9844510566872664,0.01361104753185316,-0.04388494697489875
1539732259125303,0.9795681696803236,0.019836728465705278,-0.04571602960250232
1539732259141315,0.9782253757534143,0.01641870756084529,-0.04376287479972518
1539732259157327,0.9724879835202564,0.011779964904249596,-0.04058899824521234
1539732259173339,0.973464560921645,0.005310139620050336,-0.040100709544518054
1539732259189352,0.98115510795758,-0.0023804074158846333,-0.036438544289310926
1539732259205364,0.9898222323949035,-0.006652933546959616,-0.03680476081483164
1539732259221376,0.9951934081025406,-0.016784924086366004,-0.04180971999694805
1539732259237396,1.0000762951094835,-0.027405203326466676,-0.04718089570458517
1539732259253408,1.004470893415732,-0.032288090333409514,-0.04388494697489875
1539732259269420,1.0038605325398642,-0.031189440756847375,-0.03924620431830306
1539732259285432,0.9989776455329213,-0.019714656290531707,-0.03961242084382377
1539732259301445,0.9971465629053178,-0.010803387502861028,-0.044007019150072324
1539732259317457,0.9953154802777142,-0.006286717021438903,-0.042908369573510186
1539732259333469,0.9947051194018464,-0.005554283970397478,-0.04351873044937804
1539732259349481,0.9940947585259785,-0.0038452735179674846,-0.04596017395284946
1539732259365493,0.990554665445945,-0.0012817578393224949,-0.03961242084382377
1539732259381506,0.9903105210955978,0.0012817578393224949,-0.04193179217212162
1539732259397518,0.988845654993515,0.001037613488975353,-0.04730296787975874
1539732259413530,0.9876249332417792,-0.0042114900434881974,-0.046814679179064456
1539732259429542,0.9821316853589686,-0.007995727473868897,-0.04339665827420447
1539732259445554,0.9832303349355307,-0.013366903181506018,-0.04644846265354374
1539732259461567,0.98628213931487,-0.017883573662928143,-0.04876783398184159
1539732259477579,0.9850614175631343,-0.019104295414663852,-0.04852368963149445
1539732259493591,0.9810330357824064,-0.01861600671396957,-0.0470588235294116
1539732259509603,0.9789578088044557,-0.017029068436713146,-0.0462043183031966
1539732259525615,0.9792019531548029,-0.02264438849469741,-0.05023270008392444
1539732259541628,0.9849393453879607,-0.02935835812924381,-0.05218585488670158
1539732259557647,0.9873807888914321,-0.02789349202716096,-0.053162432288090145
1539732259573660,0.9864042114900435,-0.018493934538795997,-0.049378194857709445
1539732259589672,0.98457312886244,-0.014343480582894585,-0.04827954528114731
1539732259605684,0.9903105210955978,-0.016540779736018862,-0.05218585488670158
1539732259621696,0.9900663767452507,-0.016906996261539575,-0.050598916609445155
1539732259637708,0.9855497062638285,-0.010315098802166744,-0.045593957427328746
1539732259653720,0.9822537575341421,-0.0016479743648432077,-0.04437323567559304
1539732259669733,0.9839627679865721,-7.934691386282111E-4,-0.04522774090180803
1539732259685745,0.9879911497673,-0.005065995269703194,-0.043030441748683756
1539732259701757,0.9843289845120928,-0.009948882276646032,-0.04132143129625376
1539732259717769,0.98628213931487,-0.008972304875257464,-0.04376287479972518
1539732259733781,0.9926298924238957,-0.011902037079423167,-0.04473945220111375
1539732259749794,0.9955596246280614,-0.017883573662928143,-0.04888990615701516
1539732259765806,0.9951934081025406,-0.022034027618829555,-0.04596017395284946
1539732259781818,0.9933623254749371,-0.0214236667429617,-0.046570534828717314
1539732259797830,0.9943389028763256,-0.01739528496223386,-0.04339665827420447
1539732259813842,0.9927519645990692,-0.009094377050431035,-0.045349813076981604
1539732259829855,0.9962920576791028,-0.010070954451819603,-0.0508430609597923
1539732259845867,0.9966582742046235,-0.006408789196612474,-0.050720988784618726
1539732259861879,0.9955596246280614,-4.272526131074983E-4,-0.04461738002594018
1539732259877899,0.9940947585259785,0.001159685664148924,-0.04473945220111375
1539732259893911,0.9921416037232014,0.0020141908903639205,-0.05169756618600729
1539732259909923,0.9922636758983749,-0.0040894178683146265,-0.049378194857709445
1539732259925935,0.9878690775921264,-0.006897077897306758,-0.04974441138323016
1539732259941948,0.9848172732127871,-0.005310139620050336,-0.04693675135423803
1539732259957960,0.9834744792858778,-0.00848401617456318,-0.04852368963149445
1539732259973972,0.985427634088655,-0.015808346684977437,-0.05035477225909801
1539732259989984,0.9872587167162585,-0.01873807888914314,-0.0470588235294116
1539732260005996,0.9866483558403907,-0.017029068436713146,-0.04437323567559304
1539732260022009,0.9876249332417792,-0.017151140611886717,-0.04339665827420447
1539732260038021,0.9889677271686885,-0.01886015106431671,-0.04510566872663446
1539732260054033,0.9923857480735485,-0.021789883268482413,-0.04473945220111375
1539732260070045,0.9887235828183414,-0.019836728465705278,-0.041687647821774476
1539732260086057,0.9872587167162585,-0.01605249103532458,-0.04046692607003877
1539732260102069,0.9886015106431678,-0.01361104753185316,-0.04461738002594018
1539732260118082,0.9894560158693828,-0.015197985809109582,-0.04644846265354374
1539732260134094,0.9890897993438621,-0.015564202334630295,-0.04498359655146089
1539732260150106,0.9859159227893493,-0.013366903181506018,-0.042908369573510186
1539732260166118,0.9806668192568857,-0.005188067444876765,-0.04107728694590662
1539732260182130,0.9754177157244222,-7.934691386282111E-4,-0.04205386434729519
1539732260198150,0.9738307774471657,-0.0040894178683146265,-0.04596017395284946
1539732260214162,0.9724879835202564,-0.010559243152513886,-0.04644846265354374
1539732260230175,0.9704127565423057,-0.014343480582894585,-0.04095521477073305
1539732260246187,0.9716334782940415,-0.017029068436713146,-0.03851377126726163
1539732260262199,0.9790798809796293,-0.022278171969176697,-0.041565575646600905
1539732260278211,0.9929961089494164,-0.033875028610665936,-0.049378194857709445
1539732260294223,1.0015411612115663,-0.041565575646600905,-0.04583810177767589
1539732260310236,0.9983672846570535,-0.03814755474174092,-0.04608224612802303
1539732260326248,1.001052872510872,-0.032410162508583085,-0.048157473105973736
1539732260342260,1.004470893415732,-0.022034027618829555,-0.04962233920805659
1539732260358272,0.9976348516060121,-0.015197985809109582,-0.04718089570458517
1539732260374284,0.9907988097962921,-0.007629510948348184,-0.046814679179064456
1539732260390297,0.9849393453879607,6.103608758678547E-5,-0.044129091325245895
1539732260406309,0.98457312886244,0.00457770656900891,-0.04180971999694805
1539732260422321,0.9887235828183414,0.0071412222476539,-0.036316472114137355
1539732260438333,0.9938506141756314,-7.934691386282111E-4,-0.04510566872663446
1539732260454345,0.9938506141756314,-0.005310139620050336,-0.04205386434729519
1539732260470358,0.9909208819714657,-0.011535820553902454,-0.04107728694590662
1539732260486370,0.9936064698252842,-0.015075913633936011,-0.03961242084382377
1539732260502382,0.9977569237811856,-0.023498893720912406,-0.04876783398184159
1539732260518402,1.0032501716639963,-0.03155565728236809,-0.05389486533913157
1539732260534414,0.9961699855039292,-0.02423132677195383,-0.04632639047837017
1539732260550426,0.9907988097962921,-0.015075913633936011,-0.042786297398336615
1539732260566438,0.9927519645990692,-0.014221408407721015,-0.04608224612802303
1539732260582450,0.9949492637521935,-0.01995880064087885,-0.05242999923704872
1539732260598463,0.9944609750514992,-0.020813305867093845,-0.04888990615701516
1539732260614475,0.9944609750514992,-0.014343480582894585,-0.04193179217212162
1539732260630487,0.9939726863508049,-0.0042114900434881974,-0.0394903486686502
1539732260646499,0.9937285420004578,-0.004699778744182481,-0.04388494697489875
1539732260662511,0.9937285420004578,-0.01483176928358887,-0.04986648355840373
1539732260678524,0.9893339436942092,-0.015930418860151008,-0.049256122682535874
1539732260694536,0.97431906614786,-0.00579842832074462,-0.032410162508583085
1539732260710548,0.9621118486305029,0.004821850919356052,-0.02801556420233453
1539732260726560,0.9636987869077593,-9.15541313801782E-4,-0.03448538948653379
1539732260742572,0.9737087052719922,-0.019470511940184565,-0.04217593652246876
1539732260758585,0.9878690775921264,-0.03436331731136022,-0.04376287479972518
1539732260774597,0.9929961089494164,-0.03533989471274879,-0.03436331731136022
1539732260790609,0.9936064698252842,-0.027161058976119534,-0.03314259555962451
1539732260806621,0.9907988097962921,-0.02130159456778813,-0.03607232776379021
1539732260822633,0.9936064698252842,-0.027038986800945963,-0.0462043183031966
1539732260838684,0.9944609750514992,-0.032288090333409514,-0.04461738002594018
1539732260854696,0.9903105210955978,-0.02545204852368954,-0.03973449301899734
1539732260870708,0.9879911497673,-0.007263294422827471,-0.035095750362401645
1539732260886720,0.9833524071107043,0.005676356145571049,-0.03924620431830306
1539732260902732,0.9840848401617457,0.001037613488975353,-0.04486152437628732
1539732260918745,0.9877470054169528,-0.010193026626993174,-0.05230792706187515
1539732260934757,0.9906767376211185,-0.017029068436713146,-0.05157549401083372
1539732260950769,0.9823758297093157,-0.011413748378728883,-0.042664225223163044
1539732260966781,0.9762722209506371,-0.005188067444876765,-0.03985656519417091
1539732260982793,0.98115510795758,-0.015930418860151008,-0.053040360112916574
1539732260998806,0.9920195315480278,-0.035217822537575216,-0.05658045319295013
1539732261014818,0.9932402532997635,-0.03424124513618665,-0.05169756618600729
1539732261030830,0.9920195315480278,-0.02801556420233453,-0.04461738002594018
1539732261046842,0.9949492637521935,-0.016784924086366004,-0.04522774090180803
1539732261062854,0.9966582742046235,-0.01751735713740743,-0.048157473105973736
1539732261078867,0.9925078202487221,-0.016784924086366004,-0.046814679179064456
1539732261094879,0.9833524071107043,-0.008606088349736751,-0.04119935912108019
1539732261110891,0.9821316853589686,-0.007385366598001042,-0.04107728694590662
1539732261126903,0.983718623636225,-0.0071412222476539,-0.041443503471427334
1539732261142915,0.9833524071107043,-0.006408789196612474,-0.037781338216220206
1539732261158935,0.9859159227893493,-0.012878614480811734,-0.039002059967955915
1539732261174947,0.9849393453879607,-0.015320057984283153,-0.039002059967955915
1539732261190960,0.9851834897383078,-0.019592584115358136,-0.034973678187228074
1539732261206972,0.9940947585259785,-0.028625925078202386,-0.03546196688792236
1539732261222984,0.9969024185549706,-0.03045700770580595,-0.03851377126726163
1539732261238996,0.9883573662928207,-0.023743038071259548,-0.03265430685893023
1539732261255008,0.9815213244831007,-0.021911955443655984,-0.03668268863965807
1539732261271021,0.9870145723659114,-0.024475471122300974,-0.040100709544518054
1539732261287033,0.9960479133287556,-0.03350881208514522,-0.042908369573510186
1539732261303045,1.0038605325398642,-0.029602502479590953,-0.042908369573510186
1539732261319057,0.9977569237811856,-0.01361104753185316,-0.03741512169069949
1539732261335069,0.9931181811245899,-0.004821850919356052,-0.04119935912108019
1539732261351081,0.9971465629053178,-0.007019150072480329,-0.046692607003890885
1539732261367094,0.9947051194018464,-0.007629510948348184,-0.048035400930800165
1539732261383106,0.9972686350804914,-0.009460593575951748,-0.049134050507362304
1539732261399118,0.9977569237811856,-0.0036011291676203427,-0.04754711223010588
1539732261415130,0.9889677271686885,0.0036011291676203427,-0.04437323567559304
1539732261431142,0.9807888914320593,6.103608758678547E-5,-0.04632639047837017
1539732261447155,0.9843289845120928,-0.014099336232547444,-0.05218585488670158
1539732261463167,0.9922636758983749,-0.024841687647821686,-0.054627298390172996
1539732261479156,0.9901884489204242,-0.023620965896085977,-0.04718089570458517
1539732261495168,0.9925078202487221,-0.019470511940184565,-0.0499885557335773
1539732261511181,0.9939726863508049,-0.01886015106431671,-0.05279621576256943
1539732261527193,0.9856717784390021,-0.01995880064087885,-0.04766918440527945
1539732261543205,0.9765163653009843,-0.02642862592507811,-0.04644846265354374
1539732261559217,0.9771267261768521,-0.029602502479590953,-0.045349813076981604
1539732261575229,0.97773708705272,-0.020447089341573133,-0.03814755474174092
1539732261591241,0.9783474479285879,-0.00836194399938961,-0.03399710078583951
1539732261607254,0.9824979018844893,-0.011291676203555312,-0.041443503471427334
1539732261623266,0.9868925001907378,-0.01873807888914314,-0.042786297398336615
1539732261639278,0.9838406958113985,-0.02154573891813527,-0.035217822537575216
1539732261655290,0.9796902418554971,-0.01873807888914314,-0.03204394598306237
1539732261671302,0.9824979018844893,-0.020813305867093845,-0.03814755474174092
1539732261687315,0.9879911497673,-0.03167772945754166,-0.046692607003890885
1539732261703327,0.9910429541466392,-0.03692683299000521,-0.04779125658045302
1539732261719339,0.9912870984969864,-0.032410162508583085,-0.045471885252155175
1539732261735351,0.99140917067216,-0.026306553749904538,-0.04876783398184159
1539732261751363,1.004470893415732,-0.029480430304417382,-0.057190814068817986
1539732261767376,1.0098420691233692,-0.026306553749904538,-0.057068741893644415
1539732261783388,1.0069123369192035,-0.012024109254596738,-0.049500267032883016
1539732261799408,0.9961699855039292,0.00982681010147246,-0.04083314259555948
1539732261815420,0.9882352941176471,0.021057450217440987,-0.04376287479972518
1539732261831432,0.9848172732127871,0.014709697108415298,-0.045349813076981604
1539732261847444,0.9818875410086214,0.003112840466926059,-0.04596017395284946
1539732261863456,0.9827420462348364,-0.0026245517662317752,-0.03936827649347663
1539732261879469,0.9809109636072328,0.0038452735179674846,-0.03338673990997165
1539732261895481,0.9755397878995957,0.0025024795910582043,-0.035095750362401645
1539732261911493,0.97773708705272,-0.014465552758068156,-0.04449530785076661
1539732261927505,0.9833524071107043,-0.04205386434729519,-0.04986648355840373
1539732261943517,0.9921416037232014,-0.05499351491569371,-0.046814679179064456
1539732261959530,0.9950713359273671,-0.04888990615701516,-0.03997863736934448
1539732261975542,0.9917753871976807,-0.03436331731136022,-0.037781338216220206
1539732261991554,0.9975127794308385,-0.033630884260318794,-0.04596017395284946
1539732262007566,0.9920195315480278,-0.036316472114137355,-0.048035400930800165
1539732262023578,0.9851834897383078,-0.029846646829938095,-0.04046692607003877
1539732262039590,0.9806668192568857,-0.017761501487754572,-0.037537193865873064
1539732262055603,0.9823758297093157,-0.006652933546959616,-0.0365606164644845
1539732262071615,0.9850614175631343,-0.001159685664148924,-0.040222781719691625
1539732262087627,0.9900663767452507,-0.01239032578011745,-0.04742504005493231
1539732262103639,0.9899443045700771,-0.015686274509803866,-0.040100709544518054
1539732262119659,0.9849393453879607,-0.011657892729076025,-0.03558403906309593
1539732262135671,0.9849393453879607,-0.014099336232547444,-0.04449530785076661
1539732262151683,0.9867704280155642,-0.023010605020218122,-0.05133134966048658
1539732262167696,0.9840848401617457,-0.029968719005111666,-0.053040360112916574
1539732262183708,0.9822537575341421,-0.029968719005111666,-0.03729304951552592
1539732262199720,0.9834744792858778,-0.016906996261539575,-0.03607232776379021
1539732262215732,0.9969024185549706,-0.029968719005111666,-0.05926604104676869
1539732262231744,0.9982452124818799,-0.04742504005493231,-0.06842145418478696
1539732262247757,0.9948271915770199,-0.044129091325245895,-0.053772793163958
1539732262263769,0.9917753871976807,-0.015320057984283153,-0.043030441748683756
1539732262279781,0.9903105210955978,-0.01495384145876244,-0.0394903486686502
1539732262295793,0.9929961089494164,-0.02130159456778813,-0.04254215304798947
1539732262311805,0.9956816968032349,-0.021057450217440987,-0.04596017395284946
1539732262327818,0.9971465629053178,-0.013000686655985305,-0.04095521477073305
1539732262343830,0.9955596246280614,-0.005188067444876765,-0.03595025558861664
1539732262359842,0.99140917067216,-0.0071412222476539,-0.0365606164644845
1539732262375854,0.9904325932707714,-0.015075913633936011,-0.040100709544518054
1539732262391866,0.9918974593728542,-0.021911955443655984,-0.041443503471427334
1539732262407879,0.9922636758983749,-0.02154573891813527,-0.03790341039139378
1539732262423891,0.9933623254749371,-0.0214236667429617,-0.035095750362401645
1539732262439911,0.9942168307011521,-0.02386511024643312,-0.03802548256656735
1539732262455923,0.9907988097962921,-0.028137636377508102,-0.045593957427328746
1539732262471935,0.988845654993515,-0.029602502479590953,-0.04693675135423803
1539732262487947,0.9904325932707714,-0.03179980163271523,-0.04779125658045302
1539732262503959,0.9945830472266728,-0.031311512932020946,-0.050598916609445155
1539732262519971,0.9922636758983749,-0.024597543297474544,-0.04498359655146089
1539732262535984,0.9849393453879607,-0.019714656290531707,-0.04644846265354374
1539732262551996,0.9887235828183414,-0.02398718242160669,-0.054627298390172996
1539732262568008,0.98970016021973,-0.028259708552681673,-0.05426108186465228
1539732262584020,0.9843289845120928,-0.022400244144350268,-0.047913328755626594
1539732262600032,0.9807888914320593,-0.01641870756084529,-0.05230792706187515
1539732262616045,0.9805447470817121,-0.013977264057373873,-0.050476844434271584
1539732262632057,0.9763942931258107,-0.017273212787060288,-0.04840161745632088
1539732262648069,0.9781033035782407,-0.026916914625772392,-0.049256122682535874
1539732262664081,0.9860379949645228,-0.03595025558861664,-0.04986648355840373
1539732262680093,0.988845654993515,-0.03399710078583951,-0.04486152437628732
1539732262696106,0.9920195315480278,-0.029724574654764524,-0.04437323567559304
1539732262712118,0.9876249332417792,-0.027527275501640247,-0.042908369573510186
1539732262728130,0.985427634088655,-0.029724574654764524,-0.043030441748683756
1539732262744142,0.9890897993438621,-0.03411917296101308,-0.0432745860990309
1539732262760162,0.9895780880445564,-0.030945296406500233,-0.03851377126726163
1539732262776174,0.9859159227893493,-0.01898222323949028,-0.03436331731136022
1539732262792186,0.9865262836652171,-0.013855191882200302,-0.03851377126726163
1539732262808199,0.9861600671396964,-0.019104295414663852,-0.040344853894865196
1539732262824211,0.9881132219424735,-0.028747997253375956,-0.04119935912108019
1539732262840223,0.9890897993438621,-0.03057907988097952,-0.03704890516517878
1539732262856235,0.9866483558403907,-0.02252231631952384,-0.032288090333409514
1539732262872247,0.9873807888914321,-0.019836728465705278,-0.03717097734035235
1539732262888260,0.9912870984969864,-0.022034027618829555,-0.044007019150072324
1539732262904272,0.9944609750514992,-0.03143358510719452,-0.043030441748683756
1539732262920284,0.9954375524528878,-0.030212863355458808,-0.04119935912108019
1539732262936296,0.9948271915770199,-0.024353398947127403,-0.038879987792782345
1539732262952308,0.9958037689784085,-0.02032501716639956,-0.044007019150072324
1539732262968320,0.9933623254749371,-0.019592584115358136,-0.04901197833218873
1539732262984333,0.9931181811245899,-0.023620965896085977,-0.049378194857709445
1539732263000345,0.9951934081025406,-0.025085831998168828,-0.04864576180666802
1539732263016357,0.9940947585259785,-0.020447089341573133,-0.046692607003890885
1539732263032369,0.9909208819714657,-0.019714656290531707,-0.04608224612802303
1539732263048381,0.9900663767452507,-0.019836728465705278,-0.04718089570458517
1539732263064394,0.9916533150225071,-0.026184481574730967,-0.04852368963149445
1539732263080413,0.9892118715190357,-0.026184481574730967,-0.04229800869764233
1539732263096426,0.9843289845120928,-0.02545204852368954,-0.041443503471427334
1539732263112438,0.985427634088655,-0.02655069810025168,-0.04046692607003877
1539732263128450,0.9864042114900435,-0.02923628595407024,-0.04046692607003877
1539732263144462,0.9864042114900435,-0.028381780727855244,-0.03839169909208806
1539732263160474,0.9892118715190357,-0.03045700770580595,-0.03790341039139378
1539732263176487,0.9876249332417792,-0.02789349202716096,-0.03802548256656735
1539732263192499,0.9857938506141757,-0.029480430304417382,-0.034851606012054503
1539732263208511,0.98628213931487,-0.031189440756847375,-0.036438544289310926
1539732263224523,0.9821316853589686,-0.03289845120927737,-0.03680476081483164
1539732263240535,0.9878690775921264,-0.03167772945754166,-0.037537193865873064
1539732263256548,0.9865262836652171,-0.030823224231326662,-0.039124132143129486
1539732263272560,0.9882352941176471,-0.03033493553063238,-0.03851377126726163
1539732263288572,0.9903105210955978,-0.030090791180285237,-0.04254215304798947
1539732263304584,0.9909208819714657,-0.02923628595407024,-0.04376287479972518
1539732263320596,0.9918974593728542,-0.028381780727855244,-0.04779125658045302
1539732263336609,0.9900663767452507,-0.0252079041733424,-0.04644846265354374
1539732263352621,0.9912870984969864,-0.022400244144350268,-0.04364080262455161
1539732263368633,0.99140917067216,-0.02020294499122599,-0.0424200808728159
1539732263384645,0.9922636758983749,-0.022400244144350268,-0.044007019150072324
1539732263400665,0.9956816968032349,-0.02276646066987098,-0.04754711223010588
1539732263416677,0.9953154802777142,-0.02288853284504455,-0.04339665827420447
1539732263432689,0.98970016021973,-0.02032501716639956,-0.04473945220111375
1539732263448701,0.9894560158693828,-0.022034027618829555,-0.042786297398336615
1539732263464714,0.9903105210955978,-0.020935378042267416,-0.03424124513618665
1539732263480726,0.98628213931487,-0.015686274509803866,-0.03302052338445094
1539732263496738,0.9903105210955978,-0.01373311970702673,-0.03436331731136022
1539732263512750,0.9964141298542764,-0.019836728465705278,-0.039002059967955915
1539732263528762,1.000808728160525,-0.029480430304417382,-0.03741512169069949
1539732263544775,0.9960479133287556,-0.02935835812924381,-0.03411917296101308
1539732263560787,0.9900663767452507,-0.02410925459678026,-0.03070115205615309
1539732263576799,0.9843289845120928,-0.020569161516746703,-0.034851606012054503
1539732263592811,0.98115510795758,-0.02252231631952384,-0.04193179217212162
1539732263608823,0.9773708705271993,-0.02777141985198739,-0.04510566872663446
1539732263624836,0.9796902418554971,-0.03167772945754166,-0.04473945220111375
1539732263640848,0.9840848401617457,-0.03204394598306237,-0.042664225223163044
1539732263656860,0.9860379949645228,-0.03143358510719452,-0.044251163500419466
1539732263672872,0.9778591592278936,-0.031067368581673804,-0.04779125658045302
1539732263688884,0.9772487983520257,-0.031189440756847375,-0.04193179217212162
1539732263704897,0.9783474479285879,-0.02935835812924381,-0.03924620431830306
1539732263720916,0.9815213244831007,-0.027649347676813818,-0.040100709544518054
1539732263736929,0.9865262836652171,-0.027038986800945963,-0.04071107042038591
1539732263752941,0.9860379949645228,-0.02264438849469741,-0.036438544289310926
1539732263768953,0.9813992523079271,-0.020569161516746703,-0.029480430304417382
1539732263784965,0.9778591592278936,-0.021179522392614558,-0.029602502479590953
1539732263800977,0.9771267261768521,-0.02252231631952384,-0.0327763790341038
1539732263816990,0.9801785305561914,-0.028870069428549527,-0.03179980163271523
1539732263833002,0.9861600671396964,-0.03167772945754166,-0.03216601815823594
1539732263849014,0.9912870984969864,-0.03350881208514522,-0.03436331731136022
1539732263865026,1.000198367284657,-0.03411917296101308,-0.03680476081483164
1539732263881038,0.9995880064087892,-0.030945296406500233,-0.037537193865873064
1539732263897050,0.9993438620584421,-0.030212863355458808,-0.03973449301899734
1539732263913063,0.9988555733577478,-0.028381780727855244,-0.0386358434424352
1539732263929075,0.9964141298542764,-0.023743038071259548,-0.04046692607003877
1539732263945087,0.9962920576791028,-0.01898222323949028,-0.04180971999694805
1539732263961099,1.00166323338674,-0.016540779736018862,-0.04596017395284946
1539732263977111,1.0015411612115663,-0.01605249103532458,-0.04522774090180803
1539732263993124,0.9998321507591363,-0.013122758831158876,-0.04351873044937804
1539732264009136,1.0026398107881285,-0.0109254596780346,-0.0357061112382695
1539732264025148,1.0037384603646906,-0.010803387502861028,-0.033752956435492365
1539732264041168,1.0055695429922942,-0.0060425726710917615,-0.0357061112382695
1539732264057180,1.0043488212405585,-0.005432211795223907,-0.03057907988097952
1539732264073192,1.0055695429922942,-0.007629510948348184,-0.03045700770580595
1539732264089204,1.0058136873426413,-0.00982681010147246,-0.030823224231326662
1539732264105217,1.0052033264667735,-0.0071412222476539,-0.028625925078202386
1539732264121229,1.0045929655909056,-0.01861600671396957,-0.03216601815823594
1539732264137241,1.0037384603646906,-0.024719615472648115,-0.03533989471274879
1539732264153253,0.9998321507591363,-0.028259708552681673,-0.03582818341344307
1539732264169265,1.0017853055619135,-0.026916914625772392,-0.03717097734035235
1539732264185278,1.0064240482185092,-0.024963759822995257,-0.04058899824521234
1539732264201290,1.0114290074006256,-0.026916914625772392,-0.0470588235294116
1539732264217302,1.0037384603646906,-0.019592584115358136,-0.04852368963149445
1539732264233314,0.9955596246280614,-0.012634470130464592,-0.050476844434271584
1539732264249326,-0.6184786755168994,0.5884489204242005,0.3814145113298242
1539732264265339,1.5055771725032425,-0.6377660791943236,-0.43952086671244395
1539732264281351,1.1582818341344323,-0.12213321126115817,-0.16559090562294942
1539732264297363,1.0214389257648584,-0.05120927748531301,-0.10150301365682468
1539732264313375,1.0142366674296177,-0.027161058976119534,-0.03143358510719452
1539732264329387,1.0038605325398642,0.0709849698634315,-0.0021362630655374915
1539732264345399,1.0054474708171206,0.04901197833218873,-0.05999847409781012
1539732264361419,0.9729762722209507,0.03057907988097952,-0.09735255970092327
1539732264377431,0.9353780422674909,-0.009094377050431035,-0.08038452735179691
1539732264393444,0.9590600442511636,0.019592584115358136,-0.057190814068817986
1539732264409456,0.9765163653009843,0.03179980163271523,-0.031067368581673804
1539732264425468,0.9829861905851836,0.02545204852368954,-0.018249790188448856
1539732264441480,0.9975127794308385,0.015442130159456724,-0.030090791180285237
1539732264457492,1.0122835126268406,-6.103608758678547E-5,-0.032410162508583085
1539732264473505,1.024124513618677,-0.008972304875257464,-0.028259708552681673
1539732264489517,1.0280308232242312,-0.019470511940184565,-0.021789883268482413
1539732264505529,1.0233920805676355,-0.037781338216220206,-0.015197985809109582
1539732264521541,1.0161898222323948,-0.04730296787975874,-0.009216449225604606
1539732264537553,1.0082551308461127,-0.04632639047837017,-0.014465552758068156
1539732264553566,1.0012970168612192,-0.03729304951552592,-0.02288853284504455
1539732264569578,0.9917753871976807,-0.03057907988097952,-0.02288853284504455
1539732264585590,0.9826199740596628,-0.026916914625772392,-0.019226367589837423
1539732264601602,0.9801785305561914,-0.026062409399557396,-0.013366903181506018
1539732264617614,0.9762722209506371,-0.025574120698863112,-0.013488975356679589
1539732264633627,0.9829861905851836,-0.0214236667429617,-0.02288853284504455
1539732264649639,0.9838406958113985,-0.022400244144350268,-0.03057907988097952
1539732264665651,0.9776150148775464,-0.021179522392614558,-0.0365606164644845
1539732264681671,0.9778591592278936,-0.025574120698863112,-0.03717097734035235
1539732264697683,0.9807888914320593,-0.025940337224383825,-0.03582818341344307
1539732264713695,0.9900663767452507,-0.029846646829938095,-0.04388494697489875
1539732264729707,0.9922636758983749,-0.030945296406500233,-0.051941710536354435
1539732264745720,0.9951934081025406,-0.028747997253375956,-0.05902189669642155
1539732264761732,0.9933623254749371,-0.02398718242160669,-0.05902189669642155
1539732264777744,0.9890897993438621,-0.018005645838101714,-0.05767910276951227
1539732264793756,0.9824979018844893,-0.013855191882200302,-0.06158541237506654
1539732264809768,0.9824979018844893,-0.008606088349736751,-0.06292820630197626
1539732264825780,0.9800564583810178,-0.0016479743648432077,-0.06170748455024011
1539732264841793,0.9781033035782407,0.006897077897306758,-0.061097123674372256
1539732264857805,0.9728542000457772,0.010437170977340315,-0.0640268558785384
1539732264873817,0.9685816739147022,0.009460593575951748,-0.06768902113374553
1539732264889829,0.9677271686884872,0.010315098802166744,-0.06012054627298369
1539732264905841,0.9729762722209507,0.013122758831158876,-0.05255207141222229
1539732264921854,0.9815213244831007,0.009948882276646032,-0.05035477225909801
1539732264937866,0.9904325932707714,0.0071412222476539,-0.05011062790875087
1539732264953878,0.9943389028763256,-3.0518043793392735E-4,-0.05267414358739586
1539732264969890,1.0039826047150378,-0.009216449225604606,-0.05523765926604085
1539732264985902,1.0080109864957656,-0.019226367589837423,-0.0508430609597923
1539732265001922,1.006179903868162,-0.02288853284504455,-0.0470588235294116
1539732265017934,0.9976348516060121,-0.02130159456778813,-0.04254215304798947
1539732265033947,0.9872587167162585,-0.019226367589837423,-0.0365606164644845
1539732265049959,0.9835965514610514,-0.01873807888914314,-0.034973678187228074
1539732265065971,0.9813992523079271,-0.019348439765010994,-0.028870069428549527
1539732265081983,0.9809109636072328,-0.01617456321049815,-0.02532997634851597
1539732265097995,0.9835965514610514,-0.015197985809109582,-0.01886015106431671
1539732265114008,0.9916533150225071,-0.015930418860151008,-0.019714656290531707
1539732265130020,1.0012970168612192,-0.023498893720912406,-0.019470511940184565
1539732265146032,1.0110627908751049,-0.026184481574730967,-0.021789883268482413
1539732265162044,1.0133821622034027,-0.031189440756847375,-0.019592584115358136
1539732265178056,1.0137483787289234,-0.030823224231326662,-0.021057450217440987
1539732265194069,1.0054474708171206,-0.02935835812924381,-0.01898222323949028
1539732265210081,0.9939726863508049,-0.02642862592507811,-0.019104295414663852
1539732265226093,0.9867704280155642,-0.025940337224383825,-0.02008087281605242
1539732265242105,0.9844510566872664,-0.02410925459678026,-0.02130159456778813
1539732265258117,0.9807888914320593,-0.024597543297474544,-0.02252231631952384
1539732265274129,0.9790798809796293,-0.023376821545738835,-0.023376821545738835
1539732265290142,0.9809109636072328,-0.019348439765010994,-0.026916914625772392
1539732265306154,0.982009613183795,-0.019836728465705278,-0.03216601815823594
1539732265322174,0.9800564583810178,-0.027283131151293105,-0.0365606164644845
1539732265338186,0.9815213244831007,-0.0327763790341038,-0.03985656519417091
1539732265354198,0.9846952010376135,-0.037659266041046635,-0.04193179217212162
1539732265370210,0.9853055619134814,-0.03057907988097952,-0.039002059967955915
1539732265386222,0.9864042114900435,-0.02288853284504455,-0.04217593652246876
1539732265402235,0.9829861905851836,-0.021179522392614558,-0.042664225223163044
1539732265418247,0.9831082627603571,-0.019104295414663852,-0.04486152437628732
1539732265434259,0.9850614175631343,-0.023010605020218122,-0.0470588235294116
1539732265450271,0.9889677271686885,-0.01861600671396957,-0.04510566872663446
1539732265466283,0.9943389028763256,-0.01495384145876244,-0.045593957427328746
1539732265482296,0.9945830472266728,-0.013122758831158876,-0.044007019150072324
1539732265498308,0.9931181811245899,-0.012634470130464592,-0.045471885252155175
1539732265514320,0.9932402532997635,-0.014221408407721015,-0.04315251392385733
1539732265530332,0.9904325932707714,-0.013000686655985305,-0.03973449301899734
1539732265546344,0.9898222323949035,-0.015564202334630295,-0.03802548256656735
1539732265562357,0.9910429541466392,-0.01641870756084529,-0.03802548256656735
1539732265578369,0.9920195315480278,-0.01483176928358887,-0.033752956435492365
1539732265594381,0.9950713359273671,-0.016784924086366004,-0.033875028610665936
1539732265610393,0.9977569237811856,-0.021789883268482413,-0.032288090333409514
1539732265626405,0.9981231403067063,-0.025574120698863112,-0.03204394598306237
1539732265642425,0.9943389028763256,-0.028747997253375956,-0.03179980163271523
1539732265658437,0.9936064698252842,-0.025818265049210254,-0.03167772945754166
1539732265674450,0.9922636758983749,-0.022400244144350268,-0.03143358510719452
1539732265690462,0.9943389028763256,-0.022278171969176697,-0.029968719005111666
1539732265706474,0.9936064698252842,-0.0252079041733424,-0.03216601815823594
1539732265722486,0.9881132219424735,-0.026184481574730967,-0.03546196688792236
1539732265738498,0.9846952010376135,-0.021789883268482413,-0.036316472114137355
1539732265754511,0.9806668192568857,-0.019836728465705278,-0.03546196688792236
1539732265770523,0.9773708705271993,-0.01861600671396957,-0.03216601815823594
1539732265786535,0.9774929427023729,-0.021789883268482413,-0.03546196688792236
1539732265802547,0.9810330357824064,-0.02801556420233453,-0.04107728694590662
1539732265818559,0.9848172732127871,-0.030823224231326662,-0.040100709544518054
1539732265834571,0.9818875410086214,-0.02923628595407024,-0.03558403906309593
1539732265850584,0.9832303349355307,-0.02801556420233453,-0.0365606164644845
1539732265866596,0.988845654993515,-0.027283131151293105,-0.03997863736934448
1539732265882608,0.99140917067216,-0.02911421377889667,-0.03790341039139378
1539732265898620,0.9948271915770199,-0.028259708552681673,-0.03607232776379021
1539732265914632,0.9900663767452507,-0.021911955443655984,-0.033752956435492365
1539732265930645,0.9912870984969864,-0.02008087281605242,-0.03558403906309593
1539732265946657,0.9940947585259785,-0.023010605020218122,-0.037659266041046635
1539732265962677,0.9940947585259785,-0.02532997634851597,-0.03582818341344307
1539732265978689,0.9923857480735485,-0.020691233691920274,-0.032288090333409514
1539732265994701,0.9909208819714657,-0.017761501487754572,-0.03289845120927737
1539732266010713,0.9883573662928207,-0.016540779736018862,-0.03436331731136022
1539732266026725,0.98628213931487,-0.02154573891813527,-0.033875028610665936
1539732266042738,0.9856717784390021,-0.02777141985198739,-0.03436331731136022
1539732266058750,0.9940947585259785,-0.03057907988097952,-0.03546196688792236
1539732266074762,1.00166323338674,-0.02801556420233453,-0.033875028610665936
1539732266090774,1.003616388189517,-0.02288853284504455,-0.03704890516517878
1539732266106786,1.0012970168612192,-0.022400244144350268,-0.04205386434729519
1539732266122799,0.9980010681315328,-0.023743038071259548,-0.04083314259555948
1539732266138811,0.9932402532997635,-0.020691233691920274,-0.037537193865873064
1539732266154823,0.990554665445945,-0.017029068436713146,-0.036438544289310926
1539732266170835,0.987136644541085,-0.012634470130464592,-0.03692683299000521
1539732266186847,0.9849393453879607,-0.012756542305638163,-0.03692683299000521
1539732266202860,0.98457312886244,-0.014709697108415298,-0.03741512169069949
1539732266218872,0.9832303349355307,-0.019592584115358136,-0.03424124513618665
1539732266234884,0.9799343862058443,-0.02288853284504455,-0.034973678187228074
1539732266250896,0.9798123140306707,-0.02679484245059882,-0.03204394598306237
1539732266266908,0.9857938506141757,-0.0319218738078888,-0.03179980163271523
1539732266282898,0.9951934081025406,-0.03533989471274879,-0.03033493553063238
1539732266298910,1.000808728160525,-0.03704890516517878,-0.0327763790341038
1539732266314922,1.0012970168612192,-0.036194399938963784,-0.031311512932020946
1539732266330934,0.9962920576791028,-0.0327763790341038,-0.03143358510719452
1539732266346946,0.9865262836652171,-0.02789349202716096,-0.03070115205615309
1539732266362959,0.9860379949645228,-0.02679484245059882,-0.03460746166170736
1539732266378971,0.9846952010376135,-0.028259708552681673,-0.03595025558861664
1539732266394983,0.9857938506141757,-0.02545204852368954,-0.03741512169069949
1539732266410995,0.9873807888914321,-0.024475471122300974,-0.03729304951552592
1539732266427007,0.9889677271686885,-0.020935378042267416,-0.03582818341344307
1539732266443019,0.9890897993438621,-0.019348439765010994,-0.036194399938963784
1539732266459032,0.9898222323949035,-0.020569161516746703,-0.03973449301899734
1539732266475044,0.9856717784390021,-0.01861600671396957,-0.04132143129625376
1539732266491056,0.9835965514610514,-0.019226367589837423,-0.03826962691691449
1539732266507068,0.9829861905851836,-0.01995880064087885,-0.041565575646600905
1539732266523080,0.9848172732127871,-0.020813305867093845,-0.03741512169069949
1539732266539093,0.9846952010376135,-0.02154573891813527,-0.03448538948653379
1539732266555105,0.9844510566872664,-0.02008087281605242,-0.03607232776379021
1539732266571117,0.982009613183795,-0.020569161516746703,-0.035095750362401645
1539732266587129,0.9822537575341421,-0.025696192874036683,-0.03338673990997165
1539732266603149,0.9834744792858778,-0.027283131151293105,-0.030090791180285237
1539732266619161,0.9895780880445564,-0.026184481574730967,-0.028747997253375956
1539732266635173,0.9956816968032349,-0.02154573891813527,-0.03057907988097952
1539732266651186,0.9951934081025406,-0.02020294499122599,-0.028503852903028815
1539732266667198,0.9915312428473335,-0.019714656290531707,-0.02679484245059882
1539732266683210,0.9932402532997635,-0.021057450217440987,-0.02911421377889667
1539732266699222,0.9932402532997635,-0.021179522392614558,-0.032288090333409514
1539732266715234,0.9887235828183414,-0.017883573662928143,-0.031189440756847375
1539732266731247,0.9824979018844893,-0.013366903181506018,-0.028381780727855244
1539732266747259,0.9853055619134814,-0.014587624933241727,-0.02801556420233453
1539732266763271,0.9926298924238957,-0.015075913633936011,-0.02935835812924381
1539732266779283,0.9915312428473335,-0.01104753185320817,-0.03411917296101308
1539732266795295,0.9947051194018464,-0.01226825360494388,-0.035217822537575216
1539732266811308,0.9928740367742428,-0.012024109254596738,-0.0365606164644845
1539732266827320,0.9973907072556649,-0.01861600671396957,-0.03411917296101308
1539732266843332,1.000198367284657,-0.01873807888914314,-0.033630884260318794
1539732266859344,0.9990997177080949,-0.01495384145876244,-0.03607232776379021
1539732266875356,0.9933623254749371,-0.015564202334630295,-0.042664225223163044
1539732266891368,0.9906767376211185,-0.01861600671396957,-0.04449530785076661
1539732266907381,0.9939726863508049,-0.02386511024643312,-0.04254215304798947
1539732266923431,0.9947051194018464,-0.023376821545738835,-0.04351873044937804
1539732266939443,0.98628213931487,-0.01861600671396957,-0.04083314259555948
1539732266955455,0.9818875410086214,-0.01483176928358887,-0.03936827649347663
1539732266971468,0.987136644541085,-0.014221408407721015,-0.036438544289310926
1539732266987480,0.9894560158693828,-0.012756542305638163,-0.03167772945754166
1539732267003492,0.9827420462348364,-0.01104753185320817,-0.03314259555962451
1539732267019504,0.9761501487754636,-0.013000686655985305,-0.030823224231326662
1539732267035516,0.9689478904402229,-0.018371862363622427,-0.026184481574730967
1539732267051529,0.9701686121919586,-0.019714656290531707,-0.023132677195391693
1539732267067541,0.9793240253299764,-0.020447089341573133,-0.023010605020218122
1539732267083553,0.9861600671396964,-0.024841687647821686,-0.023132677195391693
1539732267099565,0.9898222323949035,-0.02679484245059882,-0.02252231631952384
1539732267115577,0.9879911497673,-0.027038986800945963,-0.024719615472648115
1539732267131590,0.9916533150225071,-0.029846646829938095,-0.028137636377508102
1539732267147602,0.9900663767452507,-0.029602502479590953,-0.02679484245059882
1539732267163614,0.9878690775921264,-0.02386511024643312,-0.03204394598306237
1539732267179626,0.9886015106431678,-0.021179522392614558,-0.03143358510719452
1539732267195638,0.9889677271686885,-0.019226367589837423,-0.03436331731136022
1539732267211650,0.9907988097962921,-0.016540779736018862,-0.03558403906309593
1539732267227663,0.9895780880445564,-0.011535820553902454,-0.035095750362401645
1539732267243682,0.9893339436942092,-0.006530861371786045,-0.03582818341344307
1539732267259695,0.9903105210955978,-0.0036011291676203427,-0.03839169909208806
1539732267275707,0.9932402532997635,-0.0038452735179674846,-0.039002059967955915
1539732267291719,0.9969024185549706,-0.005432211795223907,-0.03790341039139378
1539732267307731,0.9984893568322271,-0.003356984817273201,-0.033630884260318794
1539732267323743,0.9972686350804914,-0.0015259021896696368,-0.03424124513618665
1539732267339756,0.9983672846570535,-0.001037613488975353,-0.033630884260318794
1539732267355768,0.9929961089494164,-0.002990768291752488,-0.03338673990997165
1539732267371780,0.9925078202487221,-0.00579842832074462,-0.032532234683756656
1539732267387792,0.98970016021973,-0.006897077897306758,-0.027649347676813818
1539732267403804,0.9909208819714657,-0.009216449225604606,-0.02410925459678026
1539732267419817,0.9942168307011521,-0.011169604028381741,-0.02545204852368954
1539732267435829,0.9993438620584421,-0.01483176928358887,-0.02679484245059882
1539732267451841,1.0059357595178149,-0.017639429312581,-0.028137636377508102
1539732267467853,1.000808728160525,-0.01373311970702673,-0.02386511024643312
1539732267483865,0.9945830472266728,-0.015320057984283153,-0.027038986800945963
1539732267499878,0.9934843976501107,-0.015442130159456724,-0.02911421377889667
1539732267515890,0.9901884489204242,-0.016540779736018862,-0.029846646829938095
1539732267531902,0.9842069123369193,-0.01629663538567172,-0.03314259555962451
1539732267547914,0.9813992523079271,-0.017151140611886717,-0.03350881208514522
1539732267563934,0.9806668192568857,-0.017151140611886717,-0.0327763790341038
1539732267579946,0.9817654688334478,-0.019104295414663852,-0.03350881208514522
1539732267595958,0.9806668192568857,-0.02410925459678026,-0.03692683299000521
1539732267611971,0.9831082627603571,-0.02386511024643312,-0.03533989471274879
1539732267627983,0.9822537575341421,-0.022278171969176697,-0.03472953383688093
1539732267643995,0.9866483558403907,-0.023010605020218122,-0.03851377126726163
1539732267660007,0.9912870984969864,-0.02252231631952384,-0.03961242084382377
1539732267676019,0.99140917067216,-0.02032501716639956,-0.04107728694590662
