Timestamp (microseconds),Gyro X (°/s),Gyro Y (°/s),Gyro Z (°/s)
1539732243225586,-0.09155413138023505,-1.3122758831159445,8.819714656290444
1539732243241588,-1.3122758831159445,-1.8616006713969,8.33142595559616
1539732243257591,-2.288853284504512,-2.3498893720911838,7.721065079728305
1539732243273594,-2.7771419851987957,-2.8992141603723667,6.9886320286868795
1539732243289596,-2.655069810025225,-3.814755474174035,6.500343327992596
1539732243305599,-1.6784924086366573,-5.279621576256886,5.95101853971164
1539732243321601,-0.33569848172737693,-6.8665598535133086,5.3406576638437855
1539732243337604,0.7019150072480898,-8.45349813076973,4.730296787975931
1539732243353607,1.0681315327688026,-9.73525597009234,4.242008087281647
1539732243369609,0.7019150072480898,-10.345616845960194,4.058899824521177
1539732243385612,0.2746623941404778,-10.467689021133765,3.692683299000464
1539732243401615,0.03051804379333589,-10.223544670786623,3.0823224231326094
1539732243417617,-0.15259021896690683,-9.55214770733187,2.105745021744042
1539732243433620,-0.9460593575952316,-7.782101167315204,0.8239871824216607
1539732243449623,-2.288853284504512,-5.462729839017356,-1.0070954451819034
1539732243465625,-3.1433585107195086,-3.3264667734797513,-2.8992141603723667
1539732243481628,-3.3875028610666504,-1.983672846570471,-4.60822461280236
1539732243497631,-3.2654306858930795,-1.3733119707026162,-5.95101853971164
1539732243513633,-3.3264667734797513,-0.9460593575952316,-6.622415503166167
1539732243529636,-3.570611123826893,-0.7629510948347615,-6.561379415579495
1539732243545623,-3.570611123826893,-0.8239871824216607,-5.706874189364498
1539732243561626,-3.3875028610666504,-1.1902037079423735,-4.486152437628789
1539732243577629,-3.0823224231326094,-1.6784924086366573,-3.2654306858930795
1539732243593631,-2.4719615472647547,-2.227817196917613,-2.105745021744042
1539732243609634,-1.739528496223329,-2.8381780727854675,-0.7629510948347615
1539732243625637,-1.2512397955290453,-3.1433585107195086,0.5798428320745188
1539732243641639,-0.9460593575952316,-3.1433585107195086,1.8616006713969
1539732243657642,-0.5798428320745188,-3.5095750362402214,3.5095750362402214
1539732243673645,0.03051804379333589,-4.547188525215461,5.401693751430457
1539732243689647,0.3967345693140487,-5.462729839017356,6.927595941100208
1539732243705650,0.15259021896690683,-5.645838101777599,7.598992904554734
1539732243721653,-0.15259021896690683,-4.974441138323073,7.4158846417944915
1539732243737655,0.09155413138023505,-3.997863736934505,6.622415503166167
1539732243753658,0.7629510948347615,-3.0212863355459376,5.76791027695117
1539732243769661,1.3122758831159445,-2.166781109330941,5.279621576256886
1539732243785663,0.5188067444876197,-1.3122758831159445,5.279621576256886
1539732243801666,-1.4953841458761872,0.15259021896690683,5.096513313496644
1539732243817669,-3.1433585107195086,1.6784924086366573,4.60822461280236
1539732243833671,-3.4485389486533222,2.227817196917613,4.180971999694748
1539732243849674,-2.410925459678083,1.9226367589837992,4.058899824521177
1539732243865692,-1.6174563210497581,1.739528496223329,3.814755474174035
1539732243881694,-1.3733119707026162,1.6174563210497581,3.6316472114137923
1539732243897697,-1.2512397955290453,1.1902037079423735,3.875791561760934
1539732243913700,-1.0681315327688026,0.09155413138023505,4.852368963149502
1539732243929702,-0.6408789196611906,-1.5564202334630863,6.012054627298312
1539732243945705,0.03051804379333589,-3.5095750362402214,6.8665598535133086
1539732243961708,1.5564202334630863,-5.3406576638437855,6.9886320286868795
1539732243977710,4.119935912108076,-7.049668116273779,6.744487678339738
1539732243993713,6.805523765926637,-9.063859006637585,6.8665598535133086
1539732244009716,8.392462043183059,-10.833905546654478,7.354848554207592
1539732244025718,8.087281605249018,-12.054627298390187,7.598992904554734
1539732244041721,6.805523765926637,-12.176699473563758,6.9886320286868795
1539732244057724,5.584802014190927,-10.711833371480907,5.157549401083315
1539732244073726,4.669260700389032,-7.904173342488775,1.9226367589837992
1539732244089729,3.692683299000464,-4.242008087281647,-2.288853284504512
1539732244105732,3.1433585107195086,-0.6408789196611906,-6.683451590753066
1539732244121734,3.1433585107195086,2.166781109330941,-10.406652933546866
1539732244137737,3.3264667734797513,3.997863736934505,-13.092240787365427
1539732244153740,2.9602502479590385,4.730296787975931,-14.618142977035177
1539732244169742,2.288853284504512,4.852368963149502,-15.045395590142562
1539732244185852,2.04470893415737,4.42511635004189,-14.618142977035177
1539732244201855,2.105745021744042,3.7537193865873633,-13.397421225299468
1539732244217858,2.7161058976118966,3.0212863355459376,-11.749446860456146
1539732244233861,3.5095750362402214,2.655069810025225,-9.491111619745197
1539732244249864,4.669260700389032,2.532997634851654,-6.622415503166167
1539732244265867,6.073090714885211,1.739528496223329,-3.0212863355459376
1539732244281870,7.537956816968062,0.15259021896690683,1.3733119707026162
1539732244297874,7.2938124666209205,-1.8616006713969,5.645838101777599
1539732244313877,4.791332875562603,-3.3264667734797513,8.6366063935302
1539732244329880,1.739528496223329,-3.875791561760934,9.979400320439481
1539732244345883,0.2746623941404778,-4.180971999694748,10.101472495613052
1539732244361886,0.15259021896690683,-4.42511635004189,9.613183794918768
1539732244377889,0.33569848172737693,-4.42511635004189,8.819714656290444
1539732244393892,0.09155413138023505,-3.936827649347606,7.965209430075447
1539732244409896,-0.5798428320745188,-3.0212863355459376,6.9886320286868795
1539732244425899,-1.2512397955290453,-1.9226367589837992,5.76791027695117
1539732244441902,-1.8005645838102282,-0.8239871824216607,5.0354772259097444
1539732244457905,-2.04470893415737,-0.9460593575952316,5.523765926604028
1539732244473908,-2.288853284504512,-2.8381780727854675,7.232776379034021
1539732244489911,-2.7161058976118966,-5.3406576638437855,9.430075532158298
1539732244506103,-3.3875028610666504,-7.232776379034021,10.955977721828049
1539732244522107,-3.7537193865873633,-8.087281605249018,11.444266422522333
1539732244538111,-3.1433585107195086,-8.392462043183059,11.07804989700162
1539732244554115,-2.04470893415737,-8.51453421835663,10.406652933546866
1539732244570119,-1.8616006713969,-8.392462043183059,9.430075532158298
1539732244586124,-3.1433585107195086,-7.598992904554734,7.965209430075447
1539732244602128,-4.730296787975931,-6.195162890058782,5.889982452124741
1539732244618132,-5.889982452124741,-4.242008087281647,3.570611123826893
1539732244634136,-6.378271152819025,-2.227817196917613,1.3733119707026162
1539732244650140,-6.927595941100208,-0.213626306553806,-0.5188067444876197
1539732244666144,-7.721065079728305,1.6174563210497581,-2.227817196917613
1539732244682148,-8.33142595559616,3.0823224231326094,-3.5095750362402214
1539732244698152,-8.148317692835917,4.303044174868319,-4.791332875562603
1539732244714156,-7.17174029144735,4.9134050507361735,-5.401693751430457
1539732244730160,-5.889982452124741,4.486152437628789,-4.730296787975931
1539732244746164,-4.242008087281647,3.0212863355459376,-2.7161058976118966
1539732244762169,-2.227817196917613,0.5798428320745188,0.45777065690094787
1539732244778173,-0.09155413138023505,-2.105745021744042,3.4485389486533222
1539732244794177,1.8005645838102282,-4.119935912108076,5.401693751430457
1539732244810181,3.0823224231326094,-5.279621576256886,6.500343327992596
1539732244826294,3.4485389486533222,-5.889982452124741,7.049668116273779
1539732244842298,2.7771419851987957,-6.256198977645454,7.2938124666209205
1539732244858303,2.04470893415737,-6.622415503166167,6.622415503166167
1539732244874307,1.6174563210497581,-6.622415503166167,5.096513313496644
1539732244890312,1.3122758831159445,-5.828946364538069,2.9602502479590385
1539732244906316,0.8239871824216607,-3.692683299000464,0.03051804379333589
1539732244922321,0.09155413138023505,-0.7019150072480898,-3.0823224231326094
1539732244938326,-0.45777065690094787,2.04470893415737,-5.828946364538069
1539732244954330,-0.5798428320745188,3.3875028610666504,-7.782101167315204
1539732244970335,-0.2746623941404778,3.3875028610666504,-8.6366063935302
1539732244986339,0.45777065690094787,2.7771419851987957,-8.51453421835663
1539732245002344,0.8850232700083325,1.983672846570471,-7.721065079728305
1539732245018348,0.8239871824216607,1.6174563210497581,-6.622415503166167
1539732245034353,1.1291676203554744,1.0681315327688026,-5.2185854886702145
1539732245050357,2.105745021744042,-0.15259021896690683,-3.2654306858930795
1539732245066362,2.655069810025225,-1.739528496223329,-0.9460593575952316
1539732245082367,1.8616006713969,-2.5940337224383256,0.7629510948347615
1539732245098371,0.6408789196611906,-2.410925459678083,1.3733119707026162
1539732245114376,0.8239871824216607,-2.227817196917613,1.3733119707026162
1539732245130380,2.227817196917613,-2.655069810025225,1.2512397955290453
1539732245146545,3.2043945983061803,-3.570611123826893,1.1902037079423735
1539732245162550,2.7161058976118966,-3.997863736934505,1.1291676203554744
1539732245178555,1.4953841458761872,-3.7537193865873633,0.9460593575952316
1539732245194560,0.6408789196611906,-2.9602502479590385,0.6408789196611906
1539732245210565,0.7019150072480898,-2.105745021744042,0.15259021896690683
1539732245226570,1.3733119707026162,-1.6174563210497581,-0.2746623941404778
1539732245242575,2.166781109330941,-1.739528496223329,-0.33569848172737693
1539732245258580,2.5940337224383256,-2.3498893720911838,0.2746623941404778
1539732245274585,2.288853284504512,-3.0823224231326094,1.1291676203554744
1539732245290590,1.6784924086366573,-3.1433585107195086,1.8616006713969
1539732245306595,1.2512397955290453,-2.9602502479590385,2.532997634851654
1539732245322600,1.1291676203554744,-2.8992141603723667,3.2654306858930795
1539732245338606,1.2512397955290453,-2.8381780727854675,3.7537193865873633
1539732245354611,1.2512397955290453,-2.7771419851987957,4.119935912108076
1539732245370616,1.1291676203554744,-2.7161058976118966,4.242008087281647
1539732245386621,1.2512397955290453,-2.7161058976118966,4.364080262455218
1539732245402626,1.6174563210497581,-3.2043945983061803,4.669260700389032
1539732245418631,1.6174563210497581,-3.814755474174035,4.974441138323073
1539732245434636,1.3733119707026162,-4.058899824521177,4.852368963149502
1539732245450641,1.1291676203554744,-4.242008087281647,4.669260700389032
1539732245466797,0.9460593575952316,-4.303044174868319,4.60822461280236
1539732245482802,1.3122758831159445,-4.669260700389032,4.60822461280236
1539732245498808,2.410925459678083,-5.889982452124741,5.0354772259097444
1539732245514813,4.180971999694748,-8.026245517662346,5.95101853971164
1539732245530819,5.889982452124741,-10.101472495613052,7.11070420386045
1539732245546824,6.561379415579495,-11.322194247348762,8.148317692835917
1539732245562830,6.256198977645454,-11.688410772869474,8.51453421835663
1539732245578835,6.317235065232353,-11.566338597695903,8.087281605249018
1539732245594841,7.4158846417944915,-11.871519035629717,7.2938124666209205
1539732245610846,9.185931181811156,-12.542915999084471,5.889982452124741
1539732245626852,10.345616845960194,-12.481879911497572,4.119935912108076
1539732245642857,9.85732814526591,-10.89494163424115,1.8616006713969
1539732245658863,8.087281605249018,-7.598992904554734,-1.0070954451819034
1539732245674868,5.95101853971164,-3.2654306858930795,-4.486152437628789
1539732245690874,4.730296787975931,1.0681315327688026,-8.148317692835917
1539732245706879,4.9134050507361735,4.180971999694748,-11.261158159761862
1539732245722885,5.584802014190927,5.76791027695117,-12.726024261844714
1539732245738890,5.157549401083315,6.317235065232353,-12.664988174258042
1539732245754896,3.0212863355459376,6.012054627298312,-11.505302510109004
1539732245770901,0.33569848172737693,4.669260700389032,-9.67421988250544
1539732245787017,-0.5798428320745188,2.04470893415737,-7.660028992141633
1539732245803023,1.3733119707026162,-2.410925459678083,-5.3406576638437855
1539732245819029,4.364080262455218,-7.782101167315204,-2.288853284504512
1539732245835035,6.073090714885211,-12.4208438239109,0.8850232700083325
1539732245851041,5.3406576638437855,-14.98435950255589,3.5095750362402214
1539732245867047,3.6316472114137923,-15.777828641183987,4.9134050507361735
1539732245883053,3.2654306858930795,-16.388189517051842,5.523765926604028
1539732245899059,4.119935912108076,-16.998550392919697,5.828946364538069
1539732245915065,3.875791561760934,-16.510261692225413,5.279621576256886
1539732245931071,1.2512397955290453,-13.336385137712568,2.9602502479590385
1539732245947077,-0.7629510948347615,-7.782101167315204,-1.2512397955290453
1539732245963083,1.4953841458761872,-2.532997634851654,-4.852368963149502
1539732245979089,5.889982452124741,0.03051804379333589,-5.584802014190927
1539732245995095,6.9886320286868795,0.33569848172737693,-3.7537193865873633
1539732246011101,2.166781109330941,0.5798428320745188,-1.1902037079423735
1539732246027107,-3.936827649347606,1.0070954451819034,-0.213626306553806
1539732246043113,-5.401693751430457,1.0681315327688026,-1.1902037079423735
1539732246059119,-1.1291676203554744,0.7629510948347615,-2.9602502479590385
1539732246075125,4.60822461280236,0.9460593575952316,-3.875791561760934
1539732246091131,6.561379415579495,2.7161058976118966,-3.4485389486533222
1539732246107269,4.303044174868319,5.462729839017356,-2.3498893720911838
1539732246123275,1.3122758831159445,7.965209430075447,-1.4953841458761872
1539732246139282,0.45777065690094787,8.880750743877343,-0.8239871824216607
1539732246155288,1.4953841458761872,8.209353780422589,0.15259021896690683
1539732246171295,1.8616006713969,7.11070420386045,1.3122758831159445
1539732246187301,0.45777065690094787,6.317235065232353,2.04470893415737
1539732246203308,-2.288853284504512,6.378271152819025,1.8005645838102282
1539732246219314,-3.4485389486533222,6.195162890058782,0.3967345693140487
1539732246235321,-1.983672846570471,5.0354772259097444,-1.3122758831159445
1539732246251327,0.5798428320745188,3.0212863355459376,-2.166781109330941
1539732246267334,1.3122758831159445,1.2512397955290453,-2.227817196917613
1539732246283340,0.03051804379333589,-0.3967345693140487,-1.9226367589837992
1539732246299347,-1.0681315327688026,-1.983672846570471,-1.6174563210497581
1539732246315353,-0.3967345693140487,-3.4485389486533222,-1.1902037079423735
1539732246331359,-0.5798428320745188,-4.242008087281647,-0.7629510948347615
1539732246347366,-2.410925459678083,-4.42511635004189,-0.45777065690094787
1539732246363372,-4.547188525215461,-5.096513313496644,-0.3967345693140487
1539732246379379,-4.486152437628789,-6.9886320286868795,-0.2746623941404778
1539732246395385,-3.0212863355459376,-9.063859006637585,-0.03051804379333589
1539732246411392,-2.227817196917613,-9.796292057679011,-0.213626306553806
1539732246427520,-3.1433585107195086,-8.880750743877343,-0.6408789196611906
1539732246443527,-4.180971999694748,-7.843137254901876,-0.7019150072480898
1539732246459534,-3.814755474174035,-7.782101167315204,-0.6408789196611906
1539732246475541,-1.9226367589837992,-8.575570305943302,-0.03051804379333589
1539732246491548,-0.9460593575952316,-9.185931181811156,0.7019150072480898
1539732246507555,-1.983672846570471,-8.51453421835663,1.1291676203554744
1539732246523562,-4.119935912108076,-6.9886320286868795,1.3122758831159445
1539732246539569,-5.828946364538069,-5.157549401083315,1.3122758831159445
1539732246555576,-6.012054627298312,-3.692683299000464,0.7019150072480898
1539732246571583,-4.974441138323073,-2.655069810025225,-0.09155413138023505
1539732246587590,-3.3875028610666504,-1.8616006713969,-0.5798428320745188
1539732246603597,-2.5940337224383256,-0.9460593575952316,-0.5188067444876197
1539732246619604,-3.3264667734797513,0.03051804379333589,-0.213626306553806
1539732246635611,-5.096513313496644,1.6174563210497581,-0.09155413138023505
1539732246651618,-6.195162890058782,3.570611123826893,-0.213626306553806
1539732246667625,-5.462729839017356,5.096513313496644,-0.2746623941404778
1539732246683632,-3.0823224231326094,5.523765926604028,-0.03051804379333589
1539732246699638,-1.1291676203554744,5.0354772259097444,0.5798428320745188
1539732246715645,-0.45777065690094787,4.547188525215461,1.4343480582895154
1539732246731652,-1.0681315327688026,4.547188525215461,2.532997634851654
1539732246747741,-2.166781109330941,5.157549401083315,3.2654306858930795
1539732246763749,-3.2043945983061803,6.805523765926637,3.3264667734797513
1539732246779756,-4.058899824521177,9.185931181811156,3.1433585107195086
1539732246795764,-5.0354772259097444,10.89494163424115,3.2654306858930795
1539732246811771,-5.645838101777599,10.345616845960194,4.852368963149502
1539732246827778,-6.378271152819025,7.843137254901876,7.598992904554734
1539732246843786,-7.354848554207592,4.974441138323073,10.162508583199724
1539732246859793,-7.660028992141633,2.166781109330941,11.932555123216616
1539732246875801,-6.317235065232353,-1.4953841458761872,13.275349050125897
1539732246891808,-3.5095750362402214,-5.95101853971164,14.435034714274707
1539732246907816,-0.5798428320745188,-10.406652933546866,15.533684290836845
1539732246923823,0.3967345693140487,-13.76363775082018,16.510261692225413
1539732246939830,-1.5564202334630863,-15.350576028076603,16.571297779812312
1539732246955838,-5.2185854886702145,-15.045395590142562,14.740215152208748
1539732246971845,-8.148317692835917,-13.153276874952326,11.01701380941472
1539732246987853,-8.697642481116873,-10.772869459067579,6.256198977645454
1539732247003860,-7.232776379034021,-8.697642481116873,1.4953841458761872
1539732247019868,-5.706874189364498,-6.561379415579495,-2.4719615472647547
1539732247035875,-5.584802014190927,-4.180971999694748,-5.462729839017356
1539732247051882,-6.561379415579495,-2.3498893720911838,-7.11070420386045
1539732247067993,-7.2938124666209205,-2.166781109330941,-7.354848554207592
1539732247084001,-7.4158846417944915,-3.2654306858930795,-6.622415503166167
1539732247100009,-6.256198977645454,-4.669260700389032,-5.462729839017356
1539732247116016,-3.6316472114137923,-6.073090714885211,-3.875791561760934
1539732247132024,-0.15259021896690683,-7.843137254901876,-1.4953841458761872
1539732247148032,2.7771419851987957,-9.67421988250544,1.5564202334630863
1539732247164040,3.814755474174035,-10.89494163424115,4.547188525215461
1539732247180048,3.6316472114137923,-11.383230334935433,6.805523765926637
1539732247196056,3.3264667734797513,-11.139085984588291,8.087281605249018
1539732247212064,3.0823224231326094,-10.406652933546866,8.45349813076973
1539732247228072,2.288853284504512,-9.002822919050914,7.843137254901876
1539732247244080,1.3733119707026162,-6.927595941100208,6.439307240405924
1539732247260088,1.3122758831159445,-4.486152437628789,4.242008087281647
1539732247276095,1.8005645838102282,-1.8616006713969,2.105745021744042
1539732247292103,1.4953841458761872,1.0070954451819034,-0.09155413138023505
1539732247308111,0.5798428320745188,3.6316472114137923,-1.983672846570471
1539732247324119,-0.03051804379333589,5.279621576256886,-3.2654306858930795
1539732247340127,0.5798428320745188,5.462729839017356,-3.814755474174035
1539732247356135,1.8005645838102282,4.547188525215461,-3.692683299000464
1539732247372143,2.532997634851654,3.3264667734797513,-2.9602502479590385
1539732247388214,2.5940337224383256,2.410925459678083,-1.983672846570471
1539732247404222,2.655069810025225,1.739528496223329,-1.0070954451819034
1539732247420230,3.0823224231326094,0.5798428320745188,-0.03051804379333589
1539732247436237,3.692683299000464,-1.0070954451819034,1.0070954451819034
1539732247452245,4.303044174868319,-2.532997634851654,2.04470893415737
1539732247468253,4.547188525215461,-3.1433585107195086,2.7771419851987957
1539732247484261,4.058899824521177,-3.0823224231326094,3.2043945983061803
1539732247500269,3.1433585107195086,-2.227817196917613,3.1433585107195086
1539732247516277,2.227817196917613,-1.1902037079423735,2.8381780727854675
1539732247532285,1.4343480582895154,-0.09155413138023505,2.410925459678083
1539732247548293,1.1902037079423735,0.3967345693140487,1.983672846570471
1539732247564301,1.3122758831159445,0.213626306553806,1.739528496223329
1539732247580309,0.9460593575952316,0.45777065690094787,1.5564202334630863
1539732247596316,-0.7629510948347615,1.739528496223329,0.8850232700083325
1539732247612324,-3.875791561760934,3.936827649347606,0.15259021896690683
1539732247628332,-5.401693751430457,5.645838101777599,-0.2746623941404778
1539732247644340,-5.462729839017356,6.195162890058782,-0.2746623941404778
1539732247660348,-3.5095750362402214,5.157549401083315,0.03051804379333589
1539732247676356,-0.15259021896690683,3.0823224231326094,0.8239871824216607
1539732247692364,2.9602502479590385,0.2746623941404778,2.5940337224383256
1539732247708465,4.242008087281647,-2.655069810025225,4.852368963149502
1539732247724474,3.5095750362402214,-4.791332875562603,6.683451590753066
1539732247740482,2.105745021744042,-5.828946364538069,7.476920729381163
1539732247756490,1.1902037079423735,-5.584802014190927,7.049668116273779
1539732247772499,0.7019150072480898,-4.669260700389032,5.645838101777599
1539732247788507,0.2746623941404778,-3.3264667734797513,3.814755474174035
1539732247804515,-0.09155413138023505,-1.983672846570471,1.983672846570471
1539732247820524,-0.7629510948347615,-1.0070954451819034,0.5188067444876197
1539732247836532,-1.8005645838102282,-0.6408789196611906,-0.5188067444876197
1539732247852541,-2.410925459678083,-0.7019150072480898,-1.5564202334630863
1539732247868549,-1.6784924086366573,-0.8239871824216607,-2.4719615472647547
1539732247884557,-0.33569848172737693,-1.0681315327688026,-2.655069810025225
1539732247900566,0.03051804379333589,-1.3733119707026162,-2.227817196917613
1539732247916574,-0.6408789196611906,-1.3733119707026162,-1.739528496223329
1539732247932582,-0.5188067444876197,-1.6784924086366573,-1.1902037079423735
1539732247948591,1.8616006713969,-2.7161058976118966,-0.5798428320745188
1539732247964599,5.76791027695117,-3.875791561760934,-0.213626306553806
1539732247980608,9.002822919050914,-4.119935912108076,0.2746623941404778
1539732247996616,9.55214770733187,-3.5095750362402214,1.1902037079423735
1539732248012624,7.4158846417944915,-2.288853284504512,2.3498893720911838
1539732248028717,4.42511635004189,-0.7629510948347615,3.0823224231326094
1539732248044726,2.227817196917613,1.0070954451819034,3.0212863355459376
1539732248060734,1.3122758831159445,2.7161058976118966,2.288853284504512
1539732248076743,1.4343480582895154,3.814755474174035,1.5564202334630863
1539732248092752,1.2512397955290453,4.60822461280236,0.9460593575952316
1539732248108761,0.8850232700083325,5.3406576638437855,0.5798428320745188
1539732248124770,-0.213626306553806,5.95101853971164,0.6408789196611906
1539732248140779,-1.983672846570471,6.439307240405924,0.6408789196611906
1539732248156787,-3.936827649347606,6.622415503166167,0.5188067444876197
1539732248172796,-4.974441138323073,6.073090714885211,0.5798428320745188
1539732248188805,-4.730296787975931,4.486152437628789,1.3733119707026162
1539732248204814,-4.60822461280236,2.532997634851654,2.410925459678083
1539732248220823,-4.486152437628789,0.3967345693140487,3.570611123826893
1539732248236832,-4.242008087281647,-1.9226367589837992,4.974441138323073
1539732248252841,-3.4485389486533222,-4.9134050507361735,6.622415503166167
1539732248268849,-2.7771419851987957,-8.209353780422589,8.087281605249018
1539732248284858,-2.7161058976118966,-11.261158159761862,9.246967269398056
1539732248300867,-3.2654306858930795,-12.909132524605184,9.430075532158298
1539732248316876,-3.5095750362402214,-13.275349050125897,8.6366063935302
1539732248332885,-3.2654306858930795,-12.848096437018285,7.354848554207592
1539732248348938,-2.8992141603723667,-11.932555123216616,5.523765926604028
1539732248364946,-2.655069810025225,-10.955977721828049,3.814755474174035
1539732248380955,-2.4719615472647547,-10.040436408026153,2.4719615472647547
1539732248396964,-2.3498893720911838,-8.941786831464015,1.3122758831159445
1539732248412973,-1.6784924086366573,-8.148317692835917,0.3967345693140487
1539732248428982,-0.7629510948347615,-7.660028992141633,0.03051804379333589
1539732248444991,-0.33569848172737693,-6.805523765926637,-0.2746623941404778
1539732248461000,-0.45777065690094787,-5.2185854886702145,-0.9460593575952316
1539732248477008,-0.2746623941404778,-3.2043945983061803,-1.983672846570471
1539732248493017,0.5188067444876197,-1.5564202334630863,-2.8381780727854675
1539732248509026,1.3733119707026162,-0.5188067444876197,-3.2043945983061803
1539732248525035,1.0070954451819034,0.213626306553806,-2.8381780727854675
1539732248541044,-0.09155413138023505,1.0681315327688026,-2.227817196917613
1539732248557053,-0.45777065690094787,1.5564202334630863,-1.8616006713969
1539732248573062,0.7629510948347615,1.3122758831159445,-1.739528496223329
1539732248589070,2.9602502479590385,0.33569848172737693,-1.5564202334630863
1539732248605079,4.730296787975931,-1.0681315327688026,-0.9460593575952316
1539732248621088,4.791332875562603,-2.532997634851654,-0.03051804379333589
1539732248637097,3.7537193865873633,-3.3264667734797513,0.7629510948347615
1539732248653106,3.0212863355459376,-3.3875028610666504,0.7629510948347615
1539732248669220,3.2043945983061803,-3.3875028610666504,0.7629510948347615
1539732248685229,3.5095750362402214,-3.814755474174035,0.8239871824216607
1539732248701238,3.5095750362402214,-4.180971999694748,0.7629510948347615
1539732248717248,3.0212863355459376,-4.058899824521177,0.45777065690094787
1539732248733257,2.7771419851987957,-3.2654306858930795,-0.2746623941404778
1539732248749266,2.8992141603723667,-2.532997634851654,-0.8239871824216607
1539732248765276,2.8381780727854675,-2.105745021744042,-1.0070954451819034
1539732248781285,2.166781109330941,-1.6784924086366573,-0.8239871824216607
1539732248797294,1.1902037079423735,-0.9460593575952316,-0.8850232700083325
1539732248813304,0.8850232700083325,-0.03051804379333589,-0.9460593575952316
1539732248829313,1.4953841458761872,0.33569848172737693,-0.6408789196611906
1539732248845322,2.105745021744042,0.03051804379333589,0.213626306553806
1539732248861332,2.227817196917613,-0.6408789196611906,1.5564202334630863
1539732248877341,1.739528496223329,-1.0070954451819034,2.8992141603723667
1539732248893350,1.1902037079423735,-1.0070954451819034,3.936827649347606
1539732248909360,1.0070954451819034,-0.8239871824216607,4.669260700389032
1539732248925369,1.0070954451819034,-0.5798428320745188,4.9134050507361735
1539732248941378,1.2512397955290453,-0.6408789196611906,5.0354772259097444
1539732248957388,1.6784924086366573,-0.9460593575952316,5.3406576638437855
1539732248973397,1.5564202334630863,-1.3122758831159445,5.76791027695117
1539732248989471,0.8239871824216607,-1.6174563210497581,5.95101853971164
1539732249005481,-0.213626306553806,-1.739528496223329,5.828946364538069
1539732249021491,-0.5798428320745188,-1.8616006713969,5.584802014190927
1539732249037500,-0.09155413138023505,-2.4719615472647547,5.279621576256886
1539732249053510,0.213626306553806,-2.9602502479590385,4.9134050507361735
1539732249069520,-0.15259021896690683,-2.7771419851987957,4.303044174868319
1539732249085530,-0.3967345693140487,-2.532997634851654,3.7537193865873633
1539732249101540,-0.2746623941404778,-2.7161058976118966,3.7537193865873633
1539732249117550,0.03051804379333589,-3.570611123826893,4.119935912108076
1539732249133559,0.15259021896690683,-4.547188525215461,4.730296787975931
1539732249149569,-0.213626306553806,-5.3406576638437855,5.462729839017356
1539732249165579,-0.6408789196611906,-5.523765926604028,5.76791027695117
1539732249181589,-0.8850232700083325,-5.157549401083315,5.3406576638437855
1539732249197599,-0.7629510948347615,-4.669260700389032,4.669260700389032
1539732249213608,-0.5188067444876197,-4.303044174868319,3.814755474174035
1539732249229618,-0.8850232700083325,-3.7537193865873633,3.1433585107195086
1539732249245628,-1.739528496223329,-2.7161058976118966,2.5940337224383256
1539732249261638,-2.7161058976118966,-1.6174563210497581,2.04470893415737
1539732249277648,-2.7161058976118966,-0.8850232700083325,1.739528496223329
1539732249293657,-2.227817196917613,-1.0070954451819034,2.04470893415737
1539732249309723,-2.04470893415737,-1.5564202334630863,2.5940337224383256
1539732249325732,-2.288853284504512,-1.8005645838102282,3.0212863355459376
1539732249341742,-2.288853284504512,-1.983672846570471,3.2043945983061803
1539732249357752,-2.04470893415737,-1.983672846570471,3.2043945983061803
1539732249373762,-1.739528496223329,-1.983672846570471,3.0212863355459376
1539732249389772,-1.4953841458761872,-1.8616006713969,3.0212863355459376
1539732249405781,-1.6174563210497581,-1.983672846570471,3.3264667734797513
1539732249421791,-1.8005645838102282,-2.105745021744042,3.6316472114137923
1539732249437801,-1.8616006713969,-1.983672846570471,3.5095750362402214
1539732249453811,-1.5564202334630863,-1.8616006713969,3.4485389486533222
1539732249469821,-1.3122758831159445,-1.983672846570471,3.5095750362402214
1539732249485830,-1.6784924086366573,-2.227817196917613,3.570611123826893
1539732249501840,-2.166781109330941,-2.166781109330941,3.2043945983061803
1539732249517850,-1.9226367589837992,-1.739528496223329,2.410925459678083
1539732249533860,-1.1291676203554744,-1.3733119707026162,1.4343480582895154
1539732249549870,-0.7019150072480898,-1.1291676203554744,0.7019150072480898
1539732249565879,-0.9460593575952316,-1.0681315327688026,0.33569848172737693
1539732249581889,-1.3733119707026162,-1.0681315327688026,0.2746623941404778
1539732249597899,-1.983672846570471,-0.8850232700083325,0.09155413138023505
1539732249613909,-2.288853284504512,-0.5798428320745188,-0.3967345693140487
1539732249629974,-1.6784924086366573,-0.7019150072480898,-0.6408789196611906
1539732249645984,-0.5798428320745188,-1.2512397955290453,-0.6408789196611906
1539732249661994,-0.2746623941404778,-1.6784924086366573,-0.3967345693140487
1539732249678003,-0.8850232700083325,-1.2512397955290453,-0.5188067444876197
1539732249694013,-1.0070954451819034,-0.5188067444876197,-1.0681315327688026
1539732249710023,-0.5188067444876197,-0.5188067444876197,-1.4343480582895154
1539732249726033,0.33569848172737693,-0.8850232700083325,-1.739528496223329
1539732249742043,0.8850232700083325,-1.0070954451819034,-2.227817196917613
1539732249758052,0.8850232700083325,-0.7019150072480898,-2.655069810025225
1539732249774062,0.45777065690094787,-0.213626306553806,-2.8992141603723667
1539732249790072,0.45777065690094787,0.03051804379333589,-3.0823224231326094
1539732249806082,1.0070954451819034,-0.2746623941404778,-3.0823224231326094
1539732249822092,1.4343480582895154,-1.0070954451819034,-2.655069810025225
1539732249838101,1.1291676203554744,-1.739528496223329,-1.9226367589837992
1539732249854111,0.2746623941404778,-2.227817196917613,-0.9460593575952316
1539732249870121,-0.03051804379333589,-2.410925459678083,-0.15259021896690683
1539732249886131,0.3967345693140487,-2.532997634851654,0.5798428320745188
1539732249902141,1.1902037079423735,-3.0212863355459376,1.3733119707026162
1539732249918151,1.739528496223329,-3.570611123826893,2.288853284504512
1539732249934160,1.983672846570471,-4.60822461280236,3.3264667734797513
1539732249950225,1.739528496223329,-5.279621576256886,4.119935912108076
1539732249966236,1.8005645838102282,-5.584802014190927,4.364080262455218
1539732249982246,2.4719615472647547,-5.462729839017356,4.119935912108076
1539732249998256,3.0823224231326094,-4.791332875562603,3.7537193865873633
1539732250014267,2.7771419851987957,-3.692683299000464,3.2043945983061803
1539732250030277,1.8005645838102282,-2.532997634851654,2.655069810025225
1539732250046287,1.3733119707026162,-1.739528496223329,2.105745021744042
1539732250062297,1.5564202334630863,-1.2512397955290453,1.6784924086366573
1539732250078308,1.8616006713969,-0.8239871824216607,1.3733119707026162
1539732250094318,1.983672846570471,-0.15259021896690683,0.9460593575952316
1539732250110328,2.532997634851654,0.15259021896690683,0.9460593575952316
1539732250126339,3.0212863355459376,0.2746623941404778,1.3122758831159445
1539732250142349,3.3264667734797513,-0.09155413138023505,1.983672846570471
1539732250158359,3.0823224231326094,-0.9460593575952316,2.7771419851987957
1539732250174369,2.9602502479590385,-2.04470893415737,3.3875028610666504
1539732250190380,3.0823224231326094,-2.655069810025225,3.4485389486533222
1539732250206390,3.5095750362402214,-3.0823224231326094,2.9602502479590385
1539732250222400,4.119935912108076,-3.875791561760934,2.655069810025225
1539732250238411,4.242008087281647,-4.9134050507361735,2.7161058976118966
1539732250254421,3.7537193865873633,-5.584802014190927,2.532997634851654
1539732250270446,3.0823224231326094,-5.462729839017356,1.6174563210497581
1539732250286457,3.2654306858930795,-4.9134050507361735,0.213626306553806
1539732250302467,4.058899824521177,-4.669260700389032,-0.7629510948347615
1539732250318477,4.486152437628789,-5.096513313496644,-1.0681315327688026
1539732250334488,3.3264667734797513,-4.9134050507361735,-1.3733119707026162
1539732250350498,1.4953841458761872,-3.2043945983061803,-2.5940337224383256
1539732250366508,0.7629510948347615,-0.9460593575952316,-4.486152437628789
1539732250382518,1.5564202334630863,-0.09155413138023505,-5.462729839017356
1539732250398529,2.227817196917613,-0.45777065690094787,-5.462729839017356
1539732250414539,1.6174563210497581,-0.8239871824216607,-5.096513313496644
1539732250430549,0.5798428320745188,-0.8850232700083325,-4.42511635004189
1539732250446560,0.45777065690094787,-1.1291676203554744,-3.814755474174035
1539732250462570,1.4343480582895154,-1.6174563210497581,-2.8992141603723667
1539732250478580,2.04470893415737,-2.288853284504512,-1.6174563210497581
1539732250494590,1.3733119707026162,-2.7161058976118966,0.03051804379333589
1539732250510601,-0.3967345693140487,-2.166781109330941,0.9460593575952316
1539732250526611,-1.3122758831159445,-1.0070954451819034,0.8239871824216607
1539732250542621,-0.7629510948347615,-0.8239871824216607,0.8850232700083325
1539732250558632,0.03051804379333589,-2.166781109330941,1.4953841458761872
1539732250574642,0.5188067444876197,-4.180971999694748,2.8992141603723667
1539732250590667,0.15259021896690683,-6.012054627298312,4.9134050507361735
1539732250606678,-0.7019150072480898,-7.232776379034021,6.8665598535133086
1539732250622688,-1.1902037079423735,-8.209353780422589,8.270389868009488
1539732250638698,-0.8850232700083325,-9.55214770733187,9.491111619745197
1539732250654708,-0.45777065690094787,-10.833905546654478,10.162508583199724
1539732250670719,0.09155413138023505,-11.261158159761862,9.73525597009234
1539732250686729,0.213626306553806,-10.040436408026153,8.270389868009488
1539732250702739,0.33569848172737693,-7.537956816968062,6.134126802471883
1539732250718750,0.2746623941404778,-4.9134050507361735,4.242008087281647
1539732250734760,0.2746623941404778,-3.3264667734797513,2.9602502479590385
1539732250750770,0.45777065690094787,-2.9602502479590385,2.166781109330941
1539732250766780,1.1902037079423735,-3.0823224231326094,1.6174563210497581
1539732250782791,2.105745021744042,-2.7161058976118966,0.7629510948347615
1539732250798801,2.7161058976118966,-1.6784924086366573,-0.3967345693140487
1539732250814811,3.3875028610666504,-0.7019150072480898,-1.2512397955290453
1539732250830822,4.486152437628789,-0.45777065690094787,-1.3733119707026162
1539732250846832,5.76791027695117,-1.0681315327688026,-0.8850232700083325
1539732250862842,6.134126802471883,-1.3733119707026162,-0.6408789196611906
1539732250878852,5.889982452124741,-0.7019150072480898,-1.2512397955290453
1539732250894863,5.828946364538069,0.2746623941404778,-2.105745021744042
1539732250910919,5.889982452124741,0.9460593575952316,-2.7771419851987957
1539732250926930,5.0354772259097444,2.166781109330941,-3.936827649347606
1539732250942940,4.242008087281647,4.242008087281647,-5.828946364538069
1539732250958951,4.180971999694748,6.378271152819025,-7.4158846417944915
1539732250974962,4.669260700389032,7.660028992141633,-7.904173342488775
1539732250990973,3.997863736934505,7.904173342488775,-7.2938124666209205
1539732251006983,1.8005645838102282,7.4158846417944915,-5.889982452124741
1539732251022994,-0.3967345693140487,6.317235065232353,-4.180971999694748
1539732251039005,-1.0681315327688026,4.547188525215461,-2.7161058976118966
1539732251055016,0.2746623941404778,2.105745021744042,-1.3122758831159445
1539732251071026,2.227817196917613,-0.8239871824216607,0.7629510948347615
1539732251087037,2.8381780727854675,-3.936827649347606,3.570611123826893
1539732251103048,1.8005645838102282,-6.8665598535133086,6.378271152819025
1539732251119059,0.3967345693140487,-9.369039444571627,8.45349813076973
1539732251135069,-0.09155413138023505,-11.383230334935433,9.246967269398056
1539732251151080,0.45777065690094787,-12.664988174258042,9.002822919050914
1539732251167091,0.9460593575952316,-12.664988174258042,7.904173342488775
1539732251183102,0.45777065690094787,-11.139085984588291,6.378271152819025
1539732251199113,-0.5798428320745188,-8.697642481116873,4.486152437628789
1539732251215123,-1.4953841458761872,-7.11070420386045,3.0823224231326094
1539732251231170,-1.9226367589837992,-7.2938124666209205,2.4719615472647547
1539732251247181,-2.532997634851654,-7.904173342488775,2.166781109330941
1539732251263192,-2.9602502479590385,-7.721065079728305,1.1902037079423735
1539732251279203,-2.532997634851654,-6.561379415579495,-0.03051804379333589
1539732251295213,-0.9460593575952316,-5.3406576638437855,-0.8850232700083325
1539732251311224,0.6408789196611906,-4.486152437628789,-0.8850232700083325
1539732251327235,0.5188067444876197,-3.814755474174035,-0.7629510948347615
1539732251343246,-0.2746623941404778,-2.9602502479590385,-1.3733119707026162
1539732251359256,0.33569848172737693,-2.4719615472647547,-2.227817196917613
1539732251375267,1.6174563210497581,-1.9226367589837992,-3.0212863355459376
1539732251391278,2.7161058976118966,-0.9460593575952316,-3.814755474174035
1539732251407289,2.166781109330941,0.45777065690094787,-4.242008087281647
1539732251423299,1.0070954451819034,1.3122758831159445,-4.364080262455218
1539732251439310,0.45777065690094787,1.5564202334630863,-4.60822461280236
1539732251455321,1.3733119707026162,1.0681315327688026,-4.9134050507361735
1539732251471332,3.2654306858930795,0.2746623941404778,-4.974441138323073
1539732251487342,4.791332875562603,-0.33569848172737693,-4.60822461280236
1539732251503353,5.401693751430457,-0.7019150072480898,-3.4485389486533222
1539732251519364,4.669260700389032,-1.2512397955290453,-1.4343480582895154
1539732251535375,2.8381780727854675,-1.3733119707026162,0.03051804379333589
1539732251551422,1.6174563210497581,-0.8850232700083325,0.15259021896690683
1539732251567433,2.105745021744042,-0.33569848172737693,-0.09155413138023505
1539732251583443,3.2043945983061803,-0.45777065690094787,-0.03051804379333589
1539732251599454,3.5095750362402214,-0.8850232700083325,0.5798428320745188
1539732251615465,2.04470893415737,-1.4343480582895154,1.3122758831159445
1539732251631476,0.5798428320745188,-1.8005645838102282,1.6784924086366573
1539732251647486,0.33569848172737693,-2.105745021744042,1.4343480582895154
1539732251663497,1.0070954451819034,-2.5940337224383256,1.2512397955290453
1539732251679508,1.5564202334630863,-2.9602502479590385,1.3733119707026162
1539732251695519,0.9460593575952316,-3.0823224231326094,1.8616006713969
1539732251711529,-0.03051804379333589,-2.9602502479590385,2.5940337224383256
1539732251727540,-0.5188067444876197,-3.2043945983061803,3.3875028610666504
1539732251743551,-0.3967345693140487,-3.7537193865873633,3.936827649347606
1539732251759562,0.03051804379333589,-4.547188525215461,4.180971999694748
1539732251775572,0.03051804379333589,-4.791332875562603,4.119935912108076
1539732251791583,-0.33569848172737693,-4.303044174868319,3.692683299000464
1539732251807594,-0.3967345693140487,-3.692683299000464,3.0823224231326094
1539732251823605,-0.15259021896690683,-3.2654306858930795,2.5940337224383256
1539732251839615,0.03051804379333589,-3.0823224231326094,2.105745021744042
1539732251855626,0.03051804379333589,-2.655069810025225,1.4953841458761872
1539732251871673,0.33569848172737693,-2.227817196917613,1.0070954451819034
1539732251887684,0.6408789196611906,-2.04470893415737,1.0070954451819034
1539732251903695,0.3967345693140487,-1.8005645838102282,1.2512397955290453
1539732251919705,-0.213626306553806,-1.3733119707026162,1.3122758831159445
1539732251935716,-0.33569848172737693,-1.2512397955290453,1.1902037079423735
1539732251951727,-0.03051804379333589,-1.3733119707026162,0.6408789196611906
1539732251967738,0.6408789196611906,-1.3733119707026162,-0.213626306553806
1539732251983749,1.1902037079423735,-1.3122758831159445,-1.1291676203554744
1539732251999759,1.1902037079423735,-1.1291676203554744,-1.739528496223329
1539732252015770,0.213626306553806,-1.1291676203554744,-1.983672846570471
1539732252031781,-1.0070954451819034,-0.9460593575952316,-2.3498893720911838
1539732252047792,-0.9460593575952316,-0.45777065690094787,-3.0212863355459376
1539732252063802,-0.45777065690094787,-0.213626306553806,-3.3264667734797513
1539732252079813,-0.5188067444876197,-0.33569848172737693,-3.1433585107195086
1539732252095824,-1.0681315327688026,-0.6408789196611906,-2.5940337224383256
1539732252111835,-1.739528496223329,-0.5188067444876197,-2.04470893415737
1539732252127845,-1.983672846570471,0.15259021896690683,-1.9226367589837992
1539732252143856,-1.9226367589837992,1.3733119707026162,-2.166781109330941
1539732252159867,-1.2512397955290453,2.04470893415737,-1.9226367589837992
1539732252175878,-0.3967345693140487,1.3122758831159445,-0.5188067444876197
1539732252191925,-0.03051804379333589,-0.5798428320745188,1.5564202334630863
1539732252207936,-0.3967345693140487,-2.288853284504512,3.2654306858930795
1539732252223947,-0.7019150072480898,-3.2043945983061803,4.058899824521177
1539732252239958,-0.33569848172737693,-3.5095750362402214,3.875791561760934
1539732252255970,0.7019150072480898,-3.7537193865873633,3.570611123826893
1539732252271981,0.8850232700083325,-4.303044174868319,3.570611123826893
1539732252287992,-0.33569848172737693,-4.791332875562603,3.3875028610666504
1539732252304003,-1.9226367589837992,-4.974441138323073,2.7161058976118966
1539732252320015,-2.655069810025225,-4.669260700389032,1.6174563210497581
1539732252336026,-2.4719615472647547,-4.303044174868319,0.3967345693140487
1539732252352037,-2.3498893720911838,-4.119935912108076,-0.33569848172737693
1539732252368048,-2.7771419851987957,-3.875791561760934,-0.6408789196611906
1539732252384060,-3.5095750362402214,-3.2654306858930795,-0.8850232700083325
1539732252400071,-3.875791561760934,-2.3498893720911838,-1.3122758831159445
1539732252416082,-3.814755474174035,-1.4343480582895154,-1.4343480582895154
1539732252432093,-3.5095750362402214,-0.7629510948347615,-1.1902037079423735
1539732252448104,-3.0823224231326094,-0.3967345693140487,-0.45777065690094787
1539732252464116,-2.8381780727854675,-0.33569848172737693,0.7019150072480898
1539732252480127,-2.3498893720911838,-0.5798428320745188,1.4343480582895154
1539732252496138,-1.3122758831159445,-1.0681315327688026,1.5564202334630863
1539732252512176,0.3967345693140487,-1.6174563210497581,1.2512397955290453
1539732252528187,2.105745021744042,-2.105745021744042,1.2512397955290453
1539732252544199,2.105745021744042,-1.8005645838102282,1.9226367589837992
1539732252560210,0.2746623941404778,-0.9460593575952316,2.7161058976118966
1539732252576221,-1.6784924086366573,-0.213626306553806,3.3264667734797513
1539732252592232,-1.9226367589837992,-0.3967345693140487,3.1433585107195086
1539732252608244,-0.5188067444876197,-1.3122758831159445,2.532997634851654
1539732252624255,0.8239871824216607,-2.7161058976118966,2.105745021744042
1539732252640266,0.8850232700083325,-4.303044174868319,2.288853284504512
1539732252656277,-0.2746623941404778,-5.3406576638437855,2.7771419851987957
1539732252672289,-1.3122758831159445,-6.012054627298312,2.5940337224383256
1539732252688300,-1.1902037079423735,-6.927595941100208,1.8616006713969
1539732252704311,-0.03051804379333589,-7.598992904554734,0.6408789196611906
1539732252720322,0.6408789196611906,-7.4158846417944915,-0.9460593575952316
1539732252736333,0.09155413138023505,-6.073090714885211,-2.3498893720911838
1539732252752345,-0.8850232700083325,-4.242008087281647,-3.7537193865873633
1539732252768356,-0.8850232700083325,-2.655069810025225,-4.9134050507361735
1539732252784367,-0.09155413138023505,-1.8005645838102282,-5.2185854886702145
1539732252800378,0.6408789196611906,-1.8005645838102282,-4.852368963149502
1539732252816390,0.5188067444876197,-1.8005645838102282,-4.242008087281647
1539732252832428,-0.33569848172737693,-1.3122758831159445,-3.6316472114137923
1539732252848439,-1.0070954451819034,-0.3967345693140487,-3.2043945983061803
1539732252864450,-1.0681315327688026,0.7019150072480898,-3.3264667734797513
1539732252880461,-0.5188067444876197,1.3733119707026162,-3.6316472114137923
1539732252896473,0.2746623941404778,1.3122758831159445,-3.6316472114137923
1539732252912484,0.7019150072480898,0.7019150072480898,-2.7771419851987957
1539732252928495,0.45777065690094787,-0.03051804379333589,-1.6784924086366573
1539732252944506,-0.213626306553806,-0.5188067444876197,-0.7019150072480898
1539732252960518,-0.213626306553806,-0.8239871824216607,-0.33569848172737693
1539732252976529,0.9460593575952316,-1.0681315327688026,-0.45777065690094787
1539732252992540,2.410925459678083,-1.4343480582895154,-0.5188067444876197
1539732253008551,3.0212863355459376,-1.739528496223329,-0.5798428320745188
1539732253024562,2.4719615472647547,-1.739528496223329,-0.7019150072480898
1539732253040574,1.4343480582895154,-1.3733119707026162,-0.7629510948347615
1539732253056585,0.8850232700083325,-0.7629510948347615,-1.0070954451819034
1539732253072596,0.7019150072480898,-0.15259021896690683,-1.2512397955290453
1539732253088607,0.7019150072480898,0.2746623941404778,-1.2512397955290453
1539732253104619,0.7629510948347615,0.2746623941404778,-0.7629510948347615
1539732253120630,0.7629510948347615,-0.03051804379333589,0.03051804379333589
1539732253136641,0.5188067444876197,-0.7019150072480898,0.9460593575952316
1539732253152679,0.2746623941404778,-1.8616006713969,1.983672846570471
1539732253168690,0.15259021896690683,-3.1433585107195086,2.9602502479590385
1539732253184702,0.5188067444876197,-4.242008087281647,3.7537193865873633
1539732253200713,1.0681315327688026,-5.096513313496644,4.242008087281647
1539732253216724,1.6174563210497581,-5.706874189364498,4.730296787975931
1539732253232735,1.739528496223329,-6.195162890058782,5.2185854886702145
1539732253248746,0.9460593575952316,-6.439307240405924,5.523765926604028
1539732253264758,-0.03051804379333589,-6.622415503166167,5.279621576256886
1539732253280769,-0.09155413138023505,-6.500343327992596,4.42511635004189
1539732253296780,0.6408789196611906,-6.073090714885211,3.3875028610666504
1539732253312791,0.5798428320745188,-4.791332875562603,2.04470893415737
1539732253328803,0.03051804379333589,-2.5940337224383256,0.6408789196611906
1539732253344814,-0.15259021896690683,-1.0070954451819034,-0.03051804379333589
1539732253360825,0.03051804379333589,-0.5798428320745188,0.09155413138023505
1539732253376836,-0.2746623941404778,-0.7019150072480898,0.2746623941404778
1539732253392848,-0.5798428320745188,-0.7019150072480898,0.03051804379333589
1539732253408859,-0.09155413138023505,-0.6408789196611906,-0.213626306553806
1539732253424870,0.7019150072480898,-0.7629510948347615,-0.33569848172737693
1539732253440881,1.0070954451819034,-1.0070954451819034,-0.15259021896690683
1539732253456893,0.6408789196611906,-1.3122758831159445,0.2746623941404778
1539732253472931,0.213626306553806,-1.8005645838102282,0.5798428320745188
1539732253488942,0.33569848172737693,-2.105745021744042,0.45777065690094787
1539732253504953,0.6408789196611906,-1.8616006713969,-0.09155413138023505
1539732253520964,0.8239871824216607,-1.4953841458761872,-0.7629510948347615
1539732253536975,1.0070954451819034,-1.4343480582895154,-0.9460593575952316
1539732253552987,0.7629510948347615,-1.6784924086366573,-0.6408789196611906
1539732253568998,0.15259021896690683,-2.04470893415737,-0.5188067444876197
1539732253585009,0.03051804379333589,-2.166781109330941,-0.7629510948347615
1539732253601020,0.5188067444876197,-2.166781109330941,-1.1902037079423735
1539732253617032,0.8850232700083325,-2.04470893415737,-1.4953841458761872
1539732253633043,0.8239871824216607,-1.8616006713969,-1.8005645838102282
1539732253649054,0.7019150072480898,-1.6784924086366573,-1.9226367589837992
1539732253665065,0.7629510948347615,-1.5564202334630863,-1.8616006713969
1539732253681077,0.9460593575952316,-1.5564202334630863,-1.4953841458761872
1539732253697088,1.1291676203554744,-1.6174563210497581,-0.8239871824216607
1539732253713099,0.8239871824216607,-1.6174563210497581,0.2746623941404778
1539732253729110,0.5798428320745188,-1.8005645838102282,1.3122758831159445
1539732253745122,0.8850232700083325,-2.166781109330941,2.532997634851654
1539732253761133,1.0681315327688026,-2.5940337224383256,3.6316472114137923
1539732253777144,0.7629510948347615,-3.0212863355459376,4.42511635004189
1539732253793151,0.2746623941404778,-3.3264667734797513,4.852368963149502
1539732253809163,0.33569848172737693,-3.692683299000464,4.9134050507361735
1539732253825174,1.0681315327688026,-3.875791561760934,4.547188525215461
1539732253841185,1.4343480582895154,-3.4485389486533222,3.7537193865873633
1539732253857196,1.5564202334630863,-2.410925459678083,2.7161058976118966
1539732253873208,1.4953841458761872,-1.3122758831159445,1.739528496223329
1539732253889219,1.3733119707026162,-0.7629510948347615,1.0070954451819034
1539732253905230,1.0681315327688026,-0.45777065690094787,-0.03051804379333589
1539732253921241,1.1902037079423735,-0.45777065690094787,-1.2512397955290453
1539732253937253,1.5564202334630863,-0.3967345693140487,-2.655069810025225
1539732253953264,2.105745021744042,-0.3967345693140487,-3.875791561760934
1539732253969275,1.8005645838102282,-0.3967345693140487,-4.9134050507361735
1539732253985286,0.7629510948347615,-0.3967345693140487,-5.76791027695117
1539732254001298,0.2746623941404778,-0.33569848172737693,-6.805523765926637
1539732254017309,0.9460593575952316,-0.7019150072480898,-7.2938124666209205
1539732254033320,1.3122758831159445,-1.1291676203554744,-6.622415503166167
1539732254049331,0.2746623941404778,-0.8850232700083325,-5.3406576638437855
1539732254065343,-1.4343480582895154,0.09155413138023505,-3.936827649347606
1539732254081354,-2.4719615472647547,1.2512397955290453,-2.8381780727854675
1539732254097365,-2.227817196917613,2.105745021744042,-2.4719615472647547
1539732254113403,-1.0070954451819034,1.983672846570471,-2.3498893720911838
1539732254129415,0.5188067444876197,1.1291676203554744,-2.3498893720911838
1539732254145426,1.3122758831159445,-0.03051804379333589,-2.3498893720911838
1539732254161438,1.5564202334630863,-0.5798428320745188,-2.7161058976118966
1539732254177450,1.4343480582895154,-0.3967345693140487,-3.1433585107195086
1539732254193462,1.3122758831159445,-0.09155413138023505,-3.3875028610666504
1539732254209473,1.2512397955290453,-0.213626306553806,-3.3875028610666504
1539732254225485,1.4343480582895154,-0.8239871824216607,-3.0823224231326094
1539732254241497,1.739528496223329,-1.4343480582895154,-2.3498893720911838
1539732254257508,1.4953841458761872,-1.8616006713969,-1.4953841458761872
1539732254273520,0.8850232700083325,-1.9226367589837992,-0.5798428320745188
1539732254289532,0.213626306553806,-1.739528496223329,0.15259021896690683
1539732254305544,-0.15259021896690683,-1.6784924086366573,0.8850232700083325
1539732254321555,-0.09155413138023505,-2.105745021744042,1.5564202334630863
1539732254337567,0.2746623941404778,-2.9602502479590385,2.410925459678083
1539732254353579,0.5798428320745188,-4.058899824521177,3.570611123826893
1539732254369590,0.45777065690094787,-4.60822461280236,4.9134050507361735
1539732254385602,0.213626306553806,-4.60822461280236,5.645838101777599
1539732254401614,0.15259021896690683,-4.42511635004189,6.073090714885211
1539732254417626,0.7629510948347615,-4.730296787975931,6.317235065232353
1539732254433654,1.1902037079423735,-5.157549401083315,6.561379415579495
1539732254449666,0.7629510948347615,-5.157549401083315,6.683451590753066
1539732254465678,-0.213626306553806,-4.60822461280236,6.500343327992596
1539732254481690,-0.8239871824216607,-3.4485389486533222,5.706874189364498
1539732254497701,-0.6408789196611906,-2.166781109330941,4.303044174868319
1539732254513713,-0.33569848172737693,-1.2512397955290453,2.8992141603723667
1539732254529725,-0.5188067444876197,-0.8239871824216607,1.8005645838102282
1539732254545736,-0.7019150072480898,-0.8850232700083325,1.3733119707026162
1539732254561748,-0.9460593575952316,-1.0070954451819034,1.5564202334630863
1539732254577760,-1.3122758831159445,-0.7629510948347615,1.4343480582895154
1539732254593772,-1.4343480582895154,-0.213626306553806,1.0681315327688026
1539732254609783,-0.8239871824216607,-0.03051804379333589,0.6408789196611906
1539732254625795,0.33569848172737693,-0.2746623941404778,0.45777065690094787
1539732254641807,1.0681315327688026,-0.5798428320745188,0.3967345693140487
1539732254657818,0.8850232700083325,-0.6408789196611906,0.09155413138023505
1539732254673830,0.5798428320745188,-0.5188067444876197,-0.2746623941404778
1539732254689842,0.8850232700083325,-0.5798428320745188,-0.8850232700083325
1539732254705854,1.6784924086366573,-1.0681315327688026,-1.4953841458761872
1539732254721865,2.227817196917613,-1.6174563210497581,-1.983672846570471
1539732254737877,2.166781109330941,-2.04470893415737,-2.105745021744042
1539732254753936,1.2512397955290453,-1.739528496223329,-2.227817196917613
1539732254769948,0.5188067444876197,-1.1902037079423735,-2.5940337224383256
1539732254785960,0.45777065690094787,-0.8239871824216607,-3.0212863355459376
1539732254801972,0.9460593575952316,-1.0681315327688026,-3.4485389486533222
1539732254817983,1.4953841458761872,-1.6174563210497581,-3.814755474174035
1539732254833995,1.739528496223329,-2.532997634851654,-3.814755474174035
1539732254850007,1.9226367589837992,-3.570611123826893,-3.4485389486533222
1539732254866018,1.8005645838102282,-4.547188525215461,-2.4719615472647547
1539732254882030,1.1902037079423735,-4.791332875562603,-1.4953841458761872
1539732254898042,0.45777065690094787,-4.974441138323073,-0.7019150072480898
1539732254914054,0.09155413138023505,-5.0354772259097444,0.09155413138023505
1539732254930065,0.5798428320745188,-5.279621576256886,1.0070954451819034
1539732254946077,0.7629510948347615,-5.401693751430457,1.9226367589837992
1539732254962089,0.33569848172737693,-4.974441138323073,2.8992141603723667
1539732254978100,-0.2746623941404778,-4.303044174868319,3.814755474174035
1539732254994112,-0.45777065690094787,-3.875791561760934,5.096513313496644
1539732255010124,-0.33569848172737693,-3.936827649347606,6.256198977645454
1539732255026136,-0.09155413138023505,-3.936827649347606,6.805523765926637
1539732255042147,-0.03051804379333589,-3.7537193865873633,7.049668116273779
1539732255058159,-0.03051804379333589,-3.1433585107195086,6.683451590753066
1539732255074188,0.15259021896690683,-2.7771419851987957,6.195162890058782
1539732255090200,0.5188067444876197,-2.8381780727854675,5.76791027695117
1539732255106211,0.7629510948347615,-3.2654306858930795,5.279621576256886
1539732255122223,0.7019150072480898,-3.570611123826893,4.60822461280236
1539732255138235,0.6408789196611906,-3.692683299000464,3.692683299000464
1539732255154246,0.7019150072480898,-3.4485389486533222,2.7161058976118966
1539732255170258,0.8850232700083325,-3.1433585107195086,1.6784924086366573
1539732255186270,0.9460593575952316,-3.1433585107195086,1.0681315327688026
1539732255202282,0.5798428320745188,-3.5095750362402214,0.7629510948347615
1539732255218293,-0.03051804379333589,-3.692683299000464,0.09155413138023505
1539732255234305,-0.3967345693140487,-3.814755474174035,-0.8239871824216607
1539732255250317,-5.096513313496644,-12.4208438239109,3.814755474174035
1539732255266328,-20.660715648126825,-12.726024261844714,8.392462043183059
1539732255282340,-6.134126802471883,12.726024261844714,-17.24269474326684
1539732255298352,-2.227817196917613,18.036163881895163,-15.960936903944457
1539732255314364,12.054627298390187,13.153276874952326,-12.176699473563758
1539732255330375,9.002822919050914,0.5798428320745188,0.9460593575952316
1539732255346387,-5.462729839017356,-8.45349813076973,11.261158159761862
1539732255362399,-13.702601663233281,-12.4208438239109,12.726024261844714
1539732255378410,-15.167467765316132,-13.214312962538997,8.880750743877343
1539732255394409,-7.4158846417944915,-13.58052948805971,3.0212863355459376
1539732255410421,0.7019150072480898,-12.542915999084471,-1.5564202334630863
1539732255426432,4.42511635004189,-10.101472495613052,-3.936827649347606
1539732255442444,3.814755474174035,-6.8665598535133086,-4.974441138323073
1539732255458456,0.8850232700083325,-3.570611123826893,-5.584802014190927
1539732255474467,-1.5564202334630863,-1.4343480582895154,-6.073090714885211
1539732255490479,-2.4719615472647547,-0.3967345693140487,-5.706874189364498
1539732255506491,-2.166781109330941,-0.33569848172737693,-4.364080262455218
1539732255522503,-0.9460593575952316,-1.3122758831159445,-2.410925459678083
1539732255538514,0.5798428320745188,-2.4719615472647547,0.03051804379333589
1539732255554526,1.8005645838102282,-2.9602502479590385,2.7771419851987957
1539732255570538,2.227817196917613,-2.5940337224383256,4.9134050507361735
1539732255586549,1.739528496223329,-1.6174563210497581,5.76791027695117
1539732255602561,2.04470893415737,-0.9460593575952316,5.523765926604028
1539732255618573,3.2043945983061803,-0.7019150072480898,5.279621576256886
1539732255634585,4.242008087281647,-0.5798428320745188,4.974441138323073
1539732255650596,4.180971999694748,0.45777065690094787,4.242008087281647
1539732255666608,3.4485389486533222,2.288853284504512,3.0212863355459376
1539732255682620,2.8992141603723667,4.119935912108076,1.4343480582895154
1539732255698631,3.0823224231326094,5.0354772259097444,0.09155413138023505
1539732255714660,3.570611123826893,4.974441138323073,-0.7019150072480898
1539732255730672,3.5095750362402214,4.364080262455218,-0.8850232700083325
1539732255746684,3.0823224231326094,3.692683299000464,-0.8239871824216607
1539732255762695,2.532997634851654,3.1433585107195086,-0.5798428320745188
1539732255778707,2.04470893415737,2.5940337224383256,-0.3967345693140487
1539732255794719,1.8616006713969,1.8005645838102282,-0.09155413138023505
1539732255810731,2.04470893415737,0.6408789196611906,0.5798428320745188
1539732255826742,1.983672846570471,-0.7019150072480898,1.3122758831159445
1539732255842754,1.4343480582895154,-1.8616006713969,1.8005645838102282
1539732255858766,0.5798428320745188,-2.7771419851987957,1.983672846570471
1539732255874777,0.2746623941404778,-3.5095750362402214,1.8616006713969
1539732255890789,0.09155413138023505,-4.242008087281647,1.6174563210497581
1539732255906801,-0.213626306553806,-4.974441138323073,1.4953841458761872
1539732255922813,-0.7019150072480898,-5.523765926604028,1.3733119707026162
1539732255938824,-1.3122758831159445,-5.76791027695117,1.0070954451819034
1539732255954836,-1.2512397955290453,-5.401693751430457,0.2746623941404778
1539732255970848,-0.8239871824216607,-4.730296787975931,-0.33569848172737693
1539732255986859,-0.45777065690094787,-3.997863736934505,-0.5188067444876197
1539732256002871,-0.5798428320745188,-3.4485389486533222,-0.213626306553806
1539732256018883,-0.7019150072480898,-3.0212863355459376,0.45777065690094787
1539732256034912,-0.5188067444876197,-2.7771419851987957,1.0681315327688026
1539732256050923,0.09155413138023505,-2.9602502479590385,1.8005645838102282
1539732256066935,0.7629510948347615,-3.7537193865873633,2.8992141603723667
1539732256082947,0.5798428320745188,-4.42511635004189,4.242008087281647
1539732256098959,-0.7629510948347615,-4.486152437628789,5.096513313496644
1539732256114970,-2.288853284504512,-4.058899824521177,4.974441138323073
1539732256130982,-2.166781109330941,-3.5095750362402214,3.997863736934505
1539732256146994,-0.33569848172737693,-3.3875028610666504,2.655069810025225
1539732256163005,1.0681315327688026,-3.3264667734797513,1.6784924086366573
1539732256179017,0.7629510948347615,-2.288853284504512,0.5188067444876197
1539732256195029,-0.213626306553806,0.2746623941404778,-1.0070954451819034
1539732256211041,-0.33569848172737693,2.166781109330941,-1.9226367589837992
1539732256227052,0.3967345693140487,1.6784924086366573,-1.5564202334630863
1539732256243064,1.3733119707026162,-0.8850232700083325,-0.09155413138023505
1539732256259076,1.8616006713969,-3.875791561760934,1.6174563210497581
1539732256275087,1.6784924086366573,-5.401693751430457,2.5940337224383256
1539732256291099,0.6408789196611906,-4.303044174868319,2.166781109330941
1539732256307111,-0.7019150072480898,-1.983672846570471,0.7019150072480898
1539732256323123,-1.1902037079423735,-0.45777065690094787,-0.5798428320745188
1539732256339134,-0.3967345693140487,-0.7629510948347615,-1.2512397955290453
1539732256355194,0.9460593575952316,-1.9226367589837992,-1.2512397955290453
1539732256371206,1.5564202334630863,-2.410925459678083,-1.0070954451819034
1539732256387218,1.0681315327688026,-1.9226367589837992,-0.6408789196611906
1539732256403230,0.09155413138023505,-1.2512397955290453,0.15259021896690683
1539732256419242,-0.2746623941404778,-1.3122758831159445,1.3733119707026162
1539732256435255,0.15259021896690683,-2.105745021744042,2.5940337224383256
1539732256451267,0.7629510948347615,-2.532997634851654,3.0823224231326094
1539732256467279,1.1291676203554744,-2.288853284504512,3.0212863355459376
1539732256483291,0.7629510948347615,-1.5564202334630863,2.7161058976118966
1539732256499303,0.03051804379333589,-1.1291676203554744,2.5940337224383256
1539732256515316,-0.2746623941404778,-0.9460593575952316,2.410925459678083
1539732256531328,0.15259021896690683,-1.0681315327688026,2.105745021744042
1539732256547340,0.8239871824216607,-1.0070954451819034,1.6174563210497581
1539732256563352,0.9460593575952316,-0.8239871824216607,1.1902037079423735
1539732256579364,0.5188067444876197,-0.8239871824216607,1.0070954451819034
1539732256595377,0.09155413138023505,-0.9460593575952316,0.7629510948347615
1539732256611389,0.2746623941404778,-1.1291676203554744,0.3967345693140487
1539732256627401,1.0070954451819034,-1.3733119707026162,0.03051804379333589
1539732256643413,1.5564202334630863,-1.9226367589837992,-0.213626306553806
1539732256659425,2.04470893415737,-2.655069810025225,-0.03051804379333589
1539732256675415,2.105745021744042,-3.6316472114137923,0.6408789196611906
1539732256691427,1.5564202334630863,-4.242008087281647,1.1902037079423735
1539732256707439,0.8239871824216607,-4.242008087281647,1.0070954451819034
1539732256723451,0.8239871824216607,-3.814755474174035,0.213626306553806
1539732256739463,1.5564202334630863,-3.6316472114137923,-0.5798428320745188
1539732256755476,1.8616006713969,-3.5095750362402214,-1.2512397955290453
1539732256771488,1.3122758831159445,-3.2654306858930795,-1.983672846570471
1539732256787500,1.0070954451819034,-2.8992141603723667,-2.5940337224383256
1539732256803512,1.4953841458761872,-2.7771419851987957,-2.7161058976118966
1539732256819524,1.6174563210497581,-2.7161058976118966,-2.7161058976118966
1539732256835537,1.0681315327688026,-2.410925459678083,-2.655069810025225
1539732256851549,0.5798428320745188,-2.166781109330941,-2.410925459678083
1539732256867561,0.8239871824216607,-2.288853284504512,-2.04470893415737
1539732256883573,1.4953841458761872,-2.532997634851654,-1.6784924086366573
1539732256899585,1.8005645838102282,-2.7161058976118966,-1.4343480582895154
1539732256915598,1.6174563210497581,-2.7771419851987957,-1.1902037079423735
1539732256931610,1.3122758831159445,-2.9602502479590385,-0.7629510948347615
1539732256947622,1.2512397955290453,-2.8992141603723667,-0.45777065690094787
1539732256963634,1.3122758831159445,-2.5940337224383256,-0.2746623941404778
1539732256979646,1.5564202334630863,-2.166781109330941,-0.213626306553806
1539732256995666,1.739528496223329,-1.9226367589837992,0.09155413138023505
1539732257011678,1.6784924086366573,-1.8005645838102282,0.7019150072480898
1539732257027691,1.4343480582895154,-1.739528496223329,1.3733119707026162
1539732257043703,1.0070954451819034,-1.4343480582895154,1.8005645838102282
1539732257059715,1.1291676203554744,-1.2512397955290453,1.983672846570471
1539732257075727,1.6784924086366573,-1.1291676203554744,1.983672846570471
1539732257091739,2.04470893415737,-1.4343480582895154,2.288853284504512
1539732257107751,1.8005645838102282,-1.8005645838102282,2.532997634851654
1539732257123764,1.0681315327688026,-1.9226367589837992,2.410925459678083
1539732257139776,0.7019150072480898,-1.8005645838102282,1.8616006713969
1539732257155788,1.0070954451819034,-1.739528496223329,1.2512397955290453
1539732257171800,1.4343480582895154,-1.739528496223329,0.7629510948347615
1539732257187812,1.2512397955290453,-1.6784924086366573,0.5798428320745188
1539732257203825,0.7019150072480898,-1.5564202334630863,0.3967345693140487
1539732257219837,0.33569848172737693,-1.4953841458761872,0.213626306553806
1539732257235849,0.5188067444876197,-1.4343480582895154,0.09155413138023505
1539732257251861,0.8850232700083325,-1.6174563210497581,0.03051804379333589
1539732257267873,1.3733119707026162,-2.166781109330941,0.3967345693140487
1539732257283886,1.739528496223329,-2.8992141603723667,1.1902037079423735
1539732257299898,1.5564202334630863,-3.2654306858930795,1.983672846570471
1539732257315887,0.5798428320745188,-2.9602502479590385,2.288853284504512
1539732257331899,-0.03051804379333589,-2.532997634851654,2.288853284504512
1539732257347911,0.33569848172737693,-2.655069810025225,2.227817196917613
1539732257363924,1.4343480582895154,-3.3264667734797513,2.4719615472647547
1539732257379936,1.5564202334630863,-3.814755474174035,2.8381780727854675
1539732257395948,0.7629510948347615,-3.5095750362402214,2.8381780727854675
1539732257411960,0.33569848172737693,-2.7771419851987957,2.7161058976118966
1539732257427972,0.5798428320745188,-2.4719615472647547,2.655069810025225
1539732257443985,0.8850232700083325,-2.7771419851987957,2.5940337224383256
1539732257459997,0.8239871824216607,-3.0212863355459376,2.288853284504512
1539732257476009,0.6408789196611906,-2.9602502479590385,1.8616006713969
1539732257492021,0.6408789196611906,-2.8992141603723667,1.4343480582895154
1539732257508033,0.5798428320745188,-2.8992141603723667,0.8850232700083325
1539732257524046,0.3967345693140487,-2.9602502479590385,0.2746623941404778
1539732257540058,0.5188067444876197,-2.8992141603723667,-0.33569848172737693
1539732257556070,0.8850232700083325,-3.0823224231326094,-0.8239871824216607
1539732257572082,1.0070954451819034,-3.1433585107195086,-0.9460593575952316
1539732257588094,0.7019150072480898,-2.8381780727854675,-0.8239871824216607
1539732257604107,0.33569848172737693,-2.3498893720911838,-0.5798428320745188
1539732257620119,0.213626306553806,-1.9226367589837992,-0.2746623941404778
1539732257636139,0.3967345693140487,-1.5564202334630863,0.03051804379333589
1539732257652151,0.6408789196611906,-1.5564202334630863,0.33569848172737693
1539732257668163,0.5798428320745188,-1.4953841458761872,0.6408789196611906
1539732257684175,0.09155413138023505,-1.0681315327688026,0.6408789196611906
1539732257700187,0.09155413138023505,-0.7019150072480898,0.5188067444876197
1539732257716199,0.5798428320745188,-0.5188067444876197,0.5188067444876197
1539732257732212,0.9460593575952316,-0.7019150072480898,0.6408789196611906
1539732257748224,0.8850232700083325,-0.7629510948347615,0.7019150072480898
1539732257764236,0.213626306553806,-0.6408789196611906,0.7629510948347615
1539732257780248,-0.09155413138023505,-0.5188067444876197,0.5798428320745188
1539732257796260,0.15259021896690683,-0.5798428320745188,0.2746623941404778
1539732257812273,0.5798428320745188,-1.0070954451819034,0.15259021896690683
1539732257828285,0.8239871824216607,-1.8005645838102282,0.15259021896690683
1539732257844297,0.7629510948347615,-2.4719615472647547,0.15259021896690683
1539732257860309,0.3967345693140487,-2.7771419851987957,-0.03051804379333589
1539732257876321,0.45777065690094787,-2.8992141603723667,-0.45777065690094787
1539732257892334,1.0681315327688026,-3.0823224231326094,-0.8239871824216607
1539732257908346,1.3122758831159445,-3.1433585107195086,-1.0070954451819034
1539732257924358,0.7629510948347615,-2.9602502479590385,-1.0070954451819034
1539732257940370,-0.03051804379333589,-2.410925459678083,-0.8850232700083325
1539732257956390,-0.33569848172737693,-1.8616006713969,-0.6408789196611906
1539732257972402,-0.2746623941404778,-1.4953841458761872,-0.45777065690094787
1539732257988414,-0.09155413138023505,-1.3733119707026162,-0.09155413138023505
1539732258004427,0.3967345693140487,-1.8005645838102282,0.7019150072480898
1539732258020439,1.0070954451819034,-2.288853284504512,1.5564202334630863
1539732258036451,1.0070954451819034,-2.166781109330941,2.227817196917613
1539732258052463,0.5188067444876197,-1.3733119707026162,2.4719615472647547
1539732258068475,0.2746623941404778,-0.45777065690094787,2.288853284504512
1539732258084488,0.6408789196611906,-0.03051804379333589,2.04470893415737
1539732258100500,1.1291676203554744,-0.213626306553806,1.739528496223329
1539732258116512,1.3733119707026162,-0.5188067444876197,1.2512397955290453
1539732258132524,1.3733119707026162,-0.7629510948347615,0.7019150072480898
1539732258148536,1.1291676203554744,-0.8239871824216607,0.213626306553806
1539732258164548,0.9460593575952316,-0.7629510948347615,-0.03051804379333589
1539732258180561,0.5798428320745188,-0.8850232700083325,-0.2746623941404778
1539732258196573,0.213626306553806,-1.1902037079423735,-0.5798428320745188
1539732258212585,0.5798428320745188,-1.983672846570471,-0.8239871824216607
1539732258228597,1.2512397955290453,-3.0212863355459376,-0.45777065690094787
1539732258244609,1.0070954451819034,-3.5095750362402214,-0.03051804379333589
1539732258260622,-0.15259021896690683,-2.8381780727854675,0.03051804379333589
1539732258276641,-1.0070954451819034,-1.5564202334630863,-0.09155413138023505
1539732258292654,-0.7019150072480898,-0.8239871824216607,0.03051804379333589
1539732258308666,-0.213626306553806,-1.3733119707026162,0.8239871824216607
1539732258324678,-0.3967345693140487,-2.5940337224383256,1.9226367589837992
1539732258340690,-0.8239871824216607,-3.570611123826893,3.0823224231326094
1539732258356702,-0.8239871824216607,-3.936827649347606,3.875791561760934
1539732258372715,-0.2746623941404778,-4.180971999694748,4.180971999694748
1539732258388727,0.45777065690094787,-4.303044174868319,4.303044174868319
1539732258404739,0.8850232700083325,-4.42511635004189,4.42511635004189
1539732258420751,0.7019150072480898,-4.242008087281647,4.42511635004189
1539732258436763,0.3967345693140487,-3.570611123826893,4.119935912108076
1539732258452776,0.2746623941404778,-3.0823224231326094,3.6316472114137923
1539732258468788,0.33569848172737693,-2.9602502479590385,3.0823224231326094
1539732258484800,0.6408789196611906,-2.7771419851987957,2.3498893720911838
1539732258500812,0.7629510948347615,-2.288853284504512,1.4343480582895154
1539732258516824,0.8239871824216607,-1.8616006713969,0.7629510948347615
1539732258532837,0.6408789196611906,-1.9226367589837992,0.3967345693140487
1539732258548849,0.5188067444876197,-2.410925459678083,0.213626306553806
1539732258564861,0.7019150072480898,-2.8381780727854675,-0.213626306553806
1539732258580873,0.6408789196611906,-3.0823224231326094,-0.5798428320745188
1539732258596893,0.5188067444876197,-3.2043945983061803,-0.8850232700083325
1539732258612905,0.3967345693140487,-3.0823224231326094,-1.1291676203554744
1539732258628917,0.5188067444876197,-3.0212863355459376,-1.4343480582895154
1539732258644930,0.5188067444876197,-2.7161058976118966,-1.8616006713969
1539732258660942,0.45777065690094787,-1.9226367589837992,-2.410925459678083
1539732258676954,0.5188067444876197,-1.1902037079423735,-2.655069810025225
1539732258692966,0.5188067444876197,-1.1902037079423735,-2.166781109330941
1539732258708978,0.5798428320745188,-1.9226367589837992,-1.4343480582895154
1539732258724990,0.7019150072480898,-2.7771419851987957,-0.7019150072480898
1539732258741003,1.0070954451819034,-3.2654306858930795,-0.15259021896690683
1539732258757015,1.3733119707026162,-3.3264667734797513,0.33569848172737693
1539732258773027,1.6174563210497581,-3.3264667734797513,1.0681315327688026
1539732258789039,1.6784924086366573,-3.875791561760934,2.04470893415737
1539732258805051,1.9226367589837992,-4.791332875562603,2.9602502479590385
1539732258821064,2.655069810025225,-6.073090714885211,3.7537193865873633
1539732258837076,2.8992141603723667,-7.354848554207592,4.242008087281647
1539732258853088,1.6784924086366573,-7.904173342488775,3.997863736934505
1539732258869100,-0.213626306553806,-6.805523765926637,2.227817196917613
1539732258885112,-0.5798428320745188,-4.791332875562603,-0.5188067444876197
1539732258901125,0.6408789196611906,-3.0212863355459376,-2.9602502479590385
1539732258917144,1.739528496223329,-1.6174563210497581,-4.486152437628789
1539732258933157,1.3733119707026162,-0.7629510948347615,-4.974441138323073
1539732258949169,0.09155413138023505,0.03051804379333589,-4.364080262455218
1539732258965181,-0.5798428320745188,0.6408789196611906,-3.4485389486533222
1539732258981193,0.213626306553806,0.8239871824216607,-2.655069810025225
1539732258997205,1.739528496223329,0.45777065690094787,-1.4343480582895154
1539732259013218,2.7771419851987957,-0.33569848172737693,0.3967345693140487
1539732259029230,2.3498893720911838,-1.0681315327688026,2.3498893720911838
1539732259045242,1.1902037079423735,-1.4343480582895154,3.875791561760934
1539732259061254,1.0070954451819034,-1.6784924086366573,4.303044174868319
1539732259077266,2.410925459678083,-2.4719615472647547,4.303044174868319
1539732259093279,3.6316472114137923,-3.692683299000464,4.42511635004189
1539732259109291,3.2654306858930795,-4.852368963149502,4.303044174868319
1539732259125303,1.739528496223329,-4.974441138323073,3.875791561760934
1539732259141315,0.3967345693140487,-4.242008087281647,2.8381780727854675
1539732259157327,-0.09155413138023505,-3.3264667734797513,0.9460593575952316
1539732259173339,0.33569848172737693,-2.7161058976118966,-1.0681315327688026
1539732259189352,1.1902037079423735,-2.288853284504512,-2.4719615472647547
1539732259205364,1.6784924086366573,-2.166781109330941,-2.7771419851987957
1539732259221376,1.1902037079423735,-1.8616006713969,-2.288853284504512
1539732259237396,0.3967345693140487,-1.4343480582895154,-1.6174563210497581
1539732259253408,0.45777065690094787,-1.1902037079423735,-0.8850232700083325
1539732259269420,1.3733119707026162,-1.8616006713969,0.15259021896690683
1539732259285432,2.410925459678083,-2.8992141603723667,1.3733119707026162
1539732259301445,2.532997634851654,-3.570611123826893,2.4719615472647547
1539732259317457,2.04470893415737,-3.570611123826893,2.9602502479590385
1539732259333469,1.8005645838102282,-3.2654306858930795,2.655069810025225
1539732259349481,2.410925459678083,-2.8992141603723667,1.739528496223329
1539732259365493,3.0823224231326094,-2.7771419851987957,0.6408789196611906
1539732259381506,3.0212863355459376,-2.532997634851654,-0.3967345693140487
1539732259397518,2.166781109330941,-2.105745021744042,-1.0681315327688026
1539732259413530,1.2512397955290453,-1.5564202334630863,-1.6174563210497581
1539732259429542,1.1902037079423735,-1.3122758831159445,-2.105745021744042
1539732259445554,1.4343480582895154,-1.3122758831159445,-2.4719615472647547
1539732259461567,1.6784924086366573,-1.4343480582895154,-2.5940337224383256
1539732259477579,1.8005645838102282,-1.3733119707026162,-2.532997634851654
1539732259493591,1.739528496223329,-1.4343480582895154,-1.983672846570471
1539732259509603,1.1902037079423735,-1.6784924086366573,-1.1291676203554744
1539732259525615,0.6408789196611906,-1.983672846570471,-0.45777065690094787
1539732259541628,0.7629510948347615,-1.983672846570471,-0.213626306553806
1539732259557647,1.6174563210497581,-1.8005645838102282,-0.03051804379333589
1539732259573660,2.166781109330941,-1.983672846570471,0.5188067444876197
1539732259589672,1.5564202334630863,-2.288853284504512,1.5564202334630863
1539732259605684,0.45777065690094787,-2.7161058976118966,2.3498893720911838
1539732259621696,0.2746623941404778,-3.0823224231326094,2.7161058976118966
1539732259637708,1.0681315327688026,-3.570611123826893,2.7771419851987957
1539732259653720,1.4953841458761872,-3.936827649347606,2.655069810025225
1539732259669733,1.0681315327688026,-3.692683299000464,2.288853284504512
1539732259685745,0.6408789196611906,-3.2043945983061803,1.6174563210497581
1539732259701757,0.6408789196611906,-2.8381780727854675,0.8850232700083325
1539732259717769,1.1291676203554744,-2.7161058976118966,0.3967345693140487
1539732259733781,1.3122758831159445,-2.532997634851654,0.213626306553806
1539732259749794,0.8239871824216607,-1.8616006713969,0.3967345693140487
1539732259765806,0.15259021896690683,-1.2512397955290453,0.6408789196611906
1539732259781818,0.2746623941404778,-1.4343480582895154,1.1902037079423735
1539732259797830,1.0070954451819034,-2.288853284504512,2.04470893415737
1539732259813842,1.2512397955290453,-3.0823224231326094,2.655069810025225
1539732259829855,0.8850232700083325,-3.2043945983061803,2.655069810025225
1539732259845867,0.8239871824216607,-2.532997634851654,2.166781109330941
1539732259861879,1.1291676203554744,-2.04470893415737,1.5564202334630863
1539732259877899,1.2512397955290453,-1.9226367589837992,1.1291676203554744
1539732259893911,0.8239871824216607,-1.8005645838102282,0.5188067444876197
1539732259909923,0.45777065690094787,-1.6784924086366573,-0.213626306553806
1539732259925935,0.5188067444876197,-1.6174563210497581,-0.6408789196611906
1539732259941948,0.7019150072480898,-2.04470893415737,-0.8239871824216607
1539732259957960,0.6408789196611906,-2.4719615472647547,-1.0070954451819034
1539732259973972,0.5188067444876197,-2.655069810025225,-1.0681315327688026
1539732259989984,0.6408789196611906,-3.0823224231326094,-1.1902037079423735
1539732260005996,1.0681315327688026,-3.5095750362402214,-0.9460593575952316
1539732260022009,1.0681315327688026,-3.6316472114137923,-0.33569848172737693
1539732260038021,0.5188067444876197,-3.4485389486533222,0.213626306553806
1539732260054033,0.15259021896690683,-3.0212863355459376,0.3967345693140487
1539732260070045,0.5188067444876197,-2.7161058976118966,0.5798428320745188
1539732260086057,1.0070954451819034,-2.532997634851654,0.8239871824216607
1539732260102069,1.0070954451819034,-2.410925459678083,1.0681315327688026
1539732260118082,0.45777065690094787,-1.983672846570471,1.1902037079423735
1539732260134094,0.2746623941404778,-1.5564202334630863,1.1291676203554744
1539732260150106,0.6408789196611906,-1.5564202334630863,1.1291676203554744
1539732260166118,0.9460593575952316,-1.9226367589837992,1.2512397955290453
1539732260182130,0.6408789196611906,-2.166781109330941,1.2512397955290453
1539732260198150,-0.03051804379333589,-1.739528496223329,0.7629510948347615
1539732260214162,-0.33569848172737693,-1.0070954451819034,0.03051804379333589
1539732260230175,0.09155413138023505,-0.3967345693140487,-0.6408789196611906
1539732260246187,0.7019150072480898,-0.3967345693140487,-0.7019150072480898
1539732260262199,0.7629510948347615,-0.5798428320745188,-0.213626306553806
1539732260278211,0.2746623941404778,-0.5188067444876197,0.3967345693140487
1539732260294223,0.3967345693140487,-0.2746623941404778,1.0070954451819034
1539732260310236,1.0681315327688026,-0.45777065690094787,2.04470893415737
1539732260326248,1.2512397955290453,-1.0681315327688026,3.2043945983061803
1539732260342260,0.8850232700083325,-1.6784924086366573,4.486152437628789
1539732260358272,0.45777065690094787,-2.288853284504512,5.279621576256886
1539732260374284,0.2746623941404778,-2.7161058976118966,5.157549401083315
1539732260390297,0.5188067444876197,-3.0212863355459376,4.486152437628789
1539732260406309,0.7019150072480898,-3.0823224231326094,3.3875028610666504
1539732260422321,0.8239871824216607,-2.7771419851987957,2.166781109330941
1539732260438333,0.5188067444876197,-1.8616006713969,0.8850232700083325
1539732260454345,0.5188067444876197,-0.6408789196611906,-0.213626306553806
1539732260470358,0.5798428320745188,0.213626306553806,-0.7629510948347615
1539732260486370,0.6408789196611906,0.2746623941404778,-0.8239871824216607
1539732260502382,0.5188067444876197,-0.2746623941404778,-0.5798428320745188
1539732260518402,0.6408789196611906,-0.6408789196611906,-0.3967345693140487
1539732260534414,1.2512397955290453,-1.3122758831159445,0.03051804379333589
1539732260550426,1.4343480582895154,-2.3498893720911838,1.0681315327688026
1539732260566438,0.5798428320745188,-3.0212863355459376,1.8005645838102282
1539732260582450,-0.213626306553806,-2.8992141603723667,1.3122758831159445
1539732260598463,0.45777065690094787,-2.4719615472647547,0.213626306553806
1539732260614475,1.6174563210497581,-2.532997634851654,-0.5188067444876197
1539732260630487,1.6174563210497581,-2.655069810025225,-0.6408789196611906
1539732260646499,0.213626306553806,-2.5940337224383256,-0.45777065690094787
1539732260662511,-1.0681315327688026,-2.105745021744042,-0.5798428320745188
1539732260678524,-0.7629510948347615,-1.5564202334630863,-1.3733119707026162
1539732260694536,0.3967345693140487,-1.8005645838102282,-1.8616006713969
1539732260710548,0.7629510948347615,-2.8992141603723667,-1.6174563210497581
1539732260726560,-0.33569848172737693,-3.570611123826893,-1.3733119707026162
1539732260742572,-1.0681315327688026,-3.0212863355459376,-1.8616006713969
1539732260758585,-0.15259021896690683,-1.739528496223329,-2.5940337224383256
1539732260774597,1.6174563210497581,-0.9460593575952316,-2.5940337224383256
1539732260790609,2.166781109330941,-1.2512397955290453,-1.1291676203554744
1539732260806621,0.9460593575952316,-1.8616006713969,1.1291676203554744
1539732260822633,-0.8850232700083325,-1.983672846570471,2.7771419851987957
1539732260838684,-1.0070954451819034,-1.6174563210497581,3.2043945983061803
1539732260854696,0.8239871824216607,-1.6784924086366573,2.8992141603723667
1539732260870708,2.532997634851654,-2.288853284504512,2.8992141603723667
1539732260886720,2.3498893720911838,-2.655069810025225,3.0212863355459376
1539732260902732,0.5798428320745188,-2.288853284504512,2.7771419851987957
1539732260918745,-0.33569848172737693,-1.3122758831159445,1.6784924086366573
1539732260934757,0.33569848172737693,-0.5188067444876197,0.33569848172737693
1539732260950769,1.4343480582895154,-0.6408789196611906,-0.2746623941404778
1539732260966781,1.3122758831159445,-1.739528496223329,0.2746623941404778
1539732260982793,0.213626306553806,-2.8381780727854675,1.2512397955290453
1539732260998806,-0.15259021896690683,-3.0212863355459376,1.3122758831159445
1539732261014818,1.3122758831159445,-3.1433585107195086,1.0070954451819034
1539732261030830,2.655069810025225,-3.7537193865873633,1.4343480582895154
1539732261046842,2.410925459678083,-4.42511635004189,2.532997634851654
1539732261062854,0.8850232700083325,-4.486152437628789,3.4485389486533222
1539732261078867,0.15259021896690683,-4.303044174868319,3.570611123826893
1539732261094879,0.5188067444876197,-4.242008087281647,3.1433585107195086
1539732261110891,0.8239871824216607,-4.180971999694748,2.166781109330941
1539732261126903,0.7629510948347615,-3.875791561760934,1.0681315327688026
1539732261142915,0.7629510948347615,-3.4485389486533222,0.213626306553806
1539732261158935,0.5188067444876197,-3.0212863355459376,-0.213626306553806
1539732261174947,0.2746623941404778,-2.532997634851654,-0.7629510948347615
1539732261190960,0.03051804379333589,-2.3498893720911838,-0.7629510948347615
1539732261206972,-0.09155413138023505,-2.227817196917613,-0.5188067444876197
1539732261222984,0.213626306553806,-2.105745021744042,-0.2746623941404778
1539732261238996,0.7629510948347615,-2.105745021744042,0.213626306553806
1539732261255008,0.8239871824216607,-2.04470893415737,1.0070954451819034
1539732261271021,0.33569848172737693,-1.739528496223329,1.3122758831159445
1539732261287033,0.33569848172737693,-1.1291676203554744,1.1902037079423735
1539732261303045,1.6784924086366573,-1.0070954451819034,1.0681315327688026
1539732261319057,2.7771419851987957,-1.6174563210497581,1.6174563210497581
1539732261335069,2.04470893415737,-2.105745021744042,2.3498893720911838
1539732261351081,0.6408789196611906,-2.04470893415737,2.166781109330941
1539732261367094,0.45777065690094787,-1.4343480582895154,1.1902037079423735
1539732261383106,1.4343480582895154,-0.8239871824216607,-0.33569848172737693
1539732261399118,2.04470893415737,-0.3967345693140487,-1.5564202334630863
1539732261415130,1.5564202334630863,-0.2746623941404778,-1.8005645838102282
1539732261431142,0.213626306553806,-0.5798428320745188,-1.4343480582895154
1539732261447155,-0.7629510948347615,-0.8850232700083325,-1.5564202334630863
1539732261463167,-0.213626306553806,-1.2512397955290453,-2.166781109330941
1539732261479156,1.6174563210497581,-1.9226367589837992,-2.4719615472647547
1539732261495168,2.5940337224383256,-2.9602502479590385,-1.9226367589837992
1539732261511181,1.8005645838102282,-3.570611123826893,-0.7629510948347615
1539732261527193,0.3967345693140487,-3.570611123826893,0.3967345693140487
1539732261543205,-0.213626306553806,-3.692683299000464,0.8850232700083325
1539732261559217,0.7629510948347615,-4.058899824521177,0.7629510948347615
1539732261575229,2.5940337224383256,-4.730296787975931,0.6408789196611906
1539732261591241,3.1433585107195086,-5.279621576256886,1.0681315327688026
1539732261607254,1.4343480582895154,-4.486152437628789,1.2512397955290453
1539732261623266,-0.33569848172737693,-2.5940337224383256,0.6408789196611906
1539732261639278,-0.213626306553806,-1.0681315327688026,0.03051804379333589
1539732261655290,0.7019150072480898,-0.5798428320745188,-0.09155413138023505
1539732261671302,0.5188067444876197,-0.33569848172737693,0.09155413138023505
1539732261687315,-0.213626306553806,0.213626306553806,0.3967345693140487
1539732261703327,-0.213626306553806,0.6408789196611906,0.8850232700083325
1539732261719339,0.5798428320745188,0.15259021896690683,1.983672846570471
1539732261735351,0.8239871824216607,-1.2512397955290453,3.5095750362402214
1539732261751363,0.2746623941404778,-2.3498893720911838,4.486152437628789
1539732261767376,0.6408789196611906,-3.0212863355459376,4.669260700389032
1539732261783388,1.8005645838102282,-3.814755474174035,4.852368963149502
1539732261799408,1.983672846570471,-4.669260700389032,5.157549401083315
1539732261815420,0.15259021896690683,-4.730296787975931,4.791332875562603
1539732261831432,-1.8616006713969,-3.7537193865873633,3.1433585107195086
1539732261847444,-1.739528496223329,-2.655069810025225,0.5188067444876197
1539732261863456,0.15259021896690683,-1.983672846570471,-2.227817196917613
1539732261879469,1.739528496223329,-2.04470893415737,-3.814755474174035
1539732261895481,0.9460593575952316,-2.227817196917613,-3.875791561760934
1539732261911493,-1.4953841458761872,-1.9226367589837992,-3.5095750362402214
1539732261927505,-2.655069810025225,-1.0681315327688026,-3.5095750362402214
1539732261943517,-1.0681315327688026,-0.7019150072480898,-3.5095750362402214
1539732261959530,1.4953841458761872,-1.3733119707026162,-2.532997634851654
1539732261975542,2.227817196917613,-2.7161058976118966,-0.2746623941404778
1539732261991554,0.3967345693140487,-3.2654306858930795,2.288853284504512
1539732262007566,-1.3122758831159445,-3.0212863355459376,3.7537193865873633
1539732262023578,-0.8239871824216607,-2.8992141603723667,4.303044174868319
1539732262039590,1.0070954451819034,-3.3875028610666504,4.303044174868319
1539732262055603,2.105745021744042,-3.936827649347606,3.997863736934505
1539732262071615,1.983672846570471,-3.692683299000464,3.3264667734797513
1539732262087627,1.1291676203554744,-2.5940337224383256,2.410925459678083
1539732262103639,1.0681315327688026,-1.6174563210497581,1.3122758831159445
1539732262119659,1.8005645838102282,-1.6174563210497581,1.0681315327688026
1539732262135671,1.6784924086366573,-1.9226367589837992,1.4343480582895154
1539732262151683,0.5798428320745188,-1.4953841458761872,1.3122758831159445
1539732262167696,-0.03051804379333589,-0.7019150072480898,1.0070954451819034
1539732262183708,0.7629510948347615,-0.9460593575952316,0.9460593575952316
1539732262199720,1.3122758831159445,-2.532997634851654,1.6174563210497581
1539732262215732,-1.1902037079423735,-3.814755474174035,2.8992141603723667
1539732262231744,-2.4719615472647547,-3.692683299000464,3.570611123826893
1539732262247757,0.15259021896690683,-3.0212863355459376,3.0823224231326094
1539732262263769,2.7771419851987957,-2.8381780727854675,2.655069810025225
1539732262279781,1.6174563210497581,-3.0212863355459376,3.0823224231326094
1539732262295793,0.8850232700083325,-3.0823224231326094,2.8992141603723667
1539732262311805,1.5564202334630863,-3.0212863355459376,2.105745021744042
1539732262327818,2.227817196917613,-3.0212863355459376,1.6784924086366573
1539732262343830,2.166781109330941,-2.9602502479590385,1.3733119707026162
1539732262359842,1.0681315327688026,-2.532997634851654,0.8850232700083325
1539732262375854,0.3967345693140487,-1.8616006713969,-0.03051804379333589
1539732262391866,1.0681315327688026,-1.2512397955290453,-1.0681315327688026
1539732262407879,1.9226367589837992,-0.7629510948347615,-1.6174563210497581
1539732262423891,1.983672846570471,-0.7019150072480898,-1.5564202334630863
1539732262439911,1.3122758831159445,-0.9460593575952316,-0.8850232700083325
1539732262455923,0.6408789196611906,-1.0070954451819034,-0.33569848172737693
1539732262471935,0.7019150072480898,-0.8850232700083325,-0.03051804379333589
1539732262487947,1.1291676203554744,-0.7019150072480898,-0.03051804379333589
1539732262503959,1.6784924086366573,-0.5798428320745188,-0.09155413138023505
1539732262519971,2.04470893415737,-0.9460593575952316,0.213626306553806
1539732262535984,1.6174563210497581,-1.4953841458761872,0.8239871824216607
1539732262551996,0.6408789196611906,-1.6174563210497581,1.1291676203554744
1539732262568008,0.3967345693140487,-1.3733119707026162,0.8850232700083325
1539732262584020,1.1902037079423735,-1.6784924086366573,0.5798428320745188
1539732262600032,1.6784924086366573,-2.3498893720911838,0.5798428320745188
1539732262616045,1.1291676203554744,-2.655069810025225,0.5798428320745188
1539732262632057,-0.03051804379333589,-2.532997634851654,0.33569848172737693
1539732262648069,-0.3967345693140487,-2.288853284504512,-0.03051804379333589
1539732262664081,0.3967345693140487,-2.04470893415737,-0.5188067444876197
1539732262680093,1.5564202334630863,-2.3498893720911838,-0.45777065690094787
1539732262696106,1.6784924086366573,-3.0212863355459376,0.3967345693140487
1539732262712118,0.6408789196611906,-3.692683299000464,1.4343480582895154
1539732262728130,-0.45777065690094787,-4.119935912108076,2.166781109330941
1539732262744142,-0.45777065690094787,-4.180971999694748,2.105745021744042
1539732262760162,0.7019150072480898,-4.058899824521177,1.6784924086366573
1539732262776174,1.5564202334630863,-3.997863736934505,1.6784924086366573
1539732262792186,0.8850232700083325,-3.3875028610666504,1.8616006713969
1539732262808199,-0.8239871824216607,-2.227817196917613,1.6784924086366573
1539732262824211,-1.6174563210497581,-1.1902037079423735,1.0681315327688026
1539732262840223,-0.33569848172737693,-0.9460593575952316,0.7019150072480898
1539732262856235,1.1902037079423735,-1.4953841458761872,0.9460593575952316
1539732262872247,0.8850232700083325,-1.739528496223329,1.4343480582895154
1539732262888260,-0.45777065690094787,-1.1902037079423735,1.5564202334630863
1539732262904272,-0.8850232700083325,-0.213626306553806,1.1902037079423735
1539732262920284,0.3967345693140487,0.03051804379333589,0.8850232700083325
1539732262936296,1.6784924086366573,-0.5798428320745188,1.1291676203554744
1539732262952308,1.4953841458761872,-1.3122758831159445,1.6174563210497581
1539732262968320,0.33569848172737693,-1.4953841458761872,1.8616006713969
1539732262984333,-0.15259021896690683,-1.3122758831159445,1.4953841458761872
1539732263000345,0.45777065690094787,-1.3122758831159445,0.7019150072480898
1539732263016357,1.4343480582895154,-1.6174563210497581,0.03051804379333589
1539732263032369,1.5564202334630863,-2.166781109330941,-0.33569848172737693
1539732263048381,0.8850232700083325,-2.532997634851654,-0.3967345693140487
1539732263064394,0.15259021896690683,-2.532997634851654,-0.5188067444876197
1539732263080413,0.03051804379333589,-2.5940337224383256,-0.7629510948347615
1539732263096426,0.3967345693140487,-2.5940337224383256,-0.9460593575952316
1539732263112438,0.7019150072480898,-2.7161058976118966,-0.8850232700083325
1539732263128450,0.5798428320745188,-2.5940337224383256,-0.7629510948347615
1539732263144462,0.5798428320745188,-2.410925459678083,-0.5188067444876197
1539732263160474,0.5188067444876197,-2.227817196917613,-0.2746623941404778
1539732263176487,0.3967345693140487,-2.04470893415737,-0.15259021896690683
1539732263192499,0.213626306553806,-1.8005645838102282,-0.03051804379333589
1539732263208511,0.213626306553806,-1.4953841458761872,0.09155413138023505
1539732263224523,0.45777065690094787,-1.1291676203554744,0.09155413138023505
1539732263240535,0.6408789196611906,-1.0070954451819034,0.2746623941404778
1539732263256548,0.7019150072480898,-0.9460593575952316,0.5798428320745188
1539732263272560,0.45777065690094787,-0.8850232700083325,0.9460593575952316
1539732263288572,0.15259021896690683,-0.9460593575952316,1.2512397955290453
1539732263304584,0.2746623941404778,-1.0070954451819034,1.3733119707026162
1539732263320596,0.45777065690094787,-1.0681315327688026,1.3733119707026162
1539732263336609,0.7629510948347615,-1.1291676203554744,1.2512397955290453
1539732263352621,0.8239871824216607,-1.4343480582895154,1.1902037079423735
1539732263368633,0.7019150072480898,-1.9226367589837992,1.1902037079423735
1539732263384645,0.3967345693140487,-2.410925459678083,1.0070954451819034
1539732263400665,0.15259021896690683,-2.410925459678083,0.5188067444876197
1539732263416677,0.15259021896690683,-2.227817196917613,0.09155413138023505
1539732263432689,0.09155413138023505,-2.105745021744042,0.09155413138023505
1539732263448701,-0.33569848172737693,-2.288853284504512,0.15259021896690683
1539732263464714,-0.3967345693140487,-2.8381780727854675,0.2746623941404778
1539732263480726,0.33569848172737693,-3.814755474174035,0.5798428320745188
1539732263496738,0.6408789196611906,-3.997863736934505,0.3967345693140487
1539732263512750,0.09155413138023505,-3.0212863355459376,-0.33569848172737693
1539732263528762,-0.2746623941404778,-1.4343480582895154,-1.2512397955290453
1539732263544775,0.2746623941404778,-0.3967345693140487,-1.4953841458761872
1539732263560787,0.8850232700083325,-0.3967345693140487,-0.9460593575952316
1539732263576799,0.45777065690094787,-0.9460593575952316,-0.213626306553806
1539732263592811,-0.3967345693140487,-1.1902037079423735,0.03051804379333589
1539732263608823,-0.6408789196611906,-1.1291676203554744,-0.09155413138023505
1539732263624836,-0.213626306553806,-0.9460593575952316,-0.3967345693140487
1539732263640848,0.3967345693140487,-0.8850232700083325,-0.3967345693140487
1539732263656860,0.213626306553806,-1.0681315327688026,0.15259021896690683
1539732263672872,-0.3967345693140487,-1.6174563210497581,0.8239871824216607
1539732263688884,-0.5188067444876197,-2.410925459678083,1.3122758831159445
1539732263704897,-0.15259021896690683,-3.3875028610666504,1.6784924086366573
1539732263720916,0.33569848172737693,-3.875791561760934,1.739528496223329
1539732263736929,0.5798428320745188,-3.692683299000464,1.4343480582895154
1539732263752941,0.45777065690094787,-3.0823224231326094,1.2512397955290453
1539732263768953,0.15259021896690683,-2.7771419851987957,1.2512397955290453
1539732263784965,-0.15259021896690683,-2.532997634851654,1.3733119707026162
1539732263800977,-0.5188067444876197,-2.166781109330941,1.3122758831159445
1539732263816990,-0.5188067444876197,-1.6174563210497581,0.9460593575952316
1539732263833002,0.03051804379333589,-1.1902037079423735,0.7019150072480898
1539732263849014,0.5798428320745188,-1.0681315327688026,1.1291676203554744
1539732263865026,0.7019150072480898,-1.0681315327688026,1.8616006713969
1539732263881038,0.2746623941404778,-1.0070954451819034,2.5940337224383256
1539732263897050,-0.213626306553806,-1.0681315327688026,3.2654306858930795
1539732263913063,-0.15259021896690683,-1.2512397955290453,3.5095750362402214
1539732263929075,0.3967345693140487,-1.6174563210497581,3.5095750362402214
1539732263945087,0.9460593575952316,-1.9226367589837992,3.2654306858930795
1539732263961099,0.9460593575952316,-2.105745021744042,2.8381780727854675
1539732263977111,0.45777065690094787,-2.166781109330941,2.227817196917613
1539732263993124,0.03051804379333589,-2.3498893720911838,1.5564202334630863
1539732264009136,-0.15259021896690683,-2.9602502479590385,1.0681315327688026
1539732264025148,-0.213626306553806,-3.7537193865873633,0.2746623941404778
1539732264041168,-0.213626306553806,-3.997863736934505,-0.7019150072480898
1539732264057180,-0.213626306553806,-3.7537193865873633,-1.8616006713969
1539732264073192,-0.33569848172737693,-3.0823224231326094,-3.1433585107195086
1539732264089204,-0.5188067444876197,-2.410925459678083,-3.997863736934505
1539732264105217,-0.3967345693140487,-1.8005645838102282,-4.42511635004189
1539732264121229,-0.8239871824216607,-1.1291676203554744,-4.486152437628789
1539732264137241,-0.9460593575952316,-0.213626306553806,-4.974441138323073
1539732264153253,0.03051804379333589,0.2746623941404778,-5.096513313496644
1539732264169265,1.3733119707026162,-0.213626306553806,-4.60822461280236
1539732264185278,1.8005645838102282,-1.1902037079423735,-3.570611123826893
1539732264201290,1.4953841458761872,-1.9226367589837992,-2.7161058976118966
1539732264217302,1.4953841458761872,-2.655069810025225,-2.04470893415737
1539732264233314,1.5564202334630863,-3.1433585107195086,-1.4953841458761872
1539732264249326,-6.561379415579495,-10.467689021133765,2.410925459678083
1539732264265339,-24.26184481574728,-3.997863736934505,6.622415503166167
1539732264281351,-14.862287327382319,16.571297779812312,-17.730983443961122
1539732264297363,-3.0212863355459376,19.073777370870403,-15.228503852903032
1539732264313375,7.537956816968062,9.979400320439481,-7.965209430075447
1539732264329387,7.904173342488775,-5.76791027695117,3.0823224231326094
1539732264345399,-8.758678568703772,-15.533684290836845,10.955977721828049
1539732264361419,-20.11139085984587,-20.660715648126825,12.4208438239109
1539732264377431,-21.69832913710229,-22.125581750209676,8.880750743877343
1539732264393444,-13.45845731288614,-23.041123064011572,3.814755474174035
1539732264409456,-6.744487678339738,-22.247653925383247,0.3967345693140487
1539732264425468,-3.4485389486533222,-20.11139085984587,-3.2654306858930795
1539732264441480,-2.655069810025225,-16.632333867398984,-7.11070420386045
1539732264457492,-2.227817196917613,-12.176699473563758,-9.85732814526591
1539732264473505,-2.105745021744042,-7.904173342488775,-11.566338597695903
1539732264489517,-3.936827649347606,-4.791332875562603,-11.810482948043045
1539732264505529,-5.76791027695117,-2.9602502479590385,-10.528725108720437
1539732264521541,-5.096513313496644,-2.8992141603723667,-8.270389868009488
1539732264537553,-2.7161058976118966,-3.2654306858930795,-5.645838101777599
1539732264553566,-0.213626306553806,-2.8992141603723667,-3.2043945983061803
1539732264569578,0.9460593575952316,-1.1291676203554744,-1.3122758831159445
1539732264585590,1.3733119707026162,0.8239871824216607,0.213626306553806
1539732264601602,2.3498893720911838,1.9226367589837992,1.6784924086366573
1539732264617614,3.692683299000464,2.105745021744042,2.9602502479590385
1539732264633627,5.0354772259097444,2.5940337224383256,4.119935912108076
1539732264649639,5.645838101777599,4.119935912108076,4.60822461280236
1539732264665651,5.706874189364498,6.317235065232353,4.852368963149502
1539732264681671,5.401693751430457,8.45349813076973,5.096513313496644
1539732264697683,5.584802014190927,9.613183794918768,5.828946364538069
1539732264713695,5.889982452124741,9.73525597009234,6.683451590753066
1539732264729707,6.378271152819025,9.67421988250544,7.4158846417944915
1539732264745720,6.439307240405924,9.67421988250544,8.026245517662346
1539732264761732,6.195162890058782,9.613183794918768,8.6366063935302
1539732264777744,5.76791027695117,9.063859006637585,9.246967269398056
1539732264793756,5.462729839017356,8.087281605249018,9.796292057679011
1539732264809768,5.401693751430457,6.744487678339738,10.040436408026153
1539732264825780,5.2185854886702145,5.2185854886702145,9.796292057679011
1539732264841793,4.730296787975931,3.7537193865873633,9.246967269398056
1539732264857805,3.875791561760934,2.532997634851654,8.33142595559616
1539732264873817,2.8992141603723667,1.6784924086366573,7.049668116273779
1539732264889829,2.288853284504512,0.7019150072480898,5.645838101777599
1539732264905841,2.105745021744042,-0.7629510948347615,4.486152437628789
1539732264921854,1.8616006713969,-2.532997634851654,3.5095750362402214
1539732264937866,1.2512397955290453,-4.058899824521177,2.410925459678083
1539732264953878,0.2746623941404778,-4.852368963149502,1.1291676203554744
1539732264969890,-0.6408789196611906,-4.974441138323073,-0.3967345693140487
1539732264985902,-1.3733119707026162,-4.547188525215461,-1.739528496223329
1539732265001922,-1.6174563210497581,-4.303044174868319,-2.7161058976118966
1539732265017934,-1.9226367589837992,-4.730296787975931,-3.0212863355459376
1539732265033947,-2.4719615472647547,-5.523765926604028,-2.7161058976118966
1539732265049959,-3.0212863355459376,-6.561379415579495,-2.227817196917613
1539732265065971,-3.0823224231326094,-7.598992904554734,-1.8005645838102282
1539732265081983,-2.4719615472647547,-8.392462043183059,-1.5564202334630863
1539732265097995,-1.8616006713969,-8.697642481116873,-1.4343480582895154
1539732265114008,-1.4343480582895154,-8.51453421835663,-1.4953841458761872
1539732265130020,-1.0681315327688026,-7.721065079728305,-1.5564202334630863
1539732265146032,-0.6408789196611906,-6.561379415579495,-1.6784924086366573
1539732265162044,-0.45777065690094787,-5.3406576638437855,-1.739528496223329
1539732265178056,-0.45777065690094787,-4.180971999694748,-1.8616006713969
1539732265194069,-0.3967345693140487,-3.3264667734797513,-1.4953841458761872
1539732265210081,-0.45777065690094787,-2.5940337224383256,-0.8239871824216607
1539732265226093,-0.5798428320745188,-2.166781109330941,-0.2746623941404778
1539732265242105,-0.3967345693140487,-1.9226367589837992,-0.09155413138023505
1539732265258117,0.33569848172737693,-1.739528496223329,0.03051804379333589
1539732265274129,1.1291676203554744,-1.5564202334630863,-0.15259021896690683
1539732265290142,1.4953841458761872,-1.1291676203554744,-0.03051804379333589
1539732265306154,1.1291676203554744,-0.33569848172737693,0.213626306553806
1539732265322174,0.33569848172737693,0.8239871824216607,0.33569848172737693
1539732265338186,0.15259021896690683,1.4953841458761872,0.5188067444876197
1539732265354198,1.0070954451819034,1.3733119707026162,0.8239871824216607
1539732265370210,1.983672846570471,0.5188067444876197,1.6174563210497581
1539732265386222,1.983672846570471,-0.5798428320745188,2.7161058976118966
1539732265402235,1.1291676203554744,-1.1902037079423735,3.570611123826893
1539732265418247,0.5188067444876197,-1.3122758831159445,3.875791561760934
1539732265434259,0.6408789196611906,-1.3122758831159445,3.7537193865873633
1539732265450271,1.4953841458761872,-1.5564202334630863,3.1433585107195086
1539732265466283,1.8005645838102282,-1.8616006713969,2.655069810025225
1539732265482296,1.1902037079423735,-2.166781109330941,2.227817196917613
1539732265498308,0.45777065690094787,-2.3498893720911838,1.983672846570471
1539732265514320,-0.03051804379333589,-2.7771419851987957,1.739528496223329
1539732265530332,0.03051804379333589,-3.2654306858930795,1.3733119707026162
1539732265546344,0.15259021896690683,-3.7537193865873633,0.8850232700083325
1539732265562357,0.5188067444876197,-4.119935912108076,0.213626306553806
1539732265578369,0.7019150072480898,-4.364080262455218,-0.03051804379333589
1539732265594381,0.5798428320745188,-4.42511635004189,0.03051804379333589
1539732265610393,0.03051804379333589,-3.936827649347606,0.03051804379333589
1539732265626405,-0.213626306553806,-3.5095750362402214,-0.03051804379333589
1539732265642425,0.213626306553806,-3.1433585107195086,-0.03051804379333589
1539732265658437,0.8850232700083325,-2.8992141603723667,0.09155413138023505
1539732265674450,0.8239871824216607,-2.7161058976118966,0.2746623941404778
1539732265690462,0.45777065690094787,-2.4719615472647547,0.6408789196611906
1539732265706474,0.213626306553806,-2.166781109330941,0.8239871824216607
1539732265722486,0.15259021896690683,-1.8005645838102282,0.7019150072480898
1539732265738498,0.5188067444876197,-1.3122758831159445,0.45777065690094787
1539732265754511,0.8850232700083325,-1.1902037079423735,0.3967345693140487
1539732265770523,0.8239871824216607,-1.3122758831159445,0.45777065690094787
1539732265786535,0.5188067444876197,-1.5564202334630863,0.6408789196611906
1539732265802547,0.3967345693140487,-1.4343480582895154,0.45777065690094787
1539732265818559,0.5798428320745188,-1.1902037079423735,0.3967345693140487
1539732265834571,1.0070954451819034,-1.2512397955290453,0.6408789196611906
1539732265850584,1.0681315327688026,-1.6174563210497581,1.2512397955290453
1539732265866596,0.7629510948347615,-2.105745021744042,1.6784924086366573
1539732265882608,0.6408789196611906,-2.227817196917613,1.9226367589837992
1539732265898620,1.0070954451819034,-2.410925459678083,2.04470893415737
1539732265914632,1.1902037079423735,-2.655069810025225,2.227817196917613
1539732265930645,0.8850232700083325,-2.8992141603723667,2.410925459678083
1539732265946657,0.45777065690094787,-2.7771419851987957,2.105745021744042
1539732265962677,0.5188067444876197,-2.3498893720911838,1.5564202334630863
1539732265978689,1.2512397955290453,-2.227817196917613,1.0681315327688026
1539732265994701,1.4343480582895154,-2.3498893720911838,1.1291676203554744
1539732266010713,0.5798428320745188,-2.166781109330941,1.2512397955290453
1539732266026725,-0.3967345693140487,-1.739528496223329,1.1291676203554744
1539732266042738,-0.15259021896690683,-1.6174563210497581,0.8850232700083325
1539732266058750,1.0681315327688026,-1.739528496223329,0.7019150072480898
1539732266074762,1.9226367589837992,-1.983672846570471,0.5798428320745188
1539732266090774,1.6174563210497581,-1.9226367589837992,0.7629510948347615
1539732266106786,0.7019150072480898,-1.3733119707026162,0.8850232700083325
1539732266122799,0.15259021896690683,-0.8850232700083325,0.8850232700083325
1539732266138811,0.3967345693140487,-1.0070954451819034,0.7629510948347615
1539732266154823,1.1291676203554744,-1.739528496223329,0.3967345693140487
1539732266170835,1.4343480582895154,-2.4719615472647547,-0.03051804379333589
1539732266186847,1.1902037079423735,-2.7161058976118966,-0.5798428320745188
1539732266202860,0.8239871824216607,-2.5940337224383256,-1.1291676203554744
1539732266218872,0.7629510948347615,-2.410925459678083,-1.6784924086366573
1539732266234884,0.7629510948347615,-2.3498893720911838,-2.105745021744042
1539732266250896,1.0070954451819034,-2.5940337224383256,-2.288853284504512
1539732266266908,1.4343480582895154,-3.0212863355459376,-2.04470893415737
1539732266282898,1.6174563210497581,-3.2043945983061803,-1.5564202334630863
1539732266298910,1.4953841458761872,-2.8381780727854675,-0.9460593575952316
1539732266314922,1.0070954451819034,-1.983672846570471,-0.33569848172737693
1539732266330934,0.45777065690094787,-1.1902037079423735,0.15259021896690683
1539732266346946,0.15259021896690683,-0.8850232700083325,0.7019150072480898
1539732266362959,0.213626306553806,-0.8850232700083325,0.8850232700083325
1539732266378971,0.5188067444876197,-0.8850232700083325,0.5798428320745188
1539732266394983,1.1291676203554744,-0.6408789196611906,0.15259021896690683
1539732266410995,1.4343480582895154,-0.6408789196611906,-0.03051804379333589
1539732266427007,1.1902037079423735,-0.7019150072480898,0.3967345693140487
1539732266443019,0.5798428320745188,-1.0070954451819034,0.8850232700083325
1539732266459032,0.15259021896690683,-1.2512397955290453,1.0681315327688026
1539732266475044,0.03051804379333589,-1.3122758831159445,0.8239871824216607
1539732266491056,0.15259021896690683,-1.2512397955290453,0.2746623941404778
1539732266507068,0.33569848172737693,-1.2512397955290453,-0.09155413138023505
1539732266523080,0.45777065690094787,-1.6174563210497581,-0.213626306553806
1539732266539093,0.6408789196611906,-2.166781109330941,-0.15259021896690683
1539732266555105,0.5188067444876197,-2.655069810025225,-0.03051804379333589
1539732266571117,0.09155413138023505,-2.8992141603723667,0.09155413138023505
1539732266587129,-0.213626306553806,-2.9602502479590385,-0.03051804379333589
1539732266603149,0.09155413138023505,-3.0212863355459376,-0.03051804379333589
1539732266619161,0.8850232700083325,-3.2654306858930795,0.213626306553806
1539732266635173,1.3122758831159445,-3.5095750362402214,0.5798428320745188
1539732266651186,0.9460593575952316,-3.3264667734797513,0.9460593575952316
1539732266667198,0.33569848172737693,-2.9602502479590385,1.2512397955290453
1539732266683210,0.2746623941404778,-2.655069810025225,1.3733119707026162
1539732266699222,0.5188067444876197,-2.288853284504512,1.3122758831159445
1539732266715234,0.6408789196611906,-1.6784924086366573,1.1902037079423735
1539732266731247,0.5188067444876197,-1.5564202334630863,1.1291676203554744
1539732266747259,0.5188067444876197,-1.9226367589837992,1.1902037079423735
1539732266763271,0.9460593575952316,-2.288853284504512,0.8850232700083325
1539732266779283,1.3733119707026162,-2.3498893720911838,0.5188067444876197
1539732266795295,1.0681315327688026,-1.6784924086366573,0.09155413138023505
1539732266811308,0.6408789196611906,-0.7019150072480898,-0.6408789196611906
1539732266827320,0.5798428320745188,-0.09155413138023505,-1.1291676203554744
1539732266843332,1.0681315327688026,-0.3967345693140487,-1.4953841458761872
1539732266859344,1.4953841458761872,-1.0681315327688026,-1.6784924086366573
1539732266875356,1.3122758831159445,-1.6174563210497581,-1.739528496223329
1539732266891368,0.7019150072480898,-1.739528496223329,-1.8005645838102282
1539732266907381,0.3967345693140487,-1.8616006713969,-1.6174563210497581
1539732266923431,0.8239871824216607,-2.166781109330941,-1.4343480582895154
1539732266939443,1.2512397955290453,-2.8381780727854675,-1.0681315327688026
1539732266955455,1.1902037079423735,-3.7537193865873633,-0.8239871824216607
1539732266971468,0.9460593575952316,-4.364080262455218,-0.5798428320745188
1539732266987480,0.5798428320745188,-4.547188525215461,-0.5188067444876197
1539732267003492,-0.03051804379333589,-3.875791561760934,-0.8850232700083325
1539732267019504,-0.5188067444876197,-3.0823224231326094,-1.4343480582895154
1539732267035516,-0.15259021896690683,-2.7161058976118966,-1.6784924086366573
1539732267051529,0.6408789196611906,-2.8381780727854675,-1.6174563210497581
1539732267067541,1.1291676203554744,-2.9602502479590385,-1.2512397955290453
1539732267083553,1.0070954451819034,-2.8992141603723667,-0.8239871824216607
1539732267099565,0.5188067444876197,-2.4719615472647547,-0.33569848172737693
1539732267115577,0.15259021896690683,-1.8616006713969,0.213626306553806
1539732267131590,0.09155413138023505,-1.1902037079423735,0.6408789196611906
1539732267147602,0.3967345693140487,-0.6408789196611906,1.0070954451819034
1539732267163614,0.6408789196611906,-0.15259021896690683,1.3733119707026162
1539732267179626,0.5188067444876197,0.03051804379333589,1.8005645838102282
1539732267195638,0.33569848172737693,-0.09155413138023505,2.288853284504512
1539732267211650,0.45777065690094787,-0.5798428320745188,2.7161058976118966
1539732267227663,1.0070954451819034,-1.1291676203554744,3.0212863355459376
1539732267243682,1.3733119707026162,-1.5564202334630863,2.9602502479590385
1539732267259695,1.3122758831159445,-1.9226367589837992,2.7771419851987957
1539732267275707,1.1291676203554744,-2.105745021744042,2.410925459678083
1539732267291719,1.3733119707026162,-2.227817196917613,1.8005645838102282
1539732267307731,1.5564202334630863,-2.7161058976118966,1.4953841458761872
1539732267323743,1.4343480582895154,-3.2654306858930795,1.3122758831159445
1539732267339756,1.0070954451819034,-3.5095750362402214,1.2512397955290453
1539732267355768,0.5798428320745188,-3.4485389486533222,1.0681315327688026
1539732267371780,0.33569848172737693,-3.2654306858930795,0.6408789196611906
1539732267387792,0.45777065690094787,-3.2043945983061803,0.09155413138023505
1539732267403804,0.8850232700083325,-3.4485389486533222,-0.2746623941404778
1539732267419817,1.4343480582895154,-3.814755474174035,-0.45777065690094787
1539732267435829,1.3733119707026162,-3.692683299000464,-0.5798428320745188
1539732267451841,1.1291676203554744,-3.0823224231326094,-0.5798428320745188
1539732267467853,1.0681315327688026,-2.3498893720911838,-0.45777065690094787
1539732267483865,0.9460593575952316,-2.04470893415737,-0.33569848172737693
1539732267499878,1.0681315327688026,-2.04470893415737,-0.33569848172737693
1539732267515890,1.1291676203554744,-1.8616006713969,-0.6408789196611906
1539732267531902,1.4343480582895154,-1.5564202334630863,-0.9460593575952316
1539732267547914,1.4953841458761872,-1.5564202334630863,-0.9460593575952316
1539732267563934,1.3733119707026162,-1.6784924086366573,-0.7019150072480898
1539732267579946,1.1902037079423735,-1.739528496223329,-0.3967345693140487
1539732267595958,1.1291676203554744,-1.8616006713969,-0.3967345693140487
1539732267611971,1.4343480582895154,-1.8616006713969,-0.33569848172737693
1539732267627983,1.8005645838102282,-2.105745021744042,0.03051804379333589
1539732267643995,1.6174563210497581,-2.288853284504512,0.6408789196611906
1539732267660007,1.1291676203554744,-2.288853284504512,1.1291676203554744
1539732267676019,0.8850232700083325,-1.983672846570471,1.5564202334630863
1539732267692031,0.6408789196611906,-1.9226367589837992,1.739528496223329
1539732267708044,0.5188067444876197,-2.04470893415737,1.8005645838102282
1539732267724056,0.15259021896690683,-2.04470893415737,1.5564202334630863
1539732267740068,0.213626306553806,-2.105745021744042,1.0681315327688026
1539732267756080,0.7019150072480898,-2.04470893415737,0.7629510948347615
1539732267772092,0.8239871824216607,-1.983672846570471,0.6408789196611906
1539732267788105,0.3967345693140487,-2.04470893415737,0.7019150072480898
1539732267804117,-0.09155413138023505,-2.105745021744042,1.1291676203554744
1539732267820129,-0.15259021896690683,-2.410925459678083,1.4953841458761872
1539732267836141,-0.03051804379333589,-2.655069810025225,1.6174563210497581
1539732267852153,0.33569848172737693,-2.7161058976118966,1.4953841458761872
1539732267868166,0.7019150072480898,-2.5940337224383256,1.5564202334630863
1539732267884185,0.7019150072480898,-2.4719615472647547,1.6784924086366573
1539732267900198,0.3967345693140487,-2.4719615472647547,1.8005645838102282
1539732267916210,0.15259021896690683,-2.532997634851654,1.9226367589837992
1539732267932222,0.09155413138023505,-2.4719615472647547,1.6784924086366573
1539732267948234,0.2746623941404778,-2.227817196917613,1.0681315327688026
1539732267964246,0.2746623941404778,-1.9226367589837992,0.45777065690094787
1539732267980259,0.2746623941404778,-1.8005645838102282,0.09155413138023505
1539732267996271,0.03051804379333589,-1.9226367589837992,-0.15259021896690683
1539732268012283,0.213626306553806,-2.3498893720911838,-0.213626306553806
1539732268028295,0.7019150072480898,-2.655069810025225,-0.09155413138023505
1539732268044307,0.7019150072480898,-2.4719615472647547,-0.09155413138023505
1539732268060320,0.213626306553806,-2.166781109330941,0.03051804379333589
1539732268076332,-0.03051804379333589,-2.166781109330941,0.45777065690094787
1539732268092344,0.45777065690094787,-2.7771419851987957,1.0070954451819034
1539732268108356,1.1902037079423735,-3.570611123826893,1.4343480582895154
1539732268124368,1.1291676203554744,-3.6316472114137923,1.5564202334630863
1539732268140380,0.7019150072480898,-2.7161058976118966,1.1902037079423735
1539732268156393,0.7019150072480898,-1.9226367589837992,1.0070954451819034
1539732268172405,1.0070954451819034,-1.9226367589837992,1.0070954451819034
1539732268188417,1.3122758831159445,-2.227817196917613,0.8850232700083325
1539732268204437,1.0681315327688026,-2.410925459678083,0.8239871824216607
1539732268220449,0.7629510948347615,-2.288853284504512,0.5188067444876197
1539732268236461,0.7629510948347615,-2.288853284504512,0.45777065690094787
1539732268252473,1.0681315327688026,-2.7161058976118966,0.7629510948347615
1539732268268486,1.0070954451819034,-3.2654306858930795,1.0681315327688026
1539732268284498,0.5188067444876197,-3.1433585107195086,0.8239871824216607
1539732268300510,0.5798428320745188,-2.7771419851987957,0.33569848172737693
1539732268316522,1.1291676203554744,-2.655069810025225,0.33569848172737693
1539732268332534,1.1902037079423735,-2.8381780727854675,0.5798428320745188
1539732268348547,0.5188067444876197,-2.655069810025225,0.8239871824216607
1539732268364559,-0.15259021896690683,-2.105745021744042,0.7629510948347615
1539732268380571,0.15259021896690683,-1.8005645838102282,0.6408789196611906
1539732268396583,0.5798428320745188,-1.8005645838102282,0.5798428320745188
1539732268412595,0.5188067444876197,-1.8005645838102282,0.6408789196611906
1539732268428608,0.09155413138023505,-1.8005645838102282,0.7019150072480898
1539732268444620,0.09155413138023505,-1.6174563210497581,0.7019150072480898
1539732268460632,0.2746623941404778,-1.4953841458761872,0.5798428320745188
1539732268476644,0.2746623941404778,-1.4953841458761872,0.5188067444876197
1539732268492656,0.213626306553806,-1.739528496223329,0.7019150072480898
1539732268508669,0.213626306553806,-2.166781109330941,1.0070954451819034
1539732268524688,0.3967345693140487,-2.288853284504512,1.3122758831159445
1539732268540701,0.15259021896690683,-2.288853284504512,1.3733119707026162
1539732268556713,-0.2746623941404778,-2.227817196917613,1.4343480582895154
1539732268572725,-0.3967345693140487,-2.3498893720911838,1.1902037079423735
1539732268588737,0.03051804379333589,-2.5940337224383256,0.7019150072480898
1539732268604749,0.5188067444876197,-2.8992141603723667,0.2746623941404778
1539732268620761,0.5798428320745188,-3.0212863355459376,-0.09155413138023505
1539732268636774,0.03051804379333589,-2.7771419851987957,-0.3967345693140487
1539732268652786,-0.213626306553806,-2.410925459678083,-0.5798428320745188
1539732268668798,-0.15259021896690683,-2.227817196917613,-0.7019150072480898
1539732268684810,0.09155413138023505,-2.04470893415737,-0.6408789196611906
1539732268700822,0.03051804379333589,-1.9226367589837992,-0.33569848172737693
1539732268716835,-0.2746623941404778,-1.8005645838102282,-0.09155413138023505
1539732268732847,-0.3967345693140487,-1.5564202334630863,0.09155413138023505
1539732268748859,-0.15259021896690683,-1.3733119707026162,0.33569848172737693
1539732268764871,-0.2746623941404778,-1.1291676203554744,0.6408789196611906
1539732268780883,-0.7019150072480898,-1.0681315327688026,0.8850232700083325
1539732268796896,-0.5798428320745188,-1.3733119707026162,1.0681315327688026
1539732268812908,0.3967345693140487,-2.04470893415737,1.0681315327688026
1539732268828920,1.1902037079423735,-2.410925459678083,1.0070954451819034
1539732268844940,1.0070954451819034,-2.04470893415737,0.9460593575952316
1539732268860952,0.3967345693140487,-1.2512397955290453,0.7019150072480898
1539732268876964,0.213626306553806,-0.8850232700083325,0.7019150072480898
1539732268892976,0.5798428320745188,-1.5564202334630863,0.7019150072480898
