Timestamp (microseconds),Accel X (g),Accel Y (g),Accel Z (g)
1539131334812805,0.11578545815213204,-0.016540779736018862,0.9470969710841537
1539131334828801,0.11566338597695847,-0.017761501487754572,0.9533226520180058
1539131334844797,0.11786068513008274,-0.010681315327687457,0.9511253528648815
1539131334860793,0.12420843823910843,-0.010437170977340315,0.9500267032883194
1539131334876789,0.12567330434119217,-0.01226825360494388,0.9564965285725187
1539131334892785,0.12396429388876129,-0.016906996261539575,0.9551537346456094
1539131334908781,0.12530708781567146,-0.019104295414663852,0.9551537346456094
1539131334924777,0.12750438696879574,-0.018371862363622427,0.9633325703822386
1539131334940773,0.12152285038528987,-0.017883573662928143,0.9651636530098422
1539131334956769,0.12298771648737272,-0.018371862363622427,0.9600366216525522
1539131334972765,0.12066834515907487,-0.01739528496223386,0.9597924773022051
1539131334988761,0.12188906691081058,-0.016540779736018862,0.9588158999008165
1539131335004757,0.12249942778667844,-0.012634470130464592,0.9541771572442208
1539131335020753,0.12176699473563701,-0.014709697108415298,0.9499046311131458
1539131335036749,0.12262149996185201,-0.01886015106431671,0.9521019302662701
1539131335052744,0.11859311818112417,-0.02130159456778813,0.9536888685435265
1539131335068740,0.11480888075074347,-0.019348439765010994,0.951003280689708
1539131335084736,0.11371023117418133,-0.018249790188448856,0.9477073319600215
1539131335100732,0.11737239642938846,-0.01641870756084529,0.9457541771572444
1539131335116728,0.1214007782101163,-0.016784924086366004,0.9473411154345008
1539131335132721,0.12018005645838059,-0.01873807888914314,0.9539330128938737
1539131335148717,0.11725032425421489,-0.024597543297474544,0.9618677042801558
1539131335164713,0.11810482948042988,-0.02923628595407024,0.9645532921339743
1539131335180709,0.11566338597695847,-0.02667277027542525,0.9654077973601893
1539131335196704,0.1205462729839013,-0.02252231631952384,0.9621118486305029
1539131335212700,0.1205462729839013,-0.016906996261539575,0.9612573434042879
1539131335228696,0.12213321126115773,-0.013000686655985305,0.9562523842221715
1539131335244692,0.12396429388876129,-0.009460593575951748,0.9470969710841537
1539131335260688,0.12201113908598415,-0.008728160524910322,0.946730754558633
1539131335276684,0.12018005645838059,-0.01226825360494388,0.945876249332418
1539131335292680,0.11969176775768631,-0.02008087281605242,0.9485618371862365
1539131335308676,0.1231097886625463,-0.02545204852368954,0.9457541771572444
1539131335324672,0.12298771648737272,-0.026184481574730967,0.9473411154345008
1539131335340668,0.12469672693980272,-0.024353398947127403,0.9519798580910965
1539131335356664,0.12335393301289344,-0.023132677195391693,0.953566796368353
1539131335372660,0.12384222171358772,-0.023498893720912406,0.9560082398718244
1539131335388656,0.11981383993285988,-0.0252079041733424,0.9610131990539408
1539131335404652,0.1155413138017849,-0.025818265049210254,0.9622339208056765
1539131335420648,0.11322194247348705,-0.02154573891813527,0.9589379720759901
1539131335436644,0.11395437552452847,-0.015075913633936011,0.9539330128938737
1539131335452636,0.11541924162661132,-0.014343480582894585,0.9547875181200887
1539131335468632,0.11541924162661132,-0.01617456321049815,0.9560082398718244
1539131335484628,0.11895933470664488,-0.019348439765010994,0.9538109407187001
1539131335500624,0.11920347905699202,-0.023376821545738835,0.9601586938277258
1539131335516620,0.12201113908598415,-0.017639429312581,0.9532005798428322
1539131335532616,0.12445258258945557,-0.01239032578011745,0.9522240024414437
1539131335548612,0.12384222171358772,-0.010315098802166744,0.9545433737697415
1539131335564608,0.11859311818112417,-0.013122758831158876,0.9557640955214772
1539131335580604,0.11822690165560346,-0.012146181429770309,0.9550316624704358
1539131335596600,0.12091248950942202,-0.008239871824216038,0.9503929198138401
1539131335612596,0.1205462729839013,0.0014038300144960658,0.9463645380331123
1539131335628592,0.12396429388876129,0.008972304875257464,0.947585259784848
1539131335644588,0.12664988174258074,0.01104753185320817,0.9547875181200887
1539131335660584,0.12542915999084503,0.004943923094529623,0.9541771572442208
1539131335676580,0.1184710460059506,-0.004821850919356052,0.952712291142138
1539131335692576,0.11859311818112417,-0.011902037079423167,0.9568627450980394
1539131335708572,0.11822690165560346,-0.012024109254596738,0.9595483329518579
1539131335724568,0.12066834515907487,-0.008117799649042468,0.9546654459449151
1539131335740564,0.12335393301289344,-0.007873655298695326,0.9494163424124515
1539131335756560,0.12713817044327502,-0.014221408407721015,0.9502708476386665
1539131335772277,0.12799267566949002,-0.021179522392614558,0.9532005798428322
1539131335788272,0.12469672693980272,-0.020691233691920274,0.9522240024414437
1539131335804267,0.12018005645838059,-0.01873807888914314,0.9500267032883194
1539131335820261,0.11810482948042988,-0.018249790188448856,0.9534447241931794
1539131335836256,0.11749446860456203,-0.019470511940184565,0.9549095902952622
1539131335852250,0.12152285038528987,-0.022278171969176697,0.9499046311131458
1539131335868245,0.12506294346532432,-0.0252079041733424,0.9469748989089801
1539131335884239,0.12738231479362216,-0.029968719005111666,0.9549095902952622
1539131335900234,0.1276264591439693,-0.039002059967955915,0.9500267032883194
1539131335916228,0.12579537651636574,-0.04840161745632088,0.9503929198138401
1539131335932223,0.1301899748226143,-0.04840161745632088,0.9588158999008165
1539131335948217,0.12616159304188646,-0.040344853894865196,0.9582055390249486
1539131335964212,0.12750438696879574,-0.02777141985198739,0.9480735484855423
1539131335980207,0.12628366521706003,-0.019592584115358136,0.9442893110551616
1539131335996201,0.1205462729839013,-0.00836194399938961,0.9496604867627987
1539131336012196,0.12018005645838059,-0.0017700465400167786,0.9472190432593273
1539131336028190,0.12335393301289344,-9.15541313801782E-4,0.9483176928358894
1539131336044185,0.12396429388876129,-0.006652933546959616,0.9547875181200887
1539131336060179,0.11834897383077703,-0.021789883268482413,0.9672388799877929
1539131336076174,0.11700617990386775,-0.038757915617608774,0.9704127565423057
1539131336091888,0.11712825207904132,-0.04730296787975874,0.970901045243
1539131336107882,0.11505302510109061,-0.04376287479972518,0.9701686121919586
1539131336123875,0.11920347905699202,-0.035095750362401645,0.9678492408636608
1539131336139869,0.12030212863355416,-0.032532234683756656,0.9684596017395286
1539131336155862,0.12469672693980272,-0.03143358510719452,0.9602807660028994
1539131336171856,0.12481879911497629,-0.035095750362401645,0.9551537346456094
1539131336187850,0.12176699473563701,-0.041443503471427334,0.948439765011063
1539131336203843,0.12298771648737272,-0.04888990615701516,0.9423361562523844
1539131336219837,0.12628366521706003,-0.05633630884260299,0.942458228427558
1539131336235830,0.1264057373922336,-0.060852979324025114,0.9428244449530787
1539131336251824,0.12872510872053144,-0.06451514457923269,0.9444113832303351
1539131336267818,0.12738231479362216,-0.06927595941100195,0.9456321049820708
1539131336283811,0.13311970702678,-0.06634622720683625,0.9425803006027316
1539131336299805,0.13763637750820212,-0.057312886243991557,0.9358663309681852
1539131336315798,0.1436179140917071,-0.05609216449225585,0.9376974135957887
1539131336331792,0.14264133669031853,-0.07281605249103551,0.9468528267338066
1539131336347786,0.14923323414969136,-0.09613183794918756,0.9412375066758223
1539131336363779,0.15130846112764207,-0.09417868314641042,0.9295185778591595
1539131336379773,0.1537499046311135,-0.05096513313496587,0.9355001144426645
1539131336395766,0.13336385137712714,-0.006530861371786045,0.9529564354924851
1539131336411529,0.12298771648737272,0.00982681010147246,0.9655298695353629
1539131336427522,0.11493095292591704,-0.001037613488975353,0.9597924773022051
1539131336443514,0.10980392156862706,-0.020813305867093845,0.9615014877546351
1539131336459507,0.1129777981231399,-0.045349813076981604,0.9644312199588008
1539131336475500,0.11737239642938846,-0.05767910276951227,0.9629663538567179
1539131336491492,0.12042420080872773,-0.05804531929503298,0.9578393224994279
1539131336507485,0.12262149996185201,-0.05120927748531301,0.9573510337987337
1539131336523478,0.12909132524605216,-0.04473945220111375,0.9568627450980394
1539131336539470,0.1284809643701843,-0.04901197833218873,0.9558861676966508
1539131336555463,0.12738231479362216,-0.05951018539711583,0.9507591363393608
1539131336571456,0.1259174486915393,-0.07611200122072193,0.9507591363393608
1539131336587448,0.12750438696879574,-0.08685435263599617,0.949294270237278
1539131336603441,0.12494087129014986,-0.09466697184710471,0.9503929198138401
1539131336619434,0.1272602426184486,-0.09185931181811258,0.9489280537117573
1539131336635426,0.12713817044327502,-0.08148317692835905,0.9425803006027316
1539131336651419,0.12530708781567146,-0.06561379415579482,0.9514915693904022
1539131336667411,0.12738231479362216,-0.05609216449225585,0.9523460746166172
1539131336683404,0.12372014953841415,-0.05877775234607441,0.9517357137407494
1539131336699397,0.12481879911497629,-0.06683451590753053,0.9514915693904022
1539131336715389,0.12213321126115773,-0.07013046463721695,0.9533226520180058
1539131336731170,0.11871519035629774,-0.0648813611047534,0.9513694972152287
1539131336747162,0.11444266422522276,-0.06329442282749698,0.9512474250400551
1539131336763154,0.11493095292591704,-0.06671244373235696,0.953566796368353
1539131336779145,0.11602960250247918,-0.0715953307392998,0.9508812085145344
1539131336795137,0.11944762340733917,-0.07354848554207694,0.9508812085145344
1539131336811129,0.1193255512321656,-0.07647821774624264,0.9516136415655758
1539131336827120,0.12127870603494273,-0.07904173342488763,0.9513694972152287
1539131336843112,0.1231097886625463,-0.07928587777523477,0.9448996719310294
1539131336859104,0.12408636606393486,-0.08197146562905333,0.9486839093614101
1539131336875095,0.12616159304188646,-0.0867322804608226,0.9512474250400551
1539131336891087,0.1251850156404979,-0.08953994048981473,0.9523460746166172
1539131336907079,0.1264057373922336,-0.09002822919050901,0.9524681467917908
1539131336923071,0.12567330434119217,-0.08868543526359973,0.9488059815365837
1539131336939062,0.12884718089570502,-0.08392462043183047,0.9459983215075916
1539131336955054,0.12689402609292788,-0.08038452735179691,0.9547875181200887
1539131336971046,0.12506294346532432,-0.08612191958495474,0.9506370641641873
1539131336987037,0.12201113908598415,-0.091737239642939,0.948439765011063
1539131337003029,0.11419851987487561,-0.09491111619745185,0.9530785076676587
1539131337019021,0.11200122072175134,-0.09222552834363329,0.950148775463493
1539131337035012,0.11102464332036277,-0.08734264133669045,0.9503929198138401
1539131337050750,0.11480888075074347,-0.08441290913252475,0.9502708476386665
1539131337066741,0.11895933470664488,-0.0858777752346076,0.9466086823834594
1539131337082732,0.12542915999084503,-0.09210345616845972,0.9499046311131458
1539131337098723,0.1259174486915393,-0.09369039444571614,0.950148775463493
1539131337114713,0.12481879911497629,-0.09088273441672401,0.9533226520180058
1539131337130704,0.12420843823910843,-0.08783093003738474,0.9499046311131458
1539131337146695,0.12286564431219915,-0.08282597085526833,0.9462424658579387
1539131337162685,0.11981383993285988,-0.08245975432974761,0.946730754558633
1539131337178676,0.11725032425421489,-0.08868543526359973,0.9480735484855423
1539131337194667,0.1176165407797356,-0.09222552834363329,0.9506370641641873
1539131337210658,0.11944762340733917,-0.09539940489814613,0.950148775463493
1539131337226648,0.12091248950942202,-0.09369039444571614,0.9529564354924851
1539131337242639,0.12091248950942202,-0.09027237354085615,0.9478294041351951
1539131337258630,0.12176699473563701,-0.0858777752346076,0.9505149919890137
1539131337274621,0.12152285038528987,-0.08465705348287189,0.9466086823834594
1539131337290611,0.12152285038528987,-0.08746471351186402,0.9473411154345008
1539131337306602,0.12127870603494273,-0.09246967269398043,0.9513694972152287
1539131337322593,0.11688410772869418,-0.094300755321584,0.9506370641641873
1539131337338584,0.11651789120317346,-0.09283588921950114,0.950148775463493
1539131337354574,0.1184710460059506,-0.091737239642939,0.9438010223544673
1539131337370391,0.11615167467765275,-0.09796292057679112,0.9503929198138401
1539131337386382,0.11627374685282632,-0.09698634317540256,0.9502708476386665
1539131337402372,0.11419851987487561,-0.09100480659189758,0.9495384145876251
1539131337418362,0.11688410772869418,-0.08062867170214405,0.9478294041351951
1539131337434352,0.11505302510109061,-0.07855344472419334,0.9517357137407494
1539131337450343,0.11737239642938846,-0.08245975432974761,0.9519798580910965
1539131337466333,0.11309987029831348,-0.08807507438773188,0.9560082398718244
1539131337482323,0.1109025711451892,-0.09161516746776543,0.9574731059739072
1539131337498314,0.11078049897001563,-0.08905165178912045,0.9571068894483865
1539131337514304,0.11541924162661132,-0.08307011520561547,0.9513694972152287
1539131337530294,0.11615167467765275,-0.08270389868009476,0.9485618371862365
1539131337546284,0.11602960250247918,-0.08709849698634331,0.9485618371862365
1539131337562275,0.11908140688181845,-0.08709849698634331,0.9477073319600215
1539131337578265,0.12213321126115773,-0.08856336308842616,0.9444113832303351
1539131337594255,0.12152285038528987,-0.09210345616845972,0.9418478675516901
1539131337610245,0.12005798428320702,-0.0963759822995347,0.9431906614785994
1539131337626236,0.11773861295490917,-0.09857328145265898,0.9494163424124515
1539131337642226,0.11663996337834703,-0.09320210574502186,0.9532005798428322
1539131337658216,0.11334401464866062,-0.08770885786221116,0.9597924773022051
1539131337674206,0.11407644769970204,-0.08453498130769832,0.9578393224994279
1539131337690033,0.11602960250247918,-0.08538948653391332,0.9530785076676587
1539131337706022,0.11602960250247918,-0.08770885786221116,0.9485618371862365
1539131337722011,0.11273365377279276,-0.09356832227054257,0.946730754558633
1539131337738000,0.11151293202105705,-0.09442282749675757,0.9529564354924851
1539131337753990,0.10809491111619707,-0.09478904402227828,0.949294270237278
1539131337769979,0.10785076676584993,-0.09185931181811258,0.9436789501792937
1539131337785968,0.1088273441672385,-0.09076066224155044,0.9405050736247809
1539131337801958,0.1117570763714042,-0.0888075074387733,0.9461203936827651
1539131337817947,0.11602960250247918,-0.08538948653391332,0.943312733653773
1539131337833936,0.11944762340733917,-0.08429083695735118,0.9491721980621044
1539131337849926,0.11859311818112417,-0.08685435263599617,0.9555199511711301
1539131337865915,0.1193255512321656,-0.09246967269398043,0.9564965285725187
1539131337881904,0.12335393301289344,-0.09527733272297256,0.954421301594568
1539131337897894,0.1214007782101163,-0.09564354924849328,0.9585717555504694
1539131337913883,0.11700617990386775,-0.08929579613946759,0.9585717555504694
1539131337929872,0.11688410772869418,-0.09442282749675757,0.9503929198138401
1539131337945861,0.1264057373922336,-0.09845120927748541,0.9422140840772109
1539131337961851,0.11969176775768631,-0.09686427100022899,0.944167238879988
1539131337977840,0.11822690165560346,-0.08722056916151688,0.945876249332418
1539131337993829,0.11956969558251274,-0.0888075074387733,0.9435568780041201
1539131338009674,0.12018005645838059,-0.09735255970092327,0.9447775997558558
1539131338025663,0.11578545815213204,-0.09576562142366685,0.9446555275806823
1539131338041651,0.11126878767070991,-0.08844129091325259,0.9485618371862365
1539131338057640,0.1091935606927592,-0.0812390325780119,0.9517357137407494
1539131338073629,0.1071183337148085,-0.08429083695735118,0.9542992294193944
1539131338089618,0.10663004501411422,-0.09112687876707115,0.9561303120469979
1539131338105607,0.10760662241550278,-0.09698634317540256,0.9574731059739072
1539131338121595,0.10992599374380063,-0.09576562142366685,0.9567406729228658
1539131338137584,0.10968184939345349,-0.09076066224155044,0.9540550850690472
1539131338153573,0.11407644769970204,-0.0875867856870376,0.9494163424124515
1539131338169562,0.11395437552452847,-0.08856336308842616,0.9505149919890137
1539131338185551,0.11419851987487561,-0.09369039444571614,0.9502708476386665
1539131338201540,0.11602960250247918,-0.1001602197299154,0.945876249332418
1539131338217528,0.11407644769970204,-0.1001602197299154,0.9495384145876251
1539131338233517,0.11371023117418133,-0.0955214770733197,0.951003280689708
1539131338249506,0.11212329289692491,-0.09491111619745185,0.9524681467917908
1539131338265495,0.11541924162661132,-0.09393453879606328,0.9523460746166172
1539131338281484,0.11261158159761919,-0.09015030136568258,0.9536888685435265
1539131338297473,0.10992599374380063,-0.08941786831464116,0.9582055390249486
1539131338313461,0.10760662241550278,-0.0879530022125583,0.9540550850690472
1539131338329284,0.10687418936446136,-0.08856336308842616,0.9536888685435265
1539131338345273,0.10760662241550278,-0.08661020828564903,0.9569848172732129
1539131338361261,0.11273365377279276,-0.08368047608148332,0.9547875181200887
1539131338377249,0.11456473640039633,-0.08624399176012831,0.9508812085145344
1539131338393238,0.11944762340733917,-0.08917372396429402,0.9545433737697415
1539131338409226,0.12494087129014986,-0.09234760051880686,0.9564965285725187
1539131338425214,0.12530708781567146,-0.09478904402227828,0.9579613946746015
1539131338441203,0.1255512321660186,-0.0905165178912033,0.9511253528648815
1539131338457191,0.12213321126115773,-0.0858777752346076,0.9434348058289466
1539131338473179,0.11786068513008274,-0.07721065079728406,0.9423361562523844
1539131338489168,0.11041428244449492,-0.07257190814068837,0.9474631876096744
1539131338505156,0.10650797283894065,-0.07086289768825837,0.9524681467917908
1539131338521144,0.10479896238651065,-0.06964217593652267,0.9519798580910965
1539131338537133,0.10955977721827992,-0.06768902113374553,0.9499046311131458
1539131338553121,0.11432059205004919,-0.07196154726482051,0.9461203936827651
1539131338569110,0.11590753032730561,-0.08026245517662334,0.9521019302662701
1539131338585098,0.11773861295490917,-0.08514534218356618,0.9508812085145344
1539131338601086,0.12066834515907487,-0.08624399176012831,0.944167238879988
1539131338617075,0.12445258258945557,-0.08319218738078904,0.9464866102082858
1539131338633063,0.1222552834363313,-0.08014038300144977,0.9470969710841537
1539131338648895,0.12152285038528987,-0.08136110475318548,0.9523460746166172
1539131338664882,0.12127870603494273,-0.08416876478217761,0.9499046311131458
1539131338680870,0.12750438696879574,-0.08014038300144977,0.943312733653773
1539131338696857,0.12921339742122573,-0.07354848554207694,0.9480735484855423
1539131338712844,0.13141069657435,-0.0678110933089191,0.9470969710841537
1539131338728832,0.12994583047226715,-0.0707408255130848,0.9469748989089801
1539131338744819,0.12945754177157287,-0.07550164034485407,0.9463645380331123
1539131338760807,0.12701609826810145,-0.08111696040283833,0.9523460746166172
1539131338776794,0.12542915999084503,-0.08099488822766476,0.9508812085145344
1539131338792781,0.12213321126115773,-0.07489127946898622,0.9553978789959565
1539131338808769,0.1251850156404979,-0.06890974288548124,0.9573510337987337
1539131338824756,0.12738231479362216,-0.06329442282749698,0.9574731059739072
1539131338840744,0.12835889219501073,-0.05902189669642155,0.9560082398718244
1539131338856731,0.12823682001983716,-0.054627298390172996,0.9532005798428322
1539131338872718,0.12945754177157287,-0.05365072098878443,0.9483176928358894
1539131338888706,0.13116655222400286,-0.06182955672541368,0.9412375066758223
1539131338904693,0.1310444800488293,-0.07049668116273766,0.9436789501792937
1539131338920681,0.12530708781567146,-0.07306019684138265,0.9447775997558558
1539131338936668,0.12103456168459559,-0.06976424811169624,0.9500267032883194
1539131338952655,0.12091248950942202,-0.06512550545510054,0.9499046311131458
1539131338968536,0.12018005645838059,-0.0669565880827041,0.9530785076676587
1539131338984523,0.12018005645838059,-0.07281605249103551,0.9558861676966508
1539131339000510,0.12372014953841415,-0.0791638056000612,0.9525902189669644
1539131339016497,0.12530708781567146,-0.08258182650492119,0.9553978789959565
1539131339032484,0.12799267566949002,-0.08099488822766476,0.9556420233463037
1539131339048471,0.12994583047226715,-0.08111696040283833,0.9491721980621044
1539131339064458,0.12872510872053144,-0.07782101167315192,0.9480735484855423
1539131339080444,0.12909132524605216,-0.07196154726482051,0.9448996719310294
1539131339096431,0.130556191348135,-0.06524757763027411,0.940749217975128
1539131339112418,0.13006790264744073,-0.0640268558785384,0.946730754558633
1539131339128405,0.132265201800565,-0.06512550545510054,0.9489280537117573
1539131339144392,0.13165484092469715,-0.06817730983443981,0.9542992294193944
1539131339160379,0.1301899748226143,-0.07013046463721695,0.9557640955214772
1539131339176366,0.12823682001983716,-0.06646829938200982,0.9596704051270315
1539131339192353,0.12457465476462914,-0.06036469062333083,0.9619897764553293
1539131339208340,0.12359807736324058,-0.05560387579156156,0.9532005798428322
1539131339224327,0.1214007782101163,-0.05560387579156156,0.9502708476386665
1539131339240314,0.12005798428320702,-0.059876401922636546,0.9519798580910965
1539131339256301,0.1222552834363313,-0.06622415503166268,0.9457541771572444
1539131339272287,0.12372014953841415,-0.07147325856412623,0.9394064240482187
1539131339288147,0.12823682001983716,-0.07135118638895266,0.9379415579461359
1539131339304133,0.13006790264744073,-0.06793316548409267,0.9384298466468302
1539131339320119,0.13165484092469715,-0.06720073243305125,0.9488059815365837
1539131339336106,0.12921339742122573,-0.06842145418478696,0.9563744563973451
1539131339352092,0.12823682001983716,-0.0724498359655148,0.9671168078126193
1539131339368079,0.13116655222400286,-0.07013046463721695,0.9633325703822386
1539131339384065,0.12994583047226715,-0.06829938200961339,0.9638208590829329
1539131339400052,0.13116655222400286,-0.06268406195162912,0.9596704051270315
1539131339416038,0.12994583047226715,-0.06427100022888554,0.9538109407187001
1539131339432025,0.12872510872053144,-0.0678110933089191,0.9468528267338066
1539131339448011,0.12835889219501073,-0.06854352635996053,0.9457541771572444
1539131339463997,0.12091248950942202,-0.06927595941100195,0.9459983215075916
1539131339479984,0.12457465476462914,-0.06854352635996053,0.9363546196688795
1539131339495970,0.12237735561150487,-0.06927595941100195,0.9446555275806823
1539131339511957,0.12237735561150487,-0.06732280460822482,0.9472190432593273
1539131339527943,0.12237735561150487,-0.06561379415579482,0.9522240024414437
1539131339543930,0.12091248950942202,-0.06500343327992697,0.9579613946746015
1539131339559916,0.1231097886625463,-0.07013046463721695,0.9560082398718244
1539131339575903,0.12408636606393486,-0.07037460898756409,0.9562523842221715
1539131339591889,0.1276264591439693,-0.06659037155718339,0.9529564354924851
1539131339607757,0.13043411917296144,-0.06598001068131554,0.9479514763103687
1539131339623743,0.130556191348135,-0.07000839246204338,0.9488059815365837
1539131339639729,0.132265201800565,-0.07354848554207694,0.951003280689708
1539131339655715,0.13287556267643286,-0.07562371252002764,0.9507591363393608
1539131339671701,0.13263141832608571,-0.0733043411917298,0.948439765011063
1539131339687687,0.130556191348135,-0.06732280460822482,0.9500267032883194
1539131339703673,0.13043411917296144,-0.06414892805371197,0.9380636301213094
1539131339719659,0.12774853131914288,-0.06353856717784412,0.9419699397268637
1539131339735645,0.12750438696879574,-0.06500343327992697,0.9417257953765166
1539131339751631,0.12616159304188646,-0.06585793850614197,0.9420920119020373
1539131339767617,0.12713817044327502,-0.06378271152819126,0.941603723201343
1539131339783603,0.124330510414282,-0.06463721675440626,0.951003280689708
1539131339799589,0.12323186083771986,-0.06964217593652267,0.9623559929808501
1539131339815575,0.12164492256046344,-0.0736705577172505,0.9665064469367515
1539131339831561,0.1214007782101163,-0.07269398031586194,0.9665064469367515
1539131339847547,0.12372014953841415,-0.06915388723582838,0.9605249103532465
1539131339863533,0.12628366521706003,-0.06524757763027411,0.9522240024414437
1539131339879519,0.13250934615091214,-0.06646829938200982,0.9446555275806823
1539131339895505,0.13263141832608571,-0.06829938200961339,0.9389181353475244
1539131339911491,0.13263141832608571,-0.06683451590753053,0.9368429083695737
1539131339927398,0.1284809643701843,-0.06524757763027411,0.9370870527199209
1539131339943384,0.12872510872053144,-0.06353856717784412,0.939894712748913
1539131339959369,0.1281147478446636,-0.06414892805371197,0.945021744106203
1539131339975355,0.12628366521706003,-0.06829938200961339,0.9513694972152287
1539131339991340,0.12481879911497629,-0.06732280460822482,0.9562523842221715
1539131340007326,0.12628366521706003,-0.062439917601281536,0.9564965285725187
1539131340023311,0.12860303654535787,-0.057190814068817986,0.9634546425574122
1539131340039297,0.1276264591439693,-0.05938811322194226,0.9606469825284201
1539131340055282,0.12542915999084503,-0.06256198977645555,0.9605249103532465
1539131340071268,0.12298771648737272,-0.06634622720683625,0.9611352712291144
1539131340087253,0.12042420080872773,-0.06268406195162912,0.9588158999008165
1539131340103239,0.11993591210803345,-0.06329442282749698,0.9499046311131458
1539131340119224,0.12298771648737272,-0.06671244373235696,0.9440451667048144
1539131340135210,0.12799267566949002,-0.07232776379034123,0.9403830014496073
1539131340151195,0.12921339742122573,-0.07440299076829193,0.9447775997558558
1539131340167181,0.12982375829709358,-0.07208361943999408,0.9523460746166172
1539131340183166,0.12921339742122573,-0.0657358663309684,0.951857785915923
1539131340199152,0.12799267566949002,-0.06207370107576082,0.9549095902952622
1539131340215137,0.12982375829709358,-0.062439917601281536,0.951857785915923
1539131340231123,0.13080033569848215,-0.062439917601281536,0.9511253528648815
1539131340247009,0.13409628442816857,-0.06390478370336483,0.9502708476386665
1539131340262994,0.13202105745021786,-0.06683451590753053,0.9483176928358894
1539131340278980,0.13385214007782142,-0.06622415503166268,0.945021744106203
1539131340294965,0.13031204699778787,-0.06353856717784412,0.9538109407187001
1539131340310951,0.12823682001983716,-0.060975051499198685,0.9555199511711301
1539131340326936,0.12689402609292788,-0.059754329747462975,0.9539330128938737
1539131340342922,0.1276264591439693,-0.06561379415579482,0.9539330128938737
1539131340358907,0.12567330434119217,-0.06805523765926624,0.9563744563973451
1539131340374893,0.12616159304188646,-0.0640268558785384,0.9555199511711301
1539131340390878,0.12567330434119217,-0.062439917601281536,0.9519798580910965
1539131340406864,0.12738231479362216,-0.06366063935301769,0.9481956206607158
1539131340422849,0.12530708781567146,-0.0613412680247194,0.9521019302662701
1539131340438835,0.12664988174258074,-0.058533607995727266,0.9489280537117573
1539131340454820,0.12713817044327502,-0.06158541237506654,0.950148775463493
1539131340470806,0.12689402609292788,-0.06756694895857196,0.9539330128938737
1539131340486791,0.12945754177157287,-0.0745250629434655,0.9647974364843215
1539131340502777,0.13214312962539143,-0.07550164034485407,0.9580834668497751
1539131340518762,0.13849088273441712,-0.06903181506065481,0.954421301594568
1539131340534748,0.13446250095368928,-0.055848020141908705,0.9530785076676587
1539131340550733,0.1267719539177543,-0.04510566872663446,0.9533226520180058
1539131340566619,0.11578545815213204,-0.04901197833218873,0.9523460746166172
1539131340582605,0.10943770504310635,-0.05743495841916513,0.9512474250400551
1539131340598590,0.11078049897001563,-0.06536964980544768,0.9448996719310294
1539131340614575,0.11505302510109061,-0.0695201037613491,0.938185702296483
1539131340630560,0.12652780956740717,-0.07415884641794479,0.938185702296483
1539131340646545,0.13653772793163999,-0.0762340733958955,0.9368429083695737
1539131340662530,0.14215304798962425,-0.07306019684138265,0.9359884031433587
1539131340678515,0.14093232623788854,-0.07147325856412623,0.9439230945296408
1539131340694500,0.13751430533302855,-0.06927595941100195,0.9474631876096744
1539131340710485,0.13287556267643286,-0.07122911421377909,0.9605249103532465
1539131340726470,0.1267719539177543,-0.07428091859311836,0.9655298695353629
1539131340742455,0.12530708781567146,-0.07550164034485407,0.9671168078126193
1539131340758440,0.12603952086671288,-0.0707408255130848,0.9663843747615779
1539131340774425,0.12774853131914288,-0.058411535820553695,0.9607690547035936
1539131340790410,0.1281147478446636,-0.047913328755626594,0.9573510337987337
1539131340806395,0.12787060349431645,-0.053772793163958,0.9485618371862365
1539131340822380,0.12872510872053144,-0.06500343327992697,0.9428244449530787
1539131340838365,0.12506294346532432,-0.06756694895857196,0.941603723201343
1539131340854350,0.12469672693980272,-0.06500343327992697,0.9440451667048144
1539131340870335,0.12750438696879574,-0.05609216449225585,0.9394064240482187
1539131340886230,0.12823682001983716,-0.05413900968947871,0.9396505683985659
1539131340902215,0.13250934615091214,-0.059754329747462975,0.9425803006027316
1539131340918199,0.13299763485160643,-0.06768902113374553,0.9418478675516901
1539131340934184,0.1318989852750443,-0.07574578469520121,0.9496604867627987
1539131340950168,0.1318989852750443,-0.0733043411917298,0.9551537346456094
1539131340966153,0.12738231479362216,-0.06964217593652267,0.9601586938277258
1539131340982137,0.12664988174258074,-0.06817730983443981,0.9599145494773786
1539131340998122,0.12664988174258074,-0.06915388723582838,0.9621118486305029
1539131341014106,0.12335393301289344,-0.07049668116273766,0.9571068894483865
1539131341030091,0.12457465476462914,-0.06903181506065481,0.9513694972152287
1539131341046075,0.12884718089570502,-0.06854352635996053,0.9409933623254751
1539131341062060,0.13141069657435,-0.06536964980544768,0.9395284962233923
1539131341078045,0.12994583047226715,-0.060852979324025114,0.9457541771572444
1539131341094029,0.13263141832608571,-0.05413900968947871,0.9473411154345008
1539131341110014,0.13409628442816857,-0.048157473105973736,0.9480735484855423
1539131341125998,0.13495078965438356,-0.05096513313496587,0.9530785076676587
1539131341141983,0.1334859235523007,-0.05255207141222229,0.9585717555504694
1539131341157967,0.13421835660334214,-0.060852979324025114,0.9611352712291144
1539131341173952,0.13287556267643286,-0.06536964980544768,0.9596704051270315
1539131341189936,0.13080033569848215,-0.06768902113374553,0.9632104982070651
1539131341205871,0.13250934615091214,-0.06939803158617552,0.9564965285725187
1539131341221855,0.13336385137712714,-0.0695201037613491,0.948439765011063
1539131341237839,0.13470664530403642,-0.06768902113374553,0.9473411154345008
1539131341253823,0.13385214007782142,-0.06121919584954583,0.9423361562523844
1539131341269807,0.13421835660334214,-0.052918287937743,0.9370870527199209
1539131341285791,0.13165484092469715,-0.046814679179064456,0.9380636301213094
1539131341301776,0.13116655222400286,-0.04864576180666802,0.9419699397268637
1539131341317760,0.13141069657435,-0.05877775234607441,0.945876249332418
1539131341333744,0.13263141832608571,-0.06341649500267055,0.9551537346456094
1539131341349728,0.12994583047226715,-0.062195773250934394,0.9588158999008165
1539131341365712,0.12835889219501073,-0.06207370107576082,0.9662623025864043
1539131341381696,0.13202105745021786,-0.06720073243305125,0.9645532921339743
1539131341397680,0.13311970702678,-0.06915388723582838,0.9667505912870986
1539131341413664,0.13714808880750784,-0.06793316548409267,0.952712291142138
1539131341429648,0.13421835660334214,-0.06707866025787768,0.9516136415655758
1539131341445632,0.13617151140611927,-0.06646829938200982,0.9503929198138401
1539131341461616,0.12823682001983716,-0.06475928892957983,0.9461203936827651
1539131341477600,0.13922331578545855,-0.06878767071030767,0.9384298466468302
1539131341493584,0.13458457312886285,-0.06964217593652267,0.9428244449530787
1539131341509568,0.13165484092469715,-0.07208361943999408,0.9462424658579387
1539131341525482,0.13556115053025142,-0.07232776379034123,0.9485618371862365
1539131341541466,0.13592736705577213,-0.06964217593652267,0.9496604867627987
1539131341557450,0.13580529488059856,-0.06646829938200982,0.9530785076676587
1539131341573434,0.13788052185854927,-0.06903181506065481,0.9523460746166172
1539131341589418,0.1334859235523007,-0.07049668116273766,0.9571068894483865
1539131341605402,0.13299763485160643,-0.07586785687037478,0.9562523842221715
1539131341621386,0.13446250095368928,-0.07696650644693692,0.9507591363393608
1539131341637370,0.1351949340047307,-0.08416876478217761,0.9480735484855423
1539131341653354,0.133974212252995,-0.08599984740978117,0.9513694972152287
1539131341669338,0.13531700617990428,-0.0812390325780119,0.950148775463493
1539131341685322,0.13128862439917643,-0.07550164034485407,0.9497825589379723
1539131341701306,0.12945754177157287,-0.0707408255130848,0.9472190432593273
1539131341717291,0.12652780956740717,-0.06683451590753053,0.9500267032883194
1539131341733275,0.1255512321660186,-0.06683451590753053,0.9575951781490808
1539131341749259,0.13092240787365572,-0.06756694895857196,0.9539330128938737
1539131341765243,0.13116655222400286,-0.0678110933089191,0.9457541771572444
1539131341781227,0.13324177920195357,-0.07061875333791123,0.9478294041351951
1539131341797211,0.13250934615091214,-0.06720073243305125,0.9485618371862365
1539131341813195,0.12909132524605216,-0.06439307240405912,0.9516136415655758
1539131341829179,0.12835889219501073,-0.062195773250934394,0.9503929198138401
1539131341845092,0.12799267566949002,-0.06842145418478696,0.9448996719310294
1539131341861076,0.13006790264744073,-0.07806515602349906,0.9434348058289466
1539131341877060,0.13141069657435,-0.08624399176012831,0.943312733653773
1539131341893043,0.1334859235523007,-0.09539940489814613,0.9451438162813766
1539131341909027,0.13446250095368928,-0.10260166323338682,0.9542992294193944
1539131341925010,0.13336385137712714,-0.11102464332036321,0.9580834668497751
1539131341940994,0.133974212252995,-0.131288624399176,0.9690699626153965
1539131341956977,0.13714808880750784,-0.1480125123979552,0.9611352712291144
1539131341972961,0.13873502708476426,-0.14630350194552522,0.9652857251850158
1539131341988945,0.1259174486915393,-0.11859311818112461,0.9816433966582743
1539131342004928,0.12909132524605216,-0.06305027847714983,0.9567406729228658
1539131342020912,0.14544899671931066,0.012024109254596738,0.9499046311131458
1539131342036895,0.13458457312886285,0.07818722819867219,0.9530785076676587
1539131342052879,0.13556115053025142,0.12628366521706003,0.9438010223544673
1539131342068863,0.12652780956740717,0.12249942778667844,0.9406271457999544
1539131342084846,0.12457465476462914,0.09076066224155,0.9463645380331123
1539131342100830,0.13373006790264785,0.046814679179064456,0.9523460746166172
1539131342116813,0.1406881818875414,5.493247882810692E-4,0.9677271686884872
1539131342132797,0.14642557412069923,-0.0061646448462653325,0.9733424887464714
1539131342148780,0.15863279163805633,0.01629663538567172,0.9693141069657436
1539131342164703,0.16217288471808988,0.0567025253681237,0.9547875181200887
1539131342180687,0.14752422369726137,0.0844129091325243,0.9571068894483865
1539131342196670,0.15216296635385707,0.07904173342488718,0.9580834668497751
1539131342212654,0.14337376974135996,0.062317845426107965,0.9669947356374458
1539131342228637,0.14581521324483138,0.050476844434271584,0.970901045243
1539131342244621,0.17547875181200911,0.07867551689936647,0.9446555275806823
1539131342260604,0.17535667963683554,0.11920347905699202,0.9295185778591595
1539131342276588,0.16021972991531275,0.15765621423666776,0.9240253299763488
1539131342292572,0.1625391012436106,0.1742580300602734,0.9308613717860688
1539131342308555,0.17523460746166197,0.14691386282139351,0.9302510109102009
1539131342324539,0.19098191805905262,0.11041428244449492,0.9235370412756545
1539131342340522,0.20782787823300541,0.04644846265354374,0.9261005569542995
1539131342356506,0.22247653925383393,0.01483176928358887,0.9258564126039524
1539131342372490,0.2898603799496451,-0.023620965896085977,0.9143816281376367
1539131342388473,0.20856031128404684,-0.04095521477073305,0.935622186617838
1539131342404457,0.19647516594186332,-0.07806515602349906,0.9612573434042879
1539131342420440,0.19830624856946688,-0.10199130235751896,0.9582055390249486
1539131342436424,0.25006485084306096,-0.10162508583199825,0.9378194857709623
1539131342452407,0.2633707179369802,-0.04693675135423803,0.9289082169832916
1539131342468391,0.2289463645380332,-0.002868696116578917,0.9342793926909287
1539131342484314,0.24420538643472955,-0.007263294422827471,0.9291523613336388
1539131342500297,0.25775539787899593,-0.032532234683756656,0.9210955977721831
1539131342516280,0.25311665522240023,-0.07953002212558191,0.9197528038452738
1539131342532263,0.2713054093232623,-0.08831921873807902,0.9153582055390252
1539131342548246,0.3132982375829707,-0.0695201037613491,0.9043717097734039
1539131342564229,0.29791714351110077,-0.01641870756084529,0.9104753185320824
1539131342580212,0.2775310902571144,0.033875028610665936,0.9107194628824296
1539131342596195,0.2935225452048522,0.04376287479972518,0.8975356679636839
1539131342612178,0.2932784008545051,0.017883573662928143,0.893507286182956
1539131342628162,0.30011444266422505,-0.009094377050431035,0.9026626993209739
1539131342644145,0.2864423590447851,-0.0357061112382695,0.915724422064546
1539131342660128,0.2860761425192644,-0.03314259555962451,0.9151140611886781
1539131342676111,0.2909590295262072,-0.0061646448462653325,0.9164568551155874
1539131342692094,0.28583199816891725,0.015686274509803866,0.9180437933928438
1539131342708077,0.278507667658503,0.021911955443655984,0.9206073090714888
1539131342724060,0.275089646753643,0.011535820553902454,0.9292744335088123
1539131342740043,0.275944151979858,-0.002868696116578917,0.9306172274357216
1539131342756026,0.28155947203784226,-0.007263294422827471,0.9275654230563823
1539131342772009,0.2772869459067673,-0.011291676203555312,0.9335469596398873
1539131342787993,0.27106126497291516,-0.007507438773174613,0.9292744335088123
1539131342803955,0.2671549553673609,-0.004699778744182481,0.9318379491874573
1539131342819938,0.270817120622568,-0.010193026626993174,0.9235370412756545
1539131342835921,0.2737468528267337,-0.004943923094529623,0.9184100099183645
1539131342851904,0.27362478065156015,0.0042114900434881974,0.9141374837872895
1539131342867887,0.27118333714808873,0.0025024795910582043,0.9256122682536052
1539131342883870,0.2645914396887159,0.0012817578393224949,0.9358663309681852
1539131342899853,0.27277027542534515,0.010559243152513886,0.9560082398718244
1539131342915836,0.2667887388418402,0.015320057984283153,0.9999542229343099
1539131342931820,0.2680094605935759,0.008117799649042468,1.0351110093842983
1539131342947803,0.28741893644617367,0.02398718242160669,1.054276340886549
1539131342963786,0.2924238956282901,0.05877775234607441,1.0658731975280382
1539131342979769,0.32233157854581496,0.08050659952697004,1.2252994583047228
1539131342995752,0.42865644312199613,-0.034973678187228074,1.467612726024262
1539131343011735,0.41681544213015975,-0.09161516746776543,1.6833142595559627
1539131343027718,0.41351949340047334,-0.11639581902800034,1.790493629358358
1539131343043701,0.4342717631799804,-0.19269092851148262,1.8111238269626915
1539131343059684,0.4149843595025562,-0.23578240634775316,1.6997940032043948
1539131343075667,0.37811856260013776,-0.24579232471198598,1.4760357061112384
1539131343091651,0.3162279697871364,-0.23199816891737246,1.2431219958800641
1539131343107634,0.241519798580911,-0.2007476920729383,0.9910429541466392
1539131343123565,0.19122606240939977,-0.16839856565194156,0.8080567635614555
1539131343139548,0.1852445258258948,-0.09906157015335326,0.6361791409170676
1539131343155532,0.11456473640039633,-0.03997863736934448,0.4993362325474937
1539131343171515,-0.06512550545510054,0.05242999923704872,0.4444037537193868
1539131343187498,0.08123903257801146,0.025574120698863112,0.3519951171129927
1539131343203481,-0.03289845120927737,0.04888990615701516,0.275944151979858
1539131343219464,-0.07135118638895266,0.046692607003890885,0.23651483939879459
1539131343235447,-0.11248950942244607,0.055970092317082276,0.20697337300679042
1539131343251430,-0.13617151140611883,0.062439917601281536,0.1625391012436106
1539131343267413,-0.14019989318684667,0.04132143129625376,0.1448386358434428
1539131343283396,-0.093446250095369,0.04730296787975874,0.10003814755474139
1539131343299379,-0.11322194247348749,0.013366903181506018,0.10528725108720494
1539131343315363,-0.1165178912031739,-0.017883573662928143,0.1259174486915393
1539131343331346,-0.05011062790875087,-0.003479056992446772,0.12481879911497629
1539131343347329,0.03839169909208806,0.026306553749904538,0.050476844434271584
1539131343363312,0.13543907835507785,0.08734264133669001,-0.09820706492713827
1539131343379295,0.17108415350576056,0.14935530632486493,-0.3252613107499811
1539131343395278,0.2625162127107652,0.24701304646372169,-0.5161821927214465
1539131343411261,0.4469672693980318,0.30267795834287003,-0.5911345082780195
1539131343427244,0.7328603036545358,0.24042114900434886,-0.3388113221942475
1539131343443176,1.2635080491340505,0.23956664377813386,0.19256885633630905
1539131343459159,0.6194552529182875,-2.034882124055848,4.0
1539131343475141,0.38410009918364274,2.3891355764095525,2.1021438925764855
1539131343491124,-0.015808346684977437,0.7259021896696423,0.43231860837720326
1539131343507106,0.25970855268177306,0.661692225528344,1.5400015259021895
1539131343523089,0.2721599145494773,0.7400625619897765,1.655603875791562
1539131343539072,0.4408636606393532,0.3884946974898913,1.5352407110704203
1539131343555054,0.5598840314335849,0.3994811932555127,1.6040894178683143
1539131343571037,0.6049286640726326,0.1532616159304192,1.6066529335469593
1539131343587020,0.5001907377737087,0.05658045319295013,1.351522087434195
1539131343603002,0.38446631570916345,-0.0020141908903639205,0.9618677042801558
1539131343618985,0.25677882047760736,-0.033752956435492365,0.6261692225528348
1539131343634967,0.14251926451514496,-0.04058899824521234,0.3599298084992748
1539131343650950,0.07757686732280433,-0.041443503471427334,0.21832608529793252
1539131343666933,0.040100709544518054,-0.05816739147020655,0.19085984588387905
1539131343682915,0.053162432288090145,-0.0736705577172505,0.24689097428854812
1539131343698898,0.08380254825665645,-0.08319218738078904,0.3554131380178527
1539131343714881,0.10821698329137064,-0.1018692301823454,0.4900587472343023
1539131343730863,0.11163500419623062,-0.12091248950942246,0.6261692225528348
1539131343746846,0.13275349050125929,-0.14691386282139307,0.742748149843595
1539131343762786,0.1432516975661864,-0.16253910124361015,0.8506599526970318
1539131343778769,0.16021972991531275,-0.15863279163805588,0.9291523613336388
1539131343794752,0.1646143282215613,-0.15545891508354304,0.9688258182650493
1539131343810734,0.1663233386739913,-0.15338368810559233,0.9911650263218128
1539131343826717,0.17120622568093413,-0.13934538796063167,0.9904325932707714
1539131343842700,0.17230487525749627,-0.12262149996185245,0.9864042114900435
1539131343858682,0.18158236057068766,-0.08892957961394687,0.9630884260318915
1539131343874665,0.17572289616235626,-0.06329442282749698,0.9187762264438852
1539131343890648,0.16766613260090057,-0.054627298390172996,0.8872816052491039
1539131343906630,0.16412603952086702,-0.0499885557335773,0.864820325017166
1539131343922613,0.1680323491264213,-0.03216601815823594,0.8601815823605703
1539131343938595,0.17486839093614126,-0.013122758831158876,0.8717784390020595
1539131343954578,0.19256885633630905,0.01898222323949028,0.873365377279316
1539131343970561,0.19916075379568188,0.04449530785076661,0.8891126878767075
1539131343986543,0.20465400167849257,0.07074082551308436,0.8931410696574353
1539131344002526,0.20794995040817899,0.07708857862211005,0.9130388342107274
1539131344018509,0.2171053635461968,0.07086289768825793,0.9312275883115895
1539131344034491,0.2330968184939346,0.03265430685893023,0.9612573434042879
1539131344050474,0.25677882047760736,0.019226367589837423,1.0005645838101778
1539131344066456,0.2717936980239566,-0.017151140611886717,1.0458533607995726
1539131344082397,0.2781414511329823,-0.04779125658045302,1.0719768062867168
1539131344098379,0.28033875028610655,-0.05401693751430514,1.0355992980849926
1539131344114361,0.2764324406805523,-0.08453498130769832,1.0050812542916
1539131344130344,0.271671625848783,-0.09112687876707115,0.97773708705272
1539131344146326,0.2695963988708323,-0.08648813611047546,0.9434348058289466
1539131344162308,0.2704509040970473,-0.08575570305943403,0.9333028152895402
1539131344178290,0.2783855954833294,-0.07269398031586194,0.907179369802396
1539131344194272,0.2868085755703058,-0.06805523765926624,0.8775158312352183
1539131344210254,0.2893720912489508,-0.05487144274052014,1.1087205310139616
1539131344226236,0.2932784008545051,-0.02398718242160669,1.3173418783855952
1539131344242219,0.26776531624322875,-0.014221408407721015,1.0200961318379491
1539131344258201,0.23541618982223245,0.005676356145571049,0.7520256351567864
1539131344274183,0.23199816891737246,-0.0042114900434881974,0.7691157396810864
1539131344290165,0.2448157473105974,-0.017883573662928143,0.9639429312581065
1539131344306147,0.24701304646372169,-0.03289845120927737,1.0573281452658883
1539131344322129,0.2453040360112917,-0.02679484245059882,0.97602807660029
1539131344338112,0.2465247577630274,-0.01226825360494388,0.8971694514381632
1539131344354094,0.2520180056458381,3.0518043793392735E-4,0.8957045853360803
1539131344370076,0.2680094605935759,0.007385366598001042,0.934767681391623
1539131344386058,0.28070496681162727,0.007751583123521755,0.9514915693904022
1539131344402008,0.2818036163881894,-0.007751583123521755,0.9367208361944002
1539131344417990,0.2847333485923551,-0.03033493553063238,0.9240253299763488
1539131344433972,0.2764324406805523,-0.049500267032883016,0.9312275883115895
1539131344449954,0.27118333714808873,-0.04449530785076661,0.9453879606317237
1539131344465936,0.27875181200885013,6.713969634546402E-4,0.9561303120469979
1539131344481918,0.2687418936446173,0.03668268863965807,0.9319600213626309
1539131344497901,0.25763332570382236,0.09076066224155,0.9079118028534374
1539131344513883,0.2453040360112917,0.11200122072175134,0.9137712672617688
1539131344529865,0.238101777676051,0.08868543526359929,0.9357442587930116
1539131344545847,0.23065537499046318,0.03607232776379021,0.9455100328068973
1539131344561829,0.238101777676051,-0.019348439765010994,0.9528343633173115
1539131344577811,0.25555809872587165,-0.04315251392385733,0.9480735484855423
1539131344593793,0.2578774700541695,-0.0289921416037231,0.9427023727779051
1539131344609776,0.2632486457618066,-0.007751583123521755,0.933058670939193
1539131344625758,0.25983062485694663,0.007385366598001042,0.9246356908522166
1539131344641740,0.26227206836041805,0.0016479743648432077,0.9292744335088123
1539131344657722,0.26520180056458376,-0.011291676203555312,0.9391622796978716
1539131344673704,0.26276035706111234,-0.018127718013275285,0.9422140840772109
1539131344689686,0.26141756313420306,-0.021179522392614558,0.9394064240482187
1539131344705669,0.2638590066376745,-0.009338521400778177,0.9319600213626309
1539131344721618,0.25677882047760736,0.012512397955291021,0.9198748760204474
1539131344737600,0.2525062943465324,0.029724574654764524,0.9125505455100331
1539131344753583,0.242374303807126,0.029724574654764524,0.919142442969406
1539131344769565,0.24042114900434886,0.014465552758068156,0.9234149691004809
1539131344785547,0.23834592202639815,-0.006286717021438903,0.9259784847791259
1539131344801529,0.24127565423056385,-0.02423132677195383,0.9258564126039524
1539131344817511,0.2499427786678874,-0.022034027618829555,0.9269550621805145
1539131344833493,0.2565346761272602,-0.00323491264209963,0.9223163195239188
1539131344849475,0.2628824292362859,0.01886015106431671,0.9159685664148931
1539131344865458,0.26727702754253446,0.033630884260318794,0.9158464942397195
1539131344881440,0.2575112535286488,0.029968719005111666,0.931349660486763
1539131344897422,0.2570229648279545,0.002868696116578917,0.945021744106203
1539131344913404,0.24957656214236668,-0.016784924086366004,0.940749217975128
1539131344929386,0.24347295338368813,-0.013000686655985305,0.9306172274357216
1539131344945368,0.23578240634775316,0.0071412222476539,0.9357442587930116
1539131344961351,0.22943465323872747,0.03179980163271523,0.9533226520180058
1539131344977333,0.2246738384069582,0.043030441748683756,0.9472190432593273
1539131344993315,0.22613870450904106,0.03216601815823594,0.935622186617838
1539131345009297,0.22662699320973534,0.02386511024643312,0.938185702296483
1539131345025279,0.2167391470206761,0.03802548256656735,0.9418478675516901
1539131345041259,0.23150988021667818,0.03033493553063238,0.9228046082246131
1539131345057242,0.22796978713664462,0.045593957427328746,0.9325703822384988
1539131345073224,0.2255283436331732,0.04827954528114731,0.9474631876096744
1539131345089206,0.19708552681773117,0.045593957427328746,0.9622339208056765
1539131345105188,0.23028915846494247,0.009460593575951748,0.9456321049820708
1539131345121170,0.22882429236285962,-0.008850232700083893,0.9385519188220037
1539131345137152,0.22272068360418107,-0.007873655298695326,0.9436789501792937
1539131345153134,0.22943465323872747,0.007751583123521755,0.9302510109102009
1539131345169117,0.23114366369115746,0.036316472114137355,0.9098649576562146
1539131345185099,0.23028915846494247,0.06073090714885154,0.9092545967803467
1539131345201081,0.2322423132677196,0.06378271152819082,0.9221942473487452
1539131345217063,0.23785763332570387,0.06353856717784367,0.9401388570992602
1539131345233045,0.22821393148699176,0.06842145418478651,0.9418478675516901
1539131345249027,0.21478599221789896,0.06536964980544724,0.9336690318150609
1539131345265010,0.22772564278629748,0.050476844434271584,0.9206073090714888
1539131345280992,0.22735942626077676,0.03350881208514522,0.9300068665598538
1539131345296974,0.23651483939879459,0.028625925078202386,0.9383077744716566
1539131345312956,0.2301670862897689,0.03546196688792236,0.9428244449530787
1539131345328938,0.21405355916685753,0.05023270008392444,0.9446555275806823
1539131345344920,0.2301670862897689,0.04364080262455161,0.9585717555504694
1539131345360870,0.3090257114518957,-0.020447089341573133,0.9168230716411081
1539131345376852,0.27154955367360945,-0.05474937056534657,0.9120622568093388
1539131345392834,0.2251621271076525,-0.050720988784618726,0.9507591363393608
1539131345408816,0.22943465323872747,-0.0357061112382695,0.9502708476386665
1539131345424799,0.2448157473105974,-0.01483176928358887,0.9355001144426645
1539131345440781,0.24286259250782027,-0.011413748378728883,0.9110856794079503
1539131345456763,0.24957656214236668,-0.030823224231326662,0.9051041428244453
1539131345472745,0.24213015945677885,-0.07428091859311836,0.9302510109102009
1539131345488727,0.2343175402456703,-0.11993591210803389,0.9584496833752958
1539131345504709,0.2368810559243153,-0.15411612115663376,0.96577401388571
1539131345520691,0.24310673685816742,-0.1447165636682688,0.9566186007476922
1539131345536674,0.2515297169451438,-0.09491111619745185,0.9411154345006487
1539131345552656,0.2516517891203174,-0.04779125658045302,0.9340352483405816
1539131345568638,0.25506981002517737,-0.026184481574730967,0.9315938048371102
1539131345584620,0.25433737697413594,-0.027405203326466676,0.9256122682536052
1539131345600602,0.26105134660868234,-0.033630884260318794,0.9226825360494395
1539131345616584,0.26398107881284805,-0.041687647821774476,0.9177996490424967
1539131345632567,0.27826352330815585,-0.048035400930800165,0.9184100099183645
1539131345648549,0.28754100862134724,-0.054383154039825854,0.9066910811017017
1539131345664531,0.28583199816891725,-0.04180971999694805,0.907179369802396
1539131345680481,0.2704509040970473,-0.0365606164644845,0.9101091020065617
1539131345696462,0.2623941405355916,-0.06341649500267055,0.9073014419775696
1539131345712444,0.2805828946364537,-0.11200122072175178,0.9184100099183645
1539131345728426,0.27325856412603944,-0.12079041733424889,0.9524681467917908
1539131345744407,0.27313649195086587,-0.1018692301823454,0.9551537346456094
1539131345760389,0.28461127641718154,-0.0791638056000612,0.9375753414206152
1539131345776371,0.30841535057602787,-0.058533607995727266,0.9127946898603803
1539131345792352,0.2872968642710001,-0.04351873044937804,0.911451895933471
1539131345808334,0.27875181200885013,-0.04718089570458517,0.9229266803997866
1539131345824316,0.273380636301213,-0.05474937056534657,0.9254901960784316
1539131345840297,0.2743572137026016,-0.05877775234607441,0.909742885481041
1539131345856279,0.27240405889982444,-0.07061875333791123,0.9076676585030903
1539131345872261,0.27606622415503157,-0.0850232700083926,0.9141374837872895
1539131345888242,0.27325856412603944,-0.0905165178912033,0.9167009994659345
1539131345904224,0.2818036163881894,-0.08599984740978117,0.9086442359044788
1539131345920206,0.29962615396353076,-0.06207370107576082,0.8949721522850389
1539131345936187,0.30255588616769646,-0.02398718242160669,0.8937514305333032
1539131345952169,0.2952315556572822,0.0016479743648432077,0.9052262149996189
1539131345968151,0.3024338139925229,0.007507438773174613,0.9051041428244453
1539131345984132,0.2932784008545051,-0.007995727473868897,0.9171892881666288
1539131346000091,0.29120317387655437,-0.01617456321049815,0.9386739909971773
1539131346016073,0.28839551384756223,-0.011657892729076025,0.9451438162813766
1539131346032055,0.2788738841840237,-0.001037613488975353,0.9474631876096744
1539131346048036,0.2700846875715266,0.0025024795910582043,0.9480735484855423
1539131346064018,0.2713054093232623,-0.006775005722133187,0.9369649805447473
1539131346080000,0.26227206836041805,-0.01995880064087885,0.9334248874647137
1539131346095981,0.26483558403906304,-0.023376821545738835,0.9278095674067295
1539131346111963,0.2609292744335088,-0.01751735713740743,0.919142442969406
1539131346127945,0.2545815213244831,-0.01617456321049815,0.9193865873197531
1539131346143926,0.25799954222934307,-0.013977264057373873,0.9201190203707945
1539131346159908,0.25311665522240023,-0.014587624933241727,0.9215838864728774
1539131346175890,0.2611734187838559,-0.01886015106431671,0.9275654230563823
1539131346191871,0.2638590066376745,-0.02655069810025168,0.9306172274357216
1539131346207853,0.26935225452048517,-0.024963759822995257,0.9275654230563823
1539131346223835,0.2766765850308994,-0.020691233691920274,0.9270771343556881
1539131346239816,0.2859540703440908,-0.018005645838101714,0.9209735255970095
1539131346255798,0.29217975127794293,-0.018249790188448856,0.919996948195621
1539131346271780,0.2919356069275958,-0.019836728465705278,0.9225604638742659
1539131346287761,0.29340047302967864,-0.02288853284504455,0.9230487525749602
1539131346303743,0.2947432669565879,-0.02252231631952384,0.9230487525749602
1539131346319671,0.2948653391317615,-0.022400244144350268,0.9167009994659345
1539131346335653,0.2918135347524222,-0.019226367589837423,0.9142595559624631
1539131346351635,0.2894941634241244,-0.012756542305638163,0.911451895933471
1539131346367616,0.2926680399786372,-0.009582665751125319,0.9115739681086446
1539131346383598,0.28961623559929794,-0.015442130159456724,0.9096208133058674
1539131346399580,0.28375677119096654,-0.0289921416037231,0.915724422064546
1539131346415561,0.28656443121995867,-0.03717097734035235,0.9218280308232245
1539131346431543,0.2835126268406194,-0.04449530785076661,0.9236591134508281
1539131346447525,0.28155947203784226,-0.04864576180666802,0.9286640726329445
1539131346463506,0.2781414511329823,-0.04510566872663446,0.933058670939193
1539131346479488,0.275089646753643,-0.03411917296101308,0.9295185778591595
1539131346495470,0.27692072938124657,-0.03179980163271523,0.9263447013046466
1539131346511451,0.28033875028610655,-0.03448538948653379,0.9197528038452738
1539131346527433,0.2843671320668344,-0.04364080262455161,0.914869916838331
1539131346543415,0.2872968642710001,-0.047913328755626594,0.9137712672617688
1539131346559396,0.2872968642710001,-0.04498359655146089,0.9163347829404138
1539131346575378,0.2948653391317615,-0.04132143129625376,0.9184100099183645
1539131346591360,0.29413290608072007,-0.02911421377889667,0.916578927290761
1539131346607341,0.2880292973220415,-0.015686274509803866,0.9175555046921495
1539131346623323,0.28082703898680084,-0.013977264057373873,0.9239032578011752
1539131346639282,0.2830243381399251,-0.02398718242160669,0.9196307316701002
1539131346655263,0.2804608224612801,-0.033630884260318794,0.9257343404287788
1539131346671244,0.27997253376058584,-0.03411917296101308,0.9254901960784316
1539131346687225,0.2814373998626687,-0.03350881208514522,0.9257343404287788
1539131346703207,0.2897383077744715,-0.029480430304417382,0.9258564126039524
1539131346719188,0.28912794689860366,-0.02410925459678026,0.9234149691004809
1539131346735169,0.2905928130006865,-0.018127718013275285,0.9271992065308616
1539131346751150,0.2947432669565879,-0.017151140611886717,0.9231708247501338
1539131346767131,0.29425497825589364,-0.017761501487754572,0.9158464942397195
1539131346783113,0.2938887617303729,-0.028137636377508102,0.9163347829404138
1539131346799094,0.2902265964751658,-0.03997863736934448,0.9231708247501338
1539131346815075,0.29584191653315006,-0.042908369573510186,0.9149919890135045
1539131346831056,0.2991378652628365,-0.03179980163271523,0.9107194628824296
1539131346847037,0.2931563286793315,-0.01751735713740743,0.9171892881666288
1539131346863019,0.2855878538185701,-0.013244831006332447,0.9136491950865953
1539131346879000,0.27789730678263513,-0.018127718013275285,0.9136491950865953
1539131346894981,0.2717936980239566,-0.033752956435492365,0.9234149691004809
1539131346910962,0.27191577019913016,-0.04083314259555948,0.9232928969253074
1539131346926943,0.2678873884184023,-0.04339665827420447,0.9278095674067295
1539131346942925,0.2663004501411459,-0.04351873044937804,0.933913176165408
1539131346958892,0.27325856412603944,-0.04632639047837017,0.9279316395819031
1539131346974874,0.27704280155642014,-0.046814679179064456,0.9259784847791259
1539131346990855,0.2833905546654458,-0.04730296787975874,0.9231708247501338
1539131347006836,0.2923018234531165,-0.0470588235294116,0.9164568551155874
1539131347022817,0.2969405661097122,-0.03997863736934448,0.9120622568093388
1539131347038798,0.3057297627222093,-0.0365606164644845,0.9149919890135045
1539131347054780,0.3090257114518957,-0.0289921416037231,0.9093766689555203
1539131347070761,0.2986495765621422,-0.0252079041733424,0.9136491950865953
1539131347086742,0.2926680399786372,-0.02911421377889667,0.9264667734798202
1539131347102723,0.28168154421301583,-0.030212863355458808,0.9269550621805145
1539131347118704,0.2781414511329823,-0.0319218738078888,0.9256122682536052
1539131347134686,0.27533379110399014,-0.0319218738078888,0.9252460517280845
1539131347150667,0.27704280155642014,-0.027161058976119534,0.9257343404287788
1539131347166648,0.27570000762951086,-0.020569161516746703,0.9220721751735717
1539131347182629,0.27997253376058584,-0.02410925459678026,0.9126726176852067
1539131347198610,0.27948424505989156,-0.040344853894865196,0.9154802777141988
1539131347214592,0.27826352330815585,-0.049378194857709445,0.9187762264438852
1539131347230573,0.2800946059357594,-0.04986648355840373,0.9164568551155874
1539131347246554,0.28155947203784226,-0.045349813076981604,0.9136491950865953
1539131347262535,0.28925001907377723,-0.03973449301899734,0.9151140611886781
1539131347278534,0.29120317387655437,-0.042664225223163044,0.9142595559624631
1539131347294515,0.3010910200656136,-0.05804531929503298,0.9281757839322502
1539131347310496,0.30218966964217575,-0.06732280460822482,0.9324483100633252
1539131347326477,0.3020675974670022,-0.059632257572289404,0.9278095674067295
1539131347342458,0.2990157930876629,-0.050598916609445155,0.9208514534218359
1539131347358440,0.2957198443579765,-0.049256122682535874,0.9220721751735717
1539131347374421,0.2924238956282901,-0.04901197833218873,0.9188982986190588
1539131347390402,0.2915693904020751,-0.04339665827420447,0.9129167620355538
1539131347406383,0.29254596780346365,-0.039002059967955915,0.9098649576562146
1539131347422364,0.28497749294270225,-0.0365606164644845,0.9044937819485774
1539131347438346,0.2809491111619744,-0.03179980163271523,0.9113298237582974
1539131347454327,0.2783855954833294,-0.03070115205615309,0.9213397421225302
1539131347470308,0.28668650339513224,-0.03546196688792236,0.9225604638742659
1539131347486289,0.2918135347524222,-0.03973449301899734,0.919142442969406
1539131347502270,0.2927901121538108,-0.04205386434729519,0.9186541542687117
1539131347518252,0.29169146257724865,-0.041565575646600905,0.9224383916990924
1539131347534233,0.2864423590447851,-0.03961242084382377,0.9208514534218359
1539131347550214,0.2932784008545051,-0.04571602960250232,0.914869916838331
1539131347566195,0.29132524605172794,-0.05951018539711583,0.9160906385900667
1539131347582176,0.28912794689860366,-0.07183947508964694,0.9236591134508281
1539131347598144,0.2871747920958265,-0.0800183108262762,0.9284199282825973
1539131347614125,0.28448920424200796,-0.08636606393530188,0.9318379491874573
1539131347630107,0.28033875028610655,-0.08062867170214405,0.9324483100633252
1539131347646088,0.26739909971770803,-0.06817730983443981,0.9379415579461359
1539131347662069,0.2594644083314259,-0.053772793163958,0.9270771343556881
1539131347678050,0.2654459449149309,-0.03997863736934448,0.9190203707942324
1539131347694031,0.27325856412603944,-0.029846646829938095,0.9110856794079503
1539131347710013,0.2780193789578087,-0.025574120698863112,0.908888380254826
1539131347725994,0.28461127641718154,-0.023376821545738835,0.9137712672617688
1539131347741975,0.29254596780346365,-0.03265430685893023,0.9093766689555203
1539131347757956,0.29877164873731576,-0.04058899824521234,0.9169451438162817
1539131347773937,0.2923018234531165,-0.042908369573510186,0.9242694743266959
1539131347789919,0.27447928587777515,-0.03924620431830306,0.9252460517280845
1539131347805900,0.25214007782101167,-0.03472953383688093,0.9400167849240866
1539131347821881,0.240665293354696,-0.033875028610665936,0.941603723201343
1539131347837862,0.2330968184939346,-0.04095521477073305,0.9333028152895402
1539131347853843,0.238956282902266,-0.056946669718470844,0.930495155260548
1539131347869825,0.26178377965972377,-0.07147325856412623,0.9256122682536052
1539131347885806,0.2864423590447851,-0.06964217593652267,0.917433432516976
1539131347901787,0.31122301060502,-0.05780117494468584,0.9099870298313881
1539131347917785,0.3270923933775842,-0.04644846265354374,0.9068131532768753
1539131347933766,0.33160906385900635,-0.03790341039139378,0.9125505455100331
1539131347949748,0.32489509422445995,-0.044129091325245895,0.9169451438162817
1539131347965729,0.3170824750133514,-0.06121919584954583,0.9192645151445795
1539131347981710,0.3065842679484243,-0.07489127946898622,0.9278095674067295
1539131347997691,0.2932784008545051,-0.07953002212558191,0.929640650034333
1539131348013672,0.2831464103150987,-0.07989623865110262,0.9241474021515224
1539131348029654,0.27484550240329586,-0.08148317692835905,0.9196307316701002
1539131348045635,0.2737468528267337,-0.08050659952697048,0.9087663080796524
1539131348061616,0.28082703898680084,-0.07086289768825837,0.8920424200808732
1539131348077597,0.2868085755703058,-0.06195162890058725,0.8877698939497982
1539131348093578,0.29791714351110077,-0.05145342183566015,0.883863584344244
1539131348109560,0.3081712062256807,-0.045349813076981604,0.8850843060959797
1539131348125541,0.3096360723277636,-0.05157549401083372,0.8953383688105596
1539131348141522,0.29840543221179505,-0.05682459754329727,0.9156023498893724
1539131348157503,0.28204776073853655,-0.0640268558785384,0.9302510109102009
1539131348173484,0.2714274814984359,-0.07013046463721695,0.9452658884565501
1539131348189466,0.2600747692072938,-0.0783093003738462,0.9551537346456094
1539131348205447,0.24933241779201953,-0.0812390325780119,0.9583276112001222
1539131348221428,0.243228809033341,-0.08612191958495474,0.9621118486305029
1539131348237396,0.24725719081406883,-0.0838025482566569,0.955275806820783
1539131348253377,0.25470359349965666,-0.06305027847714983,0.9405050736247809
1539131348269358,0.2680094605935759,-0.042786297398336615,0.9218280308232245
1539131348285339,0.28033875028610655,-0.017883573662928143,0.9081559472037846
1539131348301321,0.29462119478141435,0.02020294499122599,0.8885023270008396
1539131348317302,0.28326848249027226,0.03546196688792236,0.8875257495994511
1539131348333283,0.2923018234531165,0.06024261844815726,0.8881361104753189
1539131348349264,0.2935225452048522,0.06060883497367797,0.8906996261539639
1539131348365245,0.277653162432288,0.04718089570458517,0.9110856794079503
1539131348381227,0.27740901808194085,0.01605249103532458,0.9185320820935381
1539131348397208,0.2792401007095444,-0.016662851911192433,0.9258564126039524
1539131348413189,0.2796063172350651,-0.03595025558861664,0.9352559700923173
1539131348429170,0.281925688563363,-0.04339665827420447,0.9344014648661023
1539131348445151,0.28082703898680084,-0.04876783398184159,0.9335469596398873
1539131348461133,0.2869306477454794,-0.05413900968947871,0.9337911039902345
1539131348477114,0.28375677119096654,-0.06341649500267055,0.9280537117570766
1539131348493095,0.2797283894102387,-0.06903181506065481,0.9223163195239188
1539131348509076,0.2713054093232623,-0.07220569161516766,0.9265888456549938
1539131348525057,0.2653238727397573,-0.07415884641794479,0.9261005569542995
1539131348541039,0.25592431525139236,-0.08233768215457404,0.9251239795529109
1539131348557006,0.2536049439230945,-0.0879530022125583,0.9207293812466624
1539131348572988,0.24957656214236668,-0.09954985885404755,0.9187762264438852
1539131348588969,0.24786755168993668,-0.11932555123216604,0.9258564126039524
1539131348604950,0.24542610818646526,-0.12420843823910888,0.9290302891584652
1539131348620931,0.2553139543755245,-0.12237735561150531,0.9279316395819031
1539131348636912,0.2594644083314259,-0.11627374685282676,0.9258564126039524
1539131348652894,0.2621499961852445,-0.12140077821011674,0.933913176165408
1539131348668875,0.26898603799496446,-0.131288624399176,0.9412375066758223
1539131348684856,0.281925688563363,-0.12079041733424889,0.9386739909971773
1539131348700837,0.28998245212481866,-0.07037460898756409,0.914015411612116
1539131348716818,0.29034866865033937,-0.0042114900434881974,0.8954604409857332
1539131348732800,0.2835126268406194,0.03045700770580595,0.8993667505912875
1539131348748781,0.27948424505989156,0.021057450217440987,0.908888380254826
1539131348764762,0.2721599145494773,-0.016784924086366004,0.9201190203707945
1539131348780743,0.2728923476005187,-0.05926604104676869,0.9262226291294731
1539131348796724,0.2688639658197909,-0.08831921873807902,0.9275654230563823
1539131348812706,0.2628824292362859,-0.09466697184710471,0.9333028152895402
1539131348828687,0.2653238727397573,-0.08892957961394687,0.929640650034333
1539131348844668,0.26483558403906304,-0.07953002212558191,0.9230487525749602
1539131348860649,0.2700846875715266,-0.07147325856412623,0.9142595559624631
1539131348876617,0.2666666666666666,-0.07733272297245763,0.9179217212176702
1539131348892598,0.2645914396887159,-0.08465705348287189,0.9246356908522166
1539131348908579,0.2632486457618066,-0.07953002212558191,0.9252460517280845
1539131348924561,0.2650797283894102,-0.07061875333791123,0.9220721751735717
1539131348940542,0.2683756771190966,-0.06890974288548124,0.9230487525749602
1539131348956523,0.27069504844739445,-0.07660028992141621,0.9197528038452738
1539131348972504,0.27277027542534515,-0.09112687876707115,0.9236591134508281
1539131348988485,0.27240405889982444,-0.09796292057679112,0.9251239795529109
1539131349004467,0.27240405889982444,-0.10247959105821325,0.9204852368963152
1539131349020448,0.2726482032501716,-0.10833905546654465,0.9197528038452738
1539131349036429,0.2695963988708323,-0.09979400320439469,0.9167009994659345
1539131349052410,0.26569008926527804,-0.091737239642939,0.9141374837872895
1539131349068391,0.25775539787899593,-0.09063859006637687,0.9208514534218359
1539131349084373,0.2516517891203174,-0.09405661097123685,0.9273212787060352
1539131349100354,0.2717936980239566,-0.08783093003738474,0.9230487525749602
1539131349116335,0.275089646753643,-0.07696650644693692,0.9197528038452738
1539131349132316,0.2789959563591973,-0.06549172198062125,0.9213397421225302
1539131349148297,0.2826581216144044,-0.059754329747462975,0.9187762264438852
1539131349164279,0.2780193789578087,-0.06182955672541368,0.9226825360494395
1539131349180260,0.27362478065156015,-0.06475928892957983,0.9250019073777374
1539131349196228,0.26361486228732733,-0.06390478370336483,0.9291523613336388
1539131349212209,0.2599526970321202,-0.057190814068817986,0.9317158770122838
1539131349228190,0.25470359349965666,-0.05352864881361086,0.933058670939193
1539131349244171,0.2532387273975738,-0.06036469062333083,0.935622186617838
1539131349260152,0.2571450370031281,-0.07782101167315192,0.9369649805447473
1539131349276134,0.25775539787899593,-0.08783093003738474,0.931349660486763
1539131349292115,0.26227206836041805,-0.09112687876707115,0.9241474021515224
1539131349308096,0.26691081101701375,-0.08343633173113618,0.919142442969406
1539131349324077,0.2688639658197909,-0.07598992904554835,0.9192645151445795
1539131349340058,0.2608072022583352,-0.08075074387731762,0.9092545967803467
1539131349356040,0.2746013580529487,-0.0812390325780119,0.9084000915541317
1539131349372021,0.2792401007095444,-0.07598992904554835,0.9073014419775696
1539131349388002,0.28363469901579297,-0.07013046463721695,0.9060807202258339
1539131349403983,0.26654459449149304,-0.06610208285648911,0.903761348897536
1539131349419964,0.2461585412375067,-0.08612191958495474,0.9022964827954532
1539131349435946,0.23077744716563675,-0.1325093461509117,0.9218280308232245
1539131349451927,0.2499427786678874,-0.1765774013885708,0.9320820935378045
1539131349467908,0.26190585183489734,-0.19830624856946688,0.9284199282825973
1539131349483889,0.2616617074845502,-0.2048981460288397,0.932204165712978
1539131349499870,0.2658121614404516,-0.204531929503319,0.9248798352025638
1539131349515838,0.274235141527428,-0.18963912413214334,0.9145037003128103
1539131349531819,0.27777523460746156,-0.16888685435263584,0.9079118028534374
1539131349547801,0.27875181200885013,-0.1560692759594109,0.9024185549706267
1539131349563782,0.2821698329137101,-0.15289539940489805,0.904615854123751
1539131349579763,0.27997253376058584,-0.15826657511253517,0.9031509880216682
1539131349595744,0.26935225452048517,-0.1724269474326694,0.9147478446631574
1539131349611725,0.26861982146944374,-0.18231479362172864,0.9196307316701002
1539131349627707,0.2683756771190966,-0.17267109178301654,0.9219501029983981
1539131349643688,0.26263828488593877,-0.15631342030975803,0.9212176699473567
1539131349659669,0.2604409857328145,-0.14959945067521163,0.9190203707942324
1539131349675650,0.2630045014114595,-0.14544899671931022,0.9162127107652402
1539131349691631,0.2620279240100709,-0.1555809872587166,0.914015411612116
1539131349707613,0.27618829633020514,-0.15423819333180733,0.8859388113221947
1539131349723594,0.26739909971770803,-0.1371480888075074,0.8625009536888681
1539131349739575,0.26276035706111234,-0.12359807736324102,0.8618905928130003
1539131349755556,0.24896620126649882,-0.13226520180056456,0.8856946669718475
1539131349771537,0.23700312809948887,-0.165712977798123,0.9241474021515224
1539131349787519,0.2494544899671931,-0.22076752880140393,0.9263447013046466
1539131349803500,0.24957656214236668,-0.2570229648279545,0.9273212787060352
1539131349819481,0.2518959334706645,-0.25262836652170595,0.9314717326619366
1539131349835449,0.2809491111619744,-0.24896620126649882,0.9173113603418024
1539131349851430,0.29205767910276936,-0.23663691157396816,0.9126726176852067
1539131349867411,0.27032883192187374,-0.1854886701762415,0.9353780422674909
1539131349883392,0.26361486228732733,-0.1517967498283359,0.9235370412756545
1539131349899374,0.269962615396353,-0.164003967345693,0.9096208133058674
1539131349915355,0.275944151979858,-0.19098191805905262,0.9025406271458003
1539131349931336,0.2680094605935759,-0.2138094148165104,0.9060807202258339
1539131349947317,0.2621499961852445,-0.23273060196841389,0.914015411612116
1539131349963298,0.26141756313420306,-0.24090943770504314,0.9068131532768753
1539131349979280,0.2583657587548638,-0.23822384985122458,0.8961928740367746
1539131349995261,0.2561684596017395,-0.22943465323872747,0.9000991836423289
1539131350011242,0.25555809872587165,-0.22369726100556964,0.8996108949416346
1539131350027223,0.2556801709010452,-0.21808194094758537,0.9004654001678496
1539131350043204,0.2533607995727474,-0.2138094148165104,0.8998550392919817
1539131350059186,0.26776531624322875,-0.20794995040817899,0.8992446784161139
1539131350075167,0.2771648737315937,-0.19745174334325188,0.8939955748836503
1539131350091148,0.27533379110399014,-0.18487830930037363,0.8928969253070882
1539131350107129,0.27203784237430373,-0.16998550392919798,0.8931410696574353
1539131350123110,0.2625162127107652,-0.16388189517051943,0.9014419775692382
1539131350139092,0.2494544899671931,-0.17206073090714868,0.9243915465018695
1539131350155059,0.25983062485694663,-0.17767605096513295,0.9242694743266959
1539131350171040,0.2548256656748302,-0.17608911268787653,0.9202410925459681
1539131350187021,0.25641260395208665,-0.17022964827954512,0.9108415350576031
1539131350203002,0.25311665522240023,-0.16595712214847014,0.9091325246051731
1539131350218982,0.25519188220035094,-0.16681162737468513,0.907179369802396
1539131350234963,0.2616617074845502,-0.1749904631113144,0.910597390707256
1539131350250944,0.26813153276874946,-0.17645532921339724,0.9109636072327767
1539131350266924,0.26849774929427017,-0.16668955519951156,0.9014419775692382
1539131350282905,0.26935225452048517,-0.15326161593041876,0.9008316166933703
1539131350298886,0.26898603799496446,-0.14776836804760807,0.8999771114671553
1539131350314867,0.2713054093232623,-0.15338368810559233,0.9084000915541317
1539131350330847,0.2726482032501716,-0.15960936903944445,0.9219501029983981
1539131350346828,0.2726482032501716,-0.16424811169604014,0.9289082169832916
1539131350362809,0.2763103685053787,-0.1690089265278094,0.9243915465018695
1539131350378790,0.27997253376058584,-0.16168459601739515,0.9158464942397195
1539131350394770,0.2840009155413137,-0.15374990463111304,0.9132829785610745
1539131350410751,0.2797283894102387,-0.1467917906462195,0.9110856794079503
1539131350426732,0.278507667658503,-0.13995574883649953,0.9077897306782639
1539131350442712,0.275944151979858,-0.1392233157854581,0.9043717097734039
1539131350458693,0.2726482032501716,-0.1438620584420538,0.9062027924010074
1539131350474670,0.2688639658197909,-0.15497062638284875,0.9130388342107274
1539131350490651,0.2678873884184023,-0.16168459601739515,0.9184100099183645
1539131350506631,0.2675211718928816,-0.1526512550545509,0.9247577630273902
1539131350522612,0.270817120622568,-0.13495078965438312,0.9312275883115895
1539131350538593,0.26849774929427017,-0.11883726253147175,0.9345235370412759
1539131350554574,0.2638590066376745,-0.1135881589990082,0.9385519188220037
1539131350570554,0.25848783093003735,-0.12347600518806745,0.9251239795529109
1539131350586535,0.2604409857328145,-0.14898908979934378,0.9062027924010074
1539131350602516,0.269962615396353,-0.1669336995498587,0.8965590905622953
1539131350618497,0.26825360494392303,-0.16644541084916442,0.8920424200808732
1539131350634477,0.2704509040970473,-0.15619134813458446,0.8819104295414668
1539131350650458,0.2704509040970473,-0.13995574883649953,0.8819104295414668
1539131350666439,0.2705729762722209,-0.13067826352330814,0.8886243991760132
1539131350682419,0.26776531624322875,-0.13910124361028453,0.8941176470588239
1539131350698400,0.26947432669565874,-0.15460440985732804,0.9119401846341653
1539131350714381,0.2717936980239566,-0.16644541084916442,0.9232928969253074
1539131350730362,0.2775310902571144,-0.16766613260090013,0.930495155260548
1539131350746342,0.27740901808194085,-0.15277332722972448,0.934767681391623
1539131350762323,0.2775310902571144,-0.13263141832608527,0.9306172274357216
1539131350778304,0.2747234302281223,-0.12042420080872818,0.9231708247501338
1539131350794281,0.27606622415503157,-0.11993591210803389,0.9187762264438852
1539131350810261,0.2781414511329823,-0.12347600518806745,0.9163347829404138
1539131350826242,0.27533379110399014,-0.1299458304722667,0.9108415350576031
1539131350842223,0.2772869459067673,-0.13092240787365528,0.9068131532768753
1539131350858204,0.26984054322117945,-0.1308003356984817,0.9081559472037846
1539131350874184,0.2688639658197909,-0.13409628442816812,0.910597390707256
1539131350890165,0.2647135118638895,-0.13775844968337525,0.914015411612116
1539131350906146,0.26434729533836876,-0.13910124361028453,0.9160906385900667
1539131350922126,0.26605630579079875,-0.1442282749675745,0.9168230716411081
1539131350938107,0.2667887388418402,-0.1485008010986495,0.9196307316701002
1539131350954088,0.26813153276874946,-0.14605935759517807,0.9254901960784316
1539131350970069,0.26898603799496446,-0.1380025940337224,0.9209735255970095
1539131350986049,0.27106126497291516,-0.1308003356984817,0.9058365758754867
1539131351002030,0.27447928587777515,-0.13275349050125884,0.9027847714961474
1539131351018011,0.27203784237430373,-0.1433737697413595,0.9081559472037846
1539131351033991,0.271671625848783,-0.1526512550545509,0.9077897306782639
1539131351049972,0.273380636301213,-0.14837872892347592,0.9092545967803467
1539131351065953,0.2763103685053787,-0.1409323262378881,0.9015640497444117
1539131351081934,0.2805828946364537,-0.13556115053025097,0.9101091020065617
1539131351097914,0.2796063172350651,-0.13727016098268097,0.9160906385900667
1539131351113891,0.2780193789578087,-0.1366598001068131,0.9208514534218359
1539131351129872,0.2804608224612801,-0.13910124361028453,0.9143816281376367
1539131351145853,0.2857099259937437,-0.1380025940337224,0.9108415350576031
1539131351161833,0.28583199816891725,-0.13531700617990383,0.9074235141527431
1539131351177814,0.28583199816891725,-0.12945754177157243,0.9074235141527431
1539131351193795,0.2869306477454794,-0.13018997482261385,0.9055924315251396
1539131351209776,0.2857099259937437,-0.128725108720531,0.9099870298313881
1539131351225756,0.2838788433661401,-0.13263141832608527,0.910597390707256
1539131351241737,0.28290226596475154,-0.13568322270542454,0.9090104524299996
1539131351257718,0.2818036163881894,-0.1433737697413595,0.915724422064546
1539131351273698,0.281071183337148,-0.14630350194552522,0.9210955977721831
1539131351289679,0.27618829633020514,-0.1459372854200045,0.9237811856260016
1539131351305660,0.27118333714808873,-0.1455710688944838,0.9241474021515224
1539131351321641,0.2700846875715266,-0.13690394445716025,0.9202410925459681
1539131351337621,0.27032883192187374,-0.13092240787365528,0.9160906385900667
1539131351353602,0.2728923476005187,-0.12738231479362172,0.9132829785610745
1539131351369583,0.2737468528267337,-0.12127870603494317,0.9033951323720153
1539131351385563,0.2754558632791637,-0.11212329289692535,0.9026626993209739
1539131351401544,0.27997253376058584,-0.11554131380178534,0.9022964827954532
1539131351417525,0.28925001907377723,-0.12433051041428245,0.906324864576181
1539131351433502,0.2938887617303729,-0.12860303654535743,0.9064469367513546
1539131351449483,0.29083695735103365,-0.1359273670557717,0.9235370412756545
1539131351465463,0.2830243381399251,-0.1526512550545509,0.9265888456549938
1539131351481444,0.2830243381399251,-0.16974135957885084,0.9193865873197531
1539131351497425,0.2838788433661401,-0.17853055619134794,0.9135271229114217
1539131351513405,0.28632028686961153,-0.16998550392919798,0.9059586480506603
1539131351529386,0.28619821469443796,-0.15594720378423732,0.8996108949416346
1539131351545367,0.2886396581979094,-0.14483863584344236,0.8949721522850389
1539131351561348,0.2850995651178758,-0.14203097581445023,0.8902113374532696
1539131351577328,0.2796063172350651,-0.1488670176241702,0.9041275654230567
1539131351593309,0.26898603799496446,-0.16083009079118016,0.9187762264438852
1539131351609290,0.2647135118638895,-0.17560082398718224,0.9289082169832916
1539131351625270,0.2670328831921873,-0.17926298924238937,0.9357442587930116
1539131351641251,0.2695963988708323,-0.16644541084916442,0.9317158770122838
1539131351657232,0.2721599145494773,-0.1464255741206988,0.9223163195239188
1539131351673213,0.27399099717708086,-0.13385214007782098,0.9164568551155874
1539131351689193,0.2766765850308994,-0.12127870603494317,0.910597390707256
1539131351705174,0.2821698329137101,-0.11456473640039677,0.9052262149996189
1539131351721155,0.28204776073853655,-0.11712825207904176,0.8993667505912875
1539131351737136,0.28155947203784226,-0.12127870603494317,0.9016861219195853
1539131351753143,0.275089646753643,-0.11847104600595104,0.9132829785610745
1539131351769124,0.2746013580529487,-0.11248950942244607,0.912306401159686
1539131351785104,0.27655451285572585,-0.10955977721828036,0.9092545967803467
1539131351801085,0.27362478065156015,-0.11163500419623107,0.9154802777141988
1539131351817066,0.275944151979858,-0.11480888075074391,0.9184100099183645
1539131351833047,0.2800946059357594,-0.11212329289692535,0.911451895933471
1539131351849027,0.28998245212481866,-0.10846112764171822,0.9079118028534374
1539131351865008,0.29547570000762935,-0.11261158159761964,0.9030289158464946
1539131351880989,0.29254596780346365,-0.12042420080872818,0.900343327992676
1539131351896969,0.29303425650415793,-0.13104448004882885,0.899488822766461
1539131351912950,0.2957198443579765,-0.13934538796063167,0.8937514305333032
1539131351928931,0.30438696879530003,-0.1480125123979552,0.8910658426794846
1539131351944912,0.3158617532616157,-0.1589990081635766,0.8947280079346918
1539131351960892,0.3037766079194322,-0.1724269474326694,0.915724422064546
1539131351976873,0.2780193789578087,-0.18744182497901862,0.937331197070268
1539131351992854,0.24383916990920884,-0.20843823910887327,0.953566796368353
1539131352008834,0.23199816891737246,-0.2179598687724118,0.9607690547035936
1539131352024815,0.23529411764705888,-0.20172426947432687,0.9451438162813766
1539131352040796,0.23468375677119102,-0.16217288471808944,0.9245136186770431
1539131352056777,0.23846799420157172,-0.11309987029831392,0.9042496375982303
1539131352072754,0.2545815213244831,-0.07757686732280478,0.8878919661249718
1539131352088734,0.274235141527428,-0.07428091859311836,0.8844739452201118
1539131352104715,0.2838788433661401,-0.09698634317540256,0.8816662851911197
1539131352120696,0.28326848249027226,-0.12542915999084459,0.8964370183871218
1539131352136676,0.2840009155413137,-0.14496070801861594,0.9217059586480509
1539131352152657,0.29498741130693507,-0.14996566720073234,0.9187762264438852
1539131352168638,0.310368505378805,-0.14056610971236738,0.8953383688105596
1539131352184619,0.3179369802395664,-0.13263141832608527,0.8953383688105596
1539131352200599,0.3218432898451207,-0.13153276874952313,0.8925307087815675
1539131352216580,0.31866941329060783,-0.13360799572747384,0.9002212558175025
1539131352232561,0.31305409323262356,-0.13617151140611883,0.9092545967803467
1539131352248541,0.2995040817883572,-0.13897917143511096,0.9136491950865953
1539131352264522,0.28656443121995867,-0.14666971847104593,0.9130388342107274
1539131352280503,0.2713054093232623,-0.1555809872587166,0.9146257724879838
1539131352296484,0.2641031509880216,-0.166567483024338,0.9168230716411081
1539131352312464,0.25421530479896237,-0.17376974135957868,0.9168230716411081
1539131352328445,0.2518959334706645,-0.16595712214847014,0.9119401846341653
1539131352344426,0.25763332570382236,-0.1476462958724345,0.8938735027084768
1539131352360407,0.26227206836041805,-0.13153276874952313,0.8920424200808732
1539131352376387,0.2625162127107652,-0.12884718089570457,0.9004654001678496
1539131352392334,0.2680094605935759,-0.1362935835812924,0.9086442359044788
1539131352408314,0.27020675974670016,-0.14813458457312878,0.9116960402838181
1539131352424295,0.2604409857328145,-0.1497215228503852,0.918287937743191
1539131352440276,0.2561684596017395,-0.14666971847104593,0.9228046082246131
1539131352456256,0.2667887388418402,-0.14740215152208735,0.9357442587930116
1539131352472237,0.28326848249027226,-0.15667963683527875,0.9472190432593273
1539131352488218,0.3012130922407872,-0.1569237811856259,0.934767681391623
1539131352504199,0.3136644541084914,-0.14105439841306167,0.9181658655680174
1539131352520179,0.3272144655527578,-0.12359807736324102,0.9040054932478832
1539131352536160,0.3317311360341799,-0.10785076676585037,0.8814221408407725
1539131352552141,0.3165941863126571,-0.11017013809414822,0.8719005111772331
1539131352568122,0.30084687571526647,-0.13739223315785454,0.8792248416876483
1539131352584102,0.2886396581979094,-0.1555809872587166,0.9070572976272224
1539131352600083,0.26153963530937663,-0.14911116197451735,0.9250019073777374
1539131352616064,0.2385900663767453,-0.12396429388876173,0.9351338979171437
1539131352632044,0.21808194094758537,-0.1203021286335546,0.9459983215075916
1539131352648025,0.21564049744411395,-0.1371480888075074,0.9562523842221715
1539131352664006,0.2205233844510568,-0.15631342030975803,0.9612573434042879
1539131352679987,0.238956282902266,-0.1547264820325016,0.9451438162813766
1539131352695967,0.24664682993820097,-0.14581521324483093,0.9334248874647137
1539131352711944,0.27106126497291516,-0.14019989318684667,0.9219501029983981
1539131352727925,0.2847333485923551,-0.1350728618295567,0.9041275654230567
1539131352743906,0.2924238956282901,-0.11956969558251318,0.8904554818036168
1539131352759886,0.2902265964751658,-0.11688410772869462,0.8911879148546582
1539131352775867,0.2848554207675287,-0.13104448004882885,0.8961928740367746
1539131352791848,0.28827344167238866,-0.16412603952086657,0.8999771114671553
1539131352807829,0.28497749294270225,-0.17938506141756294,0.908888380254826
1539131352823809,0.281071183337148,-0.17608911268787653,0.9066910811017017
1539131352839790,0.27655451285572585,-0.17084000915541298,0.8908216983291375
1539131352855771,0.2833905546654458,-0.1854886701762415,0.8911879148546582
1539131352871751,0.27911802853437084,-0.20782787823300541,0.9062027924010074
1539131352887732,0.27826352330815585,-0.2263828488593882,0.9141374837872895
1539131352903713,0.2804608224612801,-0.23382925154497602,0.9141374837872895
1539131352919694,0.28754100862134724,-0.23321889066910817,0.9076676585030903
1539131352935674,0.29425497825589364,-0.2225986114290075,0.9021744106202796
1539131352951655,0.2981612878614479,-0.2048981460288397,0.8944838635843446
1539131352967636,0.29547570000762935,-0.1841458762493322,0.9007095445181967
1539131352983616,0.29120317387655437,-0.1719386587319751,0.9043717097734039
1539131352999597,0.28961623559929794,-0.17218280308232226,0.902906843671321
1539131353015578,0.28546578164339653,-0.17340352483405796,0.8975356679636839
1539131353031555,0.2821698329137101,-0.167421988250553,0.8916762035553525
1539131353047536,0.2692301823453116,-0.1560692759594109,0.8958266575112539
1539131353063516,0.27240405889982444,-0.14874494544899663,0.8947280079346918
1539131353079497,0.28448920424200796,-0.1459372854200045,0.8953383688105596
1539131353095478,0.281925688563363,-0.15362783245593947,0.909742885481041
1539131353111458,0.2890058747234301,-0.17206073090714868,0.917433432516976
1539131353127439,0.2783855954833294,-0.1862211032272829,0.9300068665598538
1539131353143420,0.270817120622568,-0.17084000915541298,0.9440451667048144
1539131353159401,0.26398107881284805,-0.15399404898146019,0.938185702296483
1539131353175381,0.2830243381399251,-0.1342183566033417,0.9168230716411081
1539131353191362,0.2973067826352329,-0.11480888075074391,0.9035172045471889
1539131353207343,0.2905928130006865,-0.09784084840161755,0.8966811627374689
1539131353223323,0.2872968642710001,-0.08953994048981473,0.9051041428244453
1539131353239304,0.2609292744335088,-0.08160524910353262,0.9185320820935381
1539131353255285,0.2680094605935759,-0.06744487678339839,0.9217059586480509
1539131353271266,0.29120317387655437,-0.05011062790875087,0.8948500801098653
1539131353287246,0.27606622415503157,-0.018249790188448856,0.8706797894254974
1539131353303227,0.24750133516441597,0.0319218738078888,0.8914320592050053
1539131353319208,0.2276035706111239,0.03045700770580595,0.9351338979171437
1539131353335188,0.2453040360112917,-0.05658045319295013,0.929640650034333
1539131353351165,0.28912794689860366,-0.17218280308232226,0.9108415350576031
1539131353367146,0.3301441977569235,-0.2632486457618066,0.8863050278477154
1539131353383127,0.33917753871976775,-0.31537346456092186,0.8775158312352183
1539131353399108,0.33990997177080917,-0.31378652628366543,0.894361791409171
1539131353415088,0.33075455863279135,-0.2503089951934081,0.8842298008697647
1539131353431069,0.32111085679407925,-0.20563057907988114,0.8688487067978938
1539131353447050,0.3024338139925229,-0.21783779659723823,0.8833752956435497
1539131353463030,0.30084687571526647,-0.241519798580911,0.8987563897154196
1539131353479011,0.2898603799496451,-0.23834592202639815,0.9076676585030903
1539131353494992,0.30133516441596075,-0.2121004043640804,0.9033951323720153
1539131353510973,0.31818112458991354,-0.18365758754863792,0.8819104295414668
1539131353526953,0.31439688715953285,-0.17694361791409152,0.8822766460669875
1539131353542934,0.31439688715953285,-0.1965972381170369,0.8931410696574353
1539131353558915,0.31097886625467286,-0.20672922865644328,0.8938735027084768
1539131353574895,0.29425497825589364,-0.2146639200427254,0.9076676585030903
1539131353590876,0.28204776073853655,-0.2103913939116504,0.9324483100633252
1539131353606857,0.27203784237430373,-0.1940337224383919,0.942458228427558
1539131353622838,0.2683756771190966,-0.19501029983978047,0.9341573205157552
1539131353638818,0.2840009155413137,-0.19964904249637616,0.9151140611886781
1539131353654799,0.27997253376058584,-0.18988326848249049,0.9335469596398873
1539131353670807,0.28253604943923083,-0.17767605096513295,0.9395284962233923
1539131353686787,0.29510948348210864,-0.16546883344777585,0.9337911039902345
1539131353702768,0.3024338139925229,-0.16327153429465158,0.9405050736247809
1539131353718749,0.3032883192187379,-0.1694972152285037,0.9597924773022051
1539131353734729,0.31268787670710285,-0.16876478217746227,0.9621118486305029
1539131353750710,0.25897611963073164,-0.14142061493858238,1.0069123369192035
1539131353766691,0.27277027542534515,-0.1502098115510795,1.0429236285954069
1539131353782672,0.2995040817883572,-0.2162508583199818,1.0788128480964367
1539131353798652,0.3604180971999691,-0.19964904249637616,1.1648737315938051
1539131353814633,0.4393987945372704,-0.22101167315175108,1.3636072327763786
1539131353830614,0.48493171587701234,-0.35321583886472885,1.5804074158846415
1539131353846594,0.49115739681086446,-0.45380331120775175,1.7808499275196459
1539131353862575,0.5241168841077286,-0.5878385595483331,1.8844892042420085
1539131353878556,0.5424277103837642,-0.6537575341420614,1.807583733882658
1539131353894537,0.5515831235217821,-0.6890363927672238,1.6316777294575422
1539131353910517,0.5120317387655451,-0.6601052872510871,1.408163576714733
1539131353926498,0.4511177233539332,-0.5703822384985124,1.1533989471274895
1539131353942479,0.3817807278553449,-0.4616159304188603,0.9253681239032581
1539131353958459,0.351628900587472,-0.34515907530327317,0.7208972304875259
1539131353974440,0.2805828946364537,-0.21026932173647683,0.5535362783245592
1539131353990417,0.18280308232242337,-0.12140077821011674,0.4148622873273826
1539131354006398,0.08929579613946714,-0.05951018539711583,0.28961623559929794
1539131354022379,0.02423132677195383,0.008850232700083893,0.1616845960173956
1539131354038359,-0.06536964980544768,0.06707866025787723,0.059632257572289404
1539131354054340,-0.16180666819256873,0.09625391012436069,-0.023254749370565264
1539131354070321,-0.17560082398718224,0.12542915999084503,-0.0745250629434655
1539131354086301,-0.16961928740367727,0.15948729686427132,-0.09820706492713827
1539131354102282,-0.18731975280384505,0.13336385137712714,-0.04766918440527945
1539131354118263,-0.1421530479896238,0.15399404898146063,0.004943923094529623
1539131354134244,-0.1022354467078661,0.14850080109864994,0.10016021972991496
1539131354150224,-0.03533989471274879,0.15545891508354348,0.18670939192797764
1539131354166205,0.042664225223163044,0.16131837949187489,0.22186617837796607
1539131354182186,0.08368047608148288,0.15301747158007206,0.2527504386968795
1539131354198166,0.15838864728770918,0.1914702067597469,0.16363775082017273
1539131354214147,0.25140764476997024,0.2659342336156252,-0.03045700770580595
1539131354230128,0.3065842679484243,0.33282978561074206,-0.3488212405584803
1539131354246109,0.26898603799496446,0.3192797741664757,-0.6288548104066529
1539131354262089,0.467109178301671,0.33624780651560204,-0.6959945067521174
1539131354278070,0.8922865644312203,0.3162279697871364,-0.5280231937132829
1539131354294051,1.2278629739833677,0.31403067063401213,-0.07672236209658978
1539131354310028,3.1953002212558177,-1.2143129625391014,4.0
1539131354326008,-0.9395284962233923,0.5904020752269776,4.0
1539131354341989,-0.5060502021820401,0.7937743190661477,1.1503471427481502
1539131354357970,-0.012512397955291021,0.2932784008545051,0.7473868925001907
1539131354373951,0.024719615472648115,-0.14752422369726093,1.8959639887083242
1539131354389931,0.20209048599984758,0.016906996261539575,1.098344396124208
1539131354405912,0.3373464560921642,0.13275349050125929,1.2577706569008926
1539131354421893,0.5922331578545812,-0.05804531929503298,1.545250629434653
1539131354437873,0.6071259632257568,-0.13018997482261385,1.5408560311284045
1539131354453854,0.5175249866483558,-0.15362783245593947,1.3535973144121458
1539131354469835,0.34418249790188415,-0.13653772793163954,1.0598916609445332
1539131354485816,0.23846799420157172,-0.09674219882505541,0.7737544823376821
1539131354501796,0.1730373083085377,-0.08319218738078904,0.5456015869382771
1539131354517777,0.10846112764171778,-0.04315251392385733,0.3993591210803391
1539131354533758,0.06121919584954583,-0.024963759822995257,0.3309987029831385
1539131354549739,0.02923628595407024,0.005676356145571049,0.308659494926375
1539131354565719,0.013855191882200302,0.028625925078202386,0.34125276569771845
1539131354581700,0.015808346684977437,0.036438544289310926,0.4262149996185247
1539131354597681,0.03302052338445094,0.04486152437628732,0.52997634851606
1539131354613661,0.05877775234607441,0.04461738002594018,0.6417944609750519
1539131354629638,0.06964217593652222,0.036194399938963784,0.7425040054932479
1539131354645619,0.07830930037384576,0.012878614480811734,0.8297856107423511
1539131354661600,0.089906157015335,-0.0021362630655374915,0.9102311741817353
1539131354677580,0.11920347905699202,-0.006408789196612474,0.9513694972152287
1539131354693561,0.12750438696879574,-0.0109254596780346,0.9773708705271993
1539131354709542,0.12835889219501073,0.004333562218661768,0.9821316853589686
1539131354725523,0.12445258258945557,-0.005065995269703194,0.9718776226443886
1539131354741503,0.12176699473563701,-0.00982681010147246,0.9456321049820708
1539131354757484,0.12530708781567146,-0.027038986800945963,0.9252460517280845
1539131354773465,0.1284809643701843,-0.03851377126726163,0.8958266575112539
1539131354789446,0.12274357213702558,-0.04376287479972518,0.8743419546807045
1539131354805426,0.13202105745021786,-0.021179522392614558,0.8855725947966739
1539131354821407,0.1620508125429163,-0.006408789196612474,0.9303730830853745
1539131354837388,0.20233463035019472,0.0022583352407110624,0.9712672617685207
1539131354853368,0.21026932173647683,-0.011413748378728883,0.9667505912870986
1539131354869349,0.19537651636530118,-0.018493934538795997,0.9555199511711301
1539131354885330,0.17645532921339768,-0.05157549401083372,0.9804226749065386
1539131354901311,0.17840848401617482,-0.07342641336690336,1.0116731517509727
1539131354917291,0.21612878614480824,-0.09112687876707115,1.034622720683604
1539131354933272,0.22479591058213177,-0.09222552834363329,1.0443884946974897
1539131354949249,0.20636301213092256,-0.0955214770733197,1.0487830930037383
1539131354965230,0.20148012512397973,-0.07232776379034123,1.0428015564202333
1539131354981210,0.22015716792553608,-0.08197146562905333,1.059403372243839
1539131354997191,0.24518196383611812,-0.08599984740978117,1.0519569695582511
1539131355013172,0.24750133516441597,-0.08258182650492119,1.0342565041580833
1539131355029152,0.2549477378500038,-0.07342641336690336,1.0114290074006256
1539131355045133,0.24078736552986957,-0.052918287937743,0.9894560158693828
1539131355061114,0.2188143739986268,-0.03179980163271523,0.9741969939726864
1539131355077095,0.2251621271076525,-0.004943923094529623,0.9446555275806823
1539131355093075,0.23321889066910817,0.00457770656900891,0.9151140611886781
1539131355109056,0.21307698176546896,-0.003356984817273201,0.9024185549706267
1539131355125037,0.20440985732814543,0.005065995269703194,0.8979018844892046
1539131355141018,0.2200350957503625,-0.0016479743648432077,0.914869916838331
1539131355156998,0.24335088120851456,6.103608758678547E-5,0.9143816281376367
1539131355172979,0.2650797283894102,6.103608758678547E-5,0.8992446784161139
1539131355188960,0.26642252231631947,0.005432211795223907,0.8727550164034481
1539131355204940,0.27203784237430373,0.019836728465705278,0.8317387655451283
1539131355220921,0.2705729762722209,0.028747997253375956,0.8051270313572898
1539131355236902,0.2932784008545051,0.030945296406500233,0.96406500343328
1539131355252883,0.3203784237430378,0.029724574654764524,1.3474937056534673
1539131355268859,0.29425497825589364,-0.019714656290531707,1.0554970626382847
1539131355284840,0.2506752117189288,-0.0289921416037231,0.7591058213168536
1539131355300821,0.22601663233386748,0.015564202334630295,0.8552986953536275
1539131355316802,0.1885404745555812,0.07452506294346506,0.9944609750514992
1539131355332782,0.15973144121461846,0.12188906691081058,0.9591821164263372
1539131355348763,0.16913099870298343,0.16998550392919842,0.9522240024414437
1539131355364744,0.19842832074464045,0.17877470054169553,0.951857785915923
1539131355380725,0.2343175402456703,0.14605935759517852,0.9149919890135045
1539131355396705,0.2788738841840237,0.10516517891203137,0.9132829785610745
1539131355412686,0.30255588616769646,0.08502327000839216,0.9213397421225302
1539131355428667,0.32269779507133567,0.10052643625543567,0.8887464713511868
1539131355444647,0.30463111314564717,0.0995498588540471,0.8921644922560468
1539131355460628,0.27582207980468443,0.10943770504310635,0.9069352254520489
1539131355476609,0.2258945601586939,0.1079728389410235,0.9286640726329445
1539131355492590,0.17108415350576056,0.06207370107576082,1.0004425116350042
1539131355508570,0.16998550392919842,-0.009948882276646032,1.0225375753414205
1539131355524551,0.16229495689326345,-0.06585793850614197,1.000198367284657
1539131355540532,0.18255893797207623,-0.08453498130769832,0.9705348287174793
1539131355556512,0.16913099870298343,-0.06451514457923269,0.9506370641641873
1539131355572493,0.16302738994430488,-0.01995880064087885,0.9427023727779051
1539131355588440,0.18084992751964624,0.011169604028381741,0.9408712901503016
1539131355604420,0.20599679560540185,0.02532997634851597,0.9359884031433587
1539131355620401,0.23297474631876103,0.0357061112382695,0.9276874952315559
1539131355636382,0.2553139543755245,0.03997863736934448,0.9261005569542995
1539131355652362,0.25812161440451664,0.053284504463263715,0.9374532692454416
1539131355668343,0.24847791256580454,0.07501335164415934,0.947585259784848
1539131355684324,0.24957656214236668,0.09637598229953426,0.9362325474937059
1539131355700305,0.23163195239185175,0.1062638284885935,0.9351338979171437
1539131355716285,0.22455176623178463,0.1033340962844278,0.9337911039902345
1539131355732266,0.22211032272831321,0.08172732127870574,0.9285420004577709
1539131355748247,0.21527428091859324,0.05120927748531301,0.9387960631723509
1539131355764227,0.21490806439307253,0.03155565728236809,0.948439765011063
1539131355780208,0.21441977569237824,0.024475471122300974,0.9479514763103687
1539131355796189,0.21832608529793252,0.03424124513618665,0.946730754558633
1539131355812170,0.2293125810635539,0.050476844434271584,0.9323262378881516
1539131355828150,0.2410315098802167,0.05767910276951227,0.9251239795529109
1539131355844131,0.2507972838941024,0.06317235065232296,0.9268329900053409
1539131355860112,0.26068513008316163,0.06402685587853796,0.928786144808118
1539131355876093,0.26434729533836876,0.058533607995727266,0.9276874952315559
1539131355892073,0.26483558403906304,0.05011062790875087,0.9218280308232245
1539131355908081,0.2789959563591973,0.045349813076981604,0.9076676585030903
1539131355924061,0.2947432669565879,0.03582818341344307,0.8988784618905932
1539131355940042,0.28253604943923083,0.027527275501640247,0.9053482871747924
1539131355956023,0.269108110170138,0.028259708552681673,0.9130388342107274
1539131355972004,0.25934233615625235,0.032288090333409514,0.9156023498893724
1539131355987984,0.25555809872587165,0.03045700770580595,0.9207293812466624
1539131356003965,0.2385900663767453,0.028381780727855244,0.9298847943846802
1539131356019946,0.24518196383611812,0.02801556420233453,0.9365987640192266
1539131356035926,0.2545815213244831,0.03533989471274879,0.9213397421225302
1539131356051907,0.2566567483024338,0.04510566872663446,0.9173113603418024
1539131356067888,0.2582436865796902,0.06012054627298369,0.9202410925459681
1539131356083869,0.2620279240100709,0.07660028992141577,0.919142442969406
1539131356099849,0.25799954222934307,0.08746471351186358,0.9320820935378045
1539131356115830,0.26312657358663305,0.09027237354085571,0.9328145265888459
1539131356131811,0.2641031509880216,0.08197146562905289,0.9234149691004809
1539131356147791,0.2661783779659723,0.0689097428854808,0.9235370412756545
1539131356163772,0.2667887388418402,0.06414892805371153,0.9289082169832916
1539131356179753,0.2642252231631952,0.05267414358739586,0.9295185778591595
1539131356195734,0.2537270160982681,0.037659266041046635,0.930495155260548
1539131356211714,0.25018692301823453,0.02020294499122599,0.9350118257419702
1539131356227691,0.24640268558785383,4.272526131074983E-4,0.9396505683985659
1539131356243672,0.2482337682154574,-0.019470511940184565,0.9375753414206152
1539131356259653,0.25604638742656594,-0.025085831998168828,0.9269550621805145
1539131356275633,0.25555809872587165,-0.015686274509803866,0.9297627222095066
1539131356291614,0.2628824292362859,-0.005432211795223907,0.9325703822384988
1539131356307595,0.2609292744335088,0.002746623941405346,0.930495155260548
1539131356323576,0.2621499961852445,0.016784924086366004,0.9336690318150609
1539131356339556,0.26019684138246735,0.033752956435492365,0.937331197070268
1539131356355537,0.2510414282444495,0.03961242084382377,0.946730754558633
1539131356371518,0.2516517891203174,0.038879987792782345,0.945021744106203
1539131356387498,0.2575112535286488,0.03851377126726163,0.9375753414206152
1539131356403479,0.2595864805065995,0.04571602960250232,0.9346456092164495
1539131356419460,0.25348287174792095,0.05365072098878443,0.9353780422674909
1539131356435441,0.2418860151064317,0.049256122682535874,0.9341573205157552
1539131356451421,0.2482337682154574,0.04571602960250232,0.9269550621805145
1539131356467402,0.25885404745555807,0.040100709544518054,0.912306401159686
1539131356483383,0.26861982146944374,0.04888990615701516,0.9062027924010074
1539131356499364,0.2754558632791637,0.05951018539711583,0.9002212558175025
1539131356515344,0.274235141527428,0.06964217593652222,0.9062027924010074
1539131356531325,0.2752117189288166,0.06707866025787723,0.9119401846341653
1539131356547302,0.2838788433661401,0.05279621576256943,0.9153582055390252
1539131356563283,0.29303425650415793,0.03350881208514522,0.9180437933928438
1539131356579263,0.2962081330586708,0.018005645838101714,0.9209735255970095
1539131356595244,0.29547570000762935,0.007263294422827471,0.9314717326619366
1539131356611225,0.2976729991607536,0.0023804074158846333,0.9329365987640195
1539131356627205,0.2943770504310672,0.008972304875257464,0.9346456092164495
1539131356643186,0.27862973983367656,0.023743038071259548,0.9325703822384988
1539131356659167,0.25885404745555807,0.03680476081483164,0.9315938048371102
1539131356675148,0.2599526970321202,0.04962233920805659,0.9234149691004809
1539131356691128,0.271671625848783,0.0567025253681237,0.9118181124589917
1539131356707109,0.26861982146944374,0.05682459754329727,0.9169451438162817
1539131356723090,0.2571450370031281,0.05645838101777656,0.9241474021515224
1539131356739071,0.25885404745555807,0.06305027847714939,0.9243915465018695
1539131356755051,0.2616617074845502,0.0634164950026701,0.9308613717860688
1539131356771032,0.2678873884184023,0.06012054627298369,0.9318379491874573
1539131356787013,0.2586099031052109,0.055725947966735134,0.9302510109102009
1539131356802993,0.24286259250782027,0.053162432288090145,0.9359884031433587
1539131356818974,0.24420538643472955,0.04693675135423803,0.9342793926909287
1539131356834955,0.25299458304722666,0.033630884260318794,0.9337911039902345
1539131356850936,0.2511635004196231,0.020813305867093845,0.9379415579461359
1539131356866912,0.238101777676051,0.019714656290531707,0.9483176928358894
1539131356882893,0.22601663233386748,0.029968719005111666,0.9448996719310294
1539131356898874,0.2313878080415046,0.042664225223163044,0.9386739909971773
1539131356914855,0.24249637598229956,0.04876783398184159,0.9308613717860688
1539131356930835,0.26141756313420306,0.042664225223163044,0.9264667734798202
1539131356946816,0.28278019378957797,0.01861600671396957,0.9127946898603803
1539131356962797,0.3031662470435643,-0.009582665751125319,0.9059586480506603
1539131356978778,0.30682841229877145,-0.037537193865873064,0.913160906385901
1539131356994758,0.3036545357442586,-0.04876783398184159,0.9231708247501338
1539131357010739,0.29425497825589364,-0.03997863736934448,0.9164568551155874
1539131357026720,0.27704280155642014,-0.02020294499122599,0.9159685664148931
1539131357042700,0.2630045014114595,0.0026245517662317752,0.9201190203707945
1539131357058681,0.2575112535286488,0.01373311970702673,0.9130388342107274
1539131357074662,0.2575112535286488,0.004455634393835339,0.9193865873197531
1539131357090643,0.2670328831921873,-0.023743038071259548,0.9335469596398873
1539131357106623,0.276798657206073,-0.053040360112916574,0.9372091248950944
1539131357122604,0.2821698329137101,-0.06890974288548124,0.9326924544136723
1539131357138585,0.2880292973220415,-0.06305027847714983,0.9230487525749602
1539131357154565,0.2869306477454794,-0.041443503471427334,0.9141374837872895
1539131357170546,0.2804608224612801,-0.01898222323949028,0.9204852368963152
1539131357186523,0.2687418936446173,-0.01361104753185316,0.9257343404287788
1539131357202504,0.2695963988708323,-0.019348439765010994,0.9223163195239188
1539131357218485,0.2650797283894102,-0.03167772945754166,0.9235370412756545
1539131357234465,0.26178377965972377,-0.044007019150072324,0.9243915465018695
1539131357250446,0.2616617074845502,-0.050476844434271584,0.9261005569542995
1539131357266427,0.2594644083314259,-0.05487144274052014,0.9251239795529109
1539131357282407,0.2680094605935759,-0.055970092317082276,0.9153582055390252
1539131357298388,0.27582207980468443,-0.05242999923704872,0.9107194628824296
1539131357314369,0.2752117189288166,-0.04083314259555948,0.9113298237582974
1539131357330350,0.2692301823453116,-0.030090791180285237,0.9228046082246131
1539131357346330,0.2680094605935759,-0.020935378042267416,0.929640650034333
1539131357362311,0.26227206836041805,-0.01641870756084529,0.9394064240482187
1539131357378292,0.2545815213244831,-0.01104753185320817,0.936476691844053
1539131357394272,0.25433737697413594,-0.010070954451819603,0.939040207522698
1539131357410253,0.25397116044861523,-0.01898222323949028,0.9456321049820708
1539131357426234,0.25641260395208665,-0.028747997253375956,0.9394064240482187
1539131357442215,0.26263828488593877,-0.03851377126726163,0.9270771343556881
1539131357458195,0.2670328831921873,-0.04180971999694805,0.9290302891584652
1539131357474176,0.2680094605935759,-0.03680476081483164,0.9346456092164495
1539131357490157,0.26263828488593877,-0.030823224231326662,0.9317158770122838
1539131357506134,0.2611734187838559,-0.03216601815823594,0.9320820935378045
1539131357522114,0.2556801709010452,-0.03704890516517878,0.9278095674067295
1539131357538095,0.2566567483024338,-0.036316472114137355,0.9256122682536052
1539131357554076,0.2523842221713588,-0.031067368581673804,0.9289082169832916
1539131357570057,0.25311665522240023,-0.02642862592507811,0.9243915465018695
1539131357586037,0.25433737697413594,-0.025574120698863112,0.9265888456549938
1539131357602018,0.25262836652170595,-0.029846646829938095,0.9241474021515224
1539131357617999,0.2536049439230945,-0.041443503471427334,0.9217059586480509
1539131357633979,0.2609292744335088,-0.05267414358739586,0.9245136186770431
1539131357649960,0.26349279011215376,-0.06182955672541368,0.914869916838331
1539131357665941,0.2705729762722209,-0.057190814068817986,0.9218280308232245
1539131357681922,0.2687418936446173,-0.04779125658045302,0.9320820935378045
1539131357697902,0.2709391927977416,-0.033752956435492365,0.9292744335088123
1539131357713883,0.271671625848783,-0.02679484245059882,0.9291523613336388
1539131357729864,0.26849774929427017,-0.029846646829938095,0.9367208361944002
1539131357745844,0.2687418936446173,-0.04095521477073305,0.939040207522698
1539131357761825,0.2683756771190966,-0.05145342183566015,0.9358663309681852
1539131357777806,0.2647135118638895,-0.05877775234607441,0.9389181353475244
1539131357793787,0.26520180056458376,-0.05780117494468584,0.9353780422674909
1539131357809767,0.2675211718928816,-0.05548180361638799,0.9235370412756545
1539131357825775,0.2687418936446173,-0.05169756618600729,0.912306401159686
1539131357841755,0.2658121614404516,-0.04486152437628732,0.908888380254826
1539131357857736,0.2638590066376745,-0.04974441138323016,0.9121843289845124
1539131357873717,0.26263828488593877,-0.05011062790875087,0.908888380254826
1539131357889698,0.26190585183489734,-0.050598916609445155,0.9077897306782639
1539131357905678,0.2616617074845502,-0.04852368963149445,0.9110856794079503
1539131357921659,0.25690089265278093,-0.04449530785076661,0.9269550621805145
1539131357937640,0.25348287174792095,-0.038879987792782345,0.9431906614785994
1539131357953621,0.25128557259479667,-0.03424124513618665,0.9473411154345008
1539131357969601,0.2527504386968795,-0.029724574654764524,0.9469748989089801
1539131357985582,0.25506981002517737,-0.03472953383688093,0.9474631876096744
1539131358001563,0.2565346761272602,-0.038757915617608774,0.9406271457999544
1539131358017543,0.2573891813534752,-0.036194399938963784,0.9406271457999544
1539131358033524,0.25555809872587165,-0.03350881208514522,0.9274433508812088
1539131358049505,0.2592202639810788,-0.030945296406500233,0.9110856794079503
1539131358065486,0.2695963988708323,-0.033875028610665936,0.9033951323720153
1539131358081466,0.27704280155642014,-0.04632639047837017,0.8883802548256661
1539131358097447,0.27789730678263513,-0.060975051499198685,0.8832532234683761
1539131358113428,0.2658121614404516,-0.06817730983443981,0.8888685435263604
1539131358129408,0.2556801709010452,-0.06475928892957983,0.9109636072327767
1539131358145385,0.24921034561684596,-0.058411535820553695,0.9414816510261694
1539131358161366,0.24664682993820097,-0.05255207141222229,0.9569848172732129
1539131358177347,0.24225223163195242,-0.0462043183031966,0.9644312199588008
1539131358193328,0.2533607995727474,-0.0499885557335773,0.9662623025864043
1539131358209308,0.2704509040970473,-0.0669565880827041,0.9696803234912643
1539131358225289,0.27997253376058584,-0.08221560997940047,0.9574731059739072
1539131358241270,0.2835126268406194,-0.0774547951476312,0.9376974135957887
1539131358257250,0.2835126268406194,-0.05560387579156156,0.9235370412756545
1539131358273231,0.2885175860227358,-0.031189440756847375,0.9136491950865953
1539131358289212,0.28253604943923083,-0.020935378042267416,0.9018081940947589
1539131358305193,0.28082703898680084,-0.026916914625772392,0.8927748531319146
1539131358321173,0.28168154421301583,-0.03302052338445094,0.8950942244602125
1539131358337154,0.2763103685053787,-0.0327763790341038,0.9132829785610745
1539131358353135,0.26727702754253446,-0.027161058976119534,0.9058365758754867
1539131358369115,0.2645914396887159,-0.027405203326466676,0.8941176470588239
1539131358385096,0.2582436865796902,-0.04046692607003877,0.8966811627374689
1539131358401077,0.25397116044861523,-0.06854352635996053,0.910597390707256
1539131358417058,0.2532387273975738,-0.1018692301823454,0.9353780422674909
1539131358433038,0.25091935606927596,-0.11920347905699247,0.9396505683985659
1539131358449019,0.25006485084306096,-0.1161516746776532,0.9470969710841537
1539131358464965,0.2532387273975738,-0.09491111619745185,0.9607690547035936
1539131358480946,0.25470359349965666,-0.07550164034485407,0.9589379720759901
1539131358496927,0.25421530479896237,-0.06805523765926624,0.9590600442511636
1539131358512908,0.2653238727397573,-0.06585793850614197,0.9529564354924851
1539131358528888,0.27203784237430373,-0.0613412680247194,0.9446555275806823
1539131358544869,0.2738689250019073,-0.05169756618600729,0.9348897535667966
1539131358560850,0.2726482032501716,-0.04437323567559304,0.9196307316701002
1539131358576830,0.27447928587777515,-0.044129091325245895,0.9062027924010074
1539131358592811,0.2721599145494773,-0.04364080262455161,0.8970473792629896
1539131358608792,0.26935225452048517,-0.040344853894865196,0.8880140383001454
1539131358624773,0.26569008926527804,-0.033752956435492365,0.8886243991760132
1539131358640753,0.2633707179369802,-0.03692683299000521,0.8916762035553525
1539131358656734,0.25934233615625235,-0.037781338216220206,0.8971694514381632
1539131358672715,0.239810788128481,-0.03033493553063238,0.9142595559624631
1539131358688696,0.22858014801251247,-0.02642862592507811,0.945021744106203
1539131358704676,0.21869230182345323,-0.03973449301899734,0.976882581826505
1539131358720657,0.23382925154497602,-0.062195773250934394,0.9733424887464714
1539131358736638,0.24298466468299385,-0.07013046463721695,0.9705348287174793
1539131358752618,0.2511635004196231,-0.06463721675440626,0.9754177157244222
1539131358768599,0.26813153276874946,-0.05548180361638799,0.9630884260318915
1539131358784576,0.26813153276874946,-0.050476844434271584,0.9401388570992602
1539131358800557,0.2738689250019073,-0.06512550545510054,0.9309834439612423
1539131358816537,0.28241397726405726,-0.08929579613946759,0.9240253299763488
1539131358832518,0.2898603799496451,-0.09369039444571614,0.9143816281376367
1539131358848499,0.27533379110399014,-0.08538948653391332,0.9014419775692382
1539131358864480,0.2659342336156252,-0.08538948653391332,0.8859388113221947
1539131358880460,0.2506752117189288,-0.08050659952697048,0.9180437933928438
1539131358896441,0.3032883192187379,-0.11297779812314035,0.9168230716411081
1539131358912422,0.29596398870832363,-0.21136797131303897,0.8786144808117804
1539131358928403,0.21063553826199755,-0.1732814526588844,0.9164568551155874
1539131358944383,0.20880445563439398,-0.08233768215457404,0.9522240024414437
1539131358960364,0.20428778515297186,-0.019714656290531707,0.9500267032883194
1539131358976345,0.21564049744411395,0.01495384145876244,0.9459983215075916
1539131358992325,0.23529411764705888,0.021179522392614558,0.9264667734798202
1539131359008306,0.25348287174792095,-0.0022583352407110624,0.9196307316701002
1539131359024287,0.27203784237430373,-0.028259708552681673,0.910597390707256
1539131359040268,0.28741893644617367,-0.04596017395284946,0.9007095445181967
1539131359056248,0.2700846875715266,-0.04083314259555948,0.9065690089265281
1539131359072229,0.2571450370031281,-0.026062409399557396,0.900343327992676
1539131359088210,0.25970855268177306,-0.021667811093308842,0.9042496375982303
1539131359104187,0.2653238727397573,-0.0319218738078888,0.9015640497444117
1539131359120167,0.27032883192187374,-0.0432745860990309,0.9047379262989246
1539131359136148,0.2695963988708323,-0.05413900968947871,0.9068131532768753
1539131359152129,0.27118333714808873,-0.0613412680247194,0.9202410925459681
1539131359168110,0.2671549553673609,-0.06524757763027411,0.9320820935378045
1539131359184090,0.2695963988708323,-0.06622415503166268,0.9317158770122838
1539131359200071,0.2683756771190966,-0.07025253681239052,0.938185702296483
1539131359216052,0.2675211718928816,-0.06915388723582838,0.9425803006027316
1539131359232032,0.26642252231631947,-0.07550164034485407,0.9369649805447473
1539131359248013,0.26654459449149304,-0.08819714656290545,0.9301289387350273
1539131359263994,0.2570229648279545,-0.1010147249561304,0.9325703822384988
1539131359279975,0.24725719081406883,-0.1135881589990082,0.9351338979171437
1539131359295955,0.24689097428854812,-0.1299458304722667,0.9306172274357216
1539131359311936,0.242374303807126,-0.13226520180056456,0.9273212787060352
1539131359327917,0.2410315098802167,-0.1182269016556039,0.9293965056839859
1539131359343897,0.24286259250782027,-0.10028229190508897,0.9361104753185323
1539131359359878,0.2573891813534752,-0.09295796139467472,0.9340352483405816
1539131359375859,0.2621499961852445,-0.093446250095369,0.9256122682536052
1539131359391840,0.25226214999618524,-0.10077058060578326,0.9358663309681852
1539131359407820,0.24628061341268026,-0.10882734416723894,0.9478294041351951
1539131359423797,0.2461585412375067,-0.10785076676585037,0.9422140840772109
1539131359439778,0.2356603341725796,-0.09954985885404755,0.9275654230563823
1539131359455759,0.22772564278629748,-0.09417868314641042,0.9359884031433587
1539131359471739,0.2280918593118182,-0.09735255970092327,0.939894712748913
1539131359487720,0.24225223163195242,-0.10528725108720538,0.9359884031433587
1539131359503701,0.23993286030365457,-0.10785076676585037,0.9380636301213094
1539131359519682,0.24213015945677885,-0.11004806591897465,0.9436789501792937
1539131359535662,0.24847791256580454,-0.11920347905699247,0.9626001373311972
1539131359551643,0.27704280155642014,-0.13226520180056456,0.9478294041351951
1539131359567624,0.2998702983138779,-0.11261158159761964,0.8987563897154196
1539131359583604,0.29633020523384435,-0.08258182650492119,0.8654306858930338
1539131359599585,0.2872968642710001,-0.07879758907454049,0.8683604180971995
1539131359615566,0.2654459449149309,-0.10577553978789966,0.8897230487525754
1539131359631547,0.25348287174792095,-0.14459449149309522,0.9049820706492717
1539131359647527,0.25262836652170595,-0.164003967345693,0.9175555046921495
1539131359663508,0.2586099031052109,-0.16424811169604014,0.9281757839322502
1539131359679489,0.2783855954833294,-0.16034180209048587,0.9163347829404138
1539131359695469,0.28705271992065295,-0.1464255741206988,0.9038834210727096
1539131359711450,0.2743572137026016,-0.13653772793163954,0.9160906385900667
1539131359727431,0.26178377965972377,-0.1342183566033417,0.9228046082246131
1539131359743408,0.2620279240100709,-0.12689402609292744,0.939040207522698
1539131359759389,0.2620279240100709,-0.10821698329137108,0.9522240024414437
1539131359775369,0.26178377965972377,-0.09271381704432757,0.9617456321049822
1539131359791350,0.26349279011215376,-0.11407644769970249,0.9326924544136723
1539131359807331,0.2876630807965208,-0.1455710688944838,0.8976577401388575
1539131359823311,0.31390859845883856,-0.16498054474708157,0.8864271000228889
1539131359839292,0.3208667124437321,-0.16876478217746227,0.8798352025635161
1539131359855273,0.3141527428091857,-0.15741206988632017,0.8792248416876483
1539131359871254,0.2859540703440908,-0.14190890363927666,0.8867933165484096
1539131359887234,0.25311665522240023,-0.1366598001068131,0.908033875028611
