Timestamp (microseconds),Gyro X (°/s),Gyro Y (°/s),Gyro Z (°/s)
1539131334812805,0.2746623941404778,-0.09155413138023505,-1.6784924086366573
1539131334828801,-0.5188067444876197,0.09155413138023505,-1.6174563210497581
1539131334844797,-0.6408789196611906,0.33569848172737693,-1.8005645838102282
1539131334860793,-0.7019150072480898,0.7629510948347615,-2.166781109330941
1539131334876789,-1.6784924086366573,1.0070954451819034,-2.410925459678083
1539131334892785,-2.227817196917613,1.4343480582895154,-2.5940337224383256
1539131334908781,-1.8616006713969,1.6174563210497581,-2.9602502479590385
1539131334924777,-0.9460593575952316,2.105745021744042,-3.3875028610666504
1539131334940773,-0.3967345693140487,2.5940337224383256,-3.7537193865873633
1539131334956769,-0.5798428320745188,2.8992141603723667,-3.997863736934505
1539131334972765,0.03051804379333589,2.8381780727854675,-4.119935912108076
1539131334988761,0.7019150072480898,2.5940337224383256,-4.119935912108076
1539131335004757,0.7019150072480898,2.410925459678083,-4.364080262455218
1539131335020753,-0.09155413138023505,2.105745021744042,-4.547188525215461
1539131335036749,-0.2746623941404778,1.9226367589837992,-4.730296787975931
1539131335052744,0.03051804379333589,1.8005645838102282,-4.60822461280236
1539131335068740,0.5798428320745188,1.6174563210497581,-4.364080262455218
1539131335084736,0.8850232700083325,1.1291676203554744,-3.997863736934505
1539131335100732,-0.03051804379333589,0.45777065690094787,-3.692683299000464
1539131335116728,-0.9460593575952316,-0.09155413138023505,-3.6316472114137923
1539131335132721,-1.6784924086366573,-0.5188067444876197,-3.6316472114137923
1539131335148717,-2.227817196917613,-0.7019150072480898,-3.2654306858930795
1539131335164713,-1.5564202334630863,-0.6408789196611906,-2.532997634851654
1539131335180709,0.213626306553806,-0.33569848172737693,-1.6174563210497581
1539131335196704,2.04470893415737,0.15259021896690683,-0.7019150072480898
1539131335212700,2.5940337224383256,0.8850232700083325,0.09155413138023505
1539131335228696,3.0823224231326094,1.6784924086366573,0.8239871824216607
1539131335244692,3.2043945983061803,1.9226367589837992,1.4343480582895154
1539131335260688,2.410925459678083,2.04470893415737,1.6784924086366573
1539131335276684,0.8239871824216607,1.9226367589837992,1.8616006713969
1539131335292680,-0.6408789196611906,1.4953841458761872,2.166781109330941
1539131335308676,-0.5798428320745188,1.0070954451819034,2.227817196917613
1539131335324672,0.5188067444876197,0.8239871824216607,1.9226367589837992
1539131335340668,1.8005645838102282,0.6408789196611906,1.3733119707026162
1539131335356664,2.105745021744042,0.6408789196611906,0.7629510948347615
1539131335372660,1.8616006713969,0.6408789196611906,0.03051804379333589
1539131335388656,1.1902037079423735,0.7629510948347615,-0.2746623941404778
1539131335404652,1.0681315327688026,1.0681315327688026,-0.15259021896690683
1539131335420648,2.105745021744042,1.0681315327688026,-0.15259021896690683
1539131335436644,2.410925459678083,0.7019150072480898,-0.3967345693140487
1539131335452636,1.3122758831159445,0.2746623941404778,-0.9460593575952316
1539131335468632,-0.3967345693140487,-0.15259021896690683,-1.739528496223329
1539131335484628,-1.6174563210497581,-0.2746623941404778,-2.227817196917613
1539131335500624,-1.1902037079423735,-0.2746623941404778,-2.227817196917613
1539131335516620,0.8850232700083325,-0.15259021896690683,-1.9226367589837992
1539131335532616,2.655069810025225,0.03051804379333589,-1.8005645838102282
1539131335548612,2.7161058976118966,0.09155413138023505,-2.227817196917613
1539131335564608,2.105745021744042,0.2746623941404778,-2.288853284504512
1539131335580604,1.983672846570471,0.45777065690094787,-1.5564202334630863
1539131335596600,3.7537193865873633,0.5798428320745188,0.213626306553806
1539131335612596,6.622415503166167,0.5798428320745188,2.5940337224383256
1539131335628592,7.660028992141633,0.5798428320745188,4.669260700389032
1539131335644588,5.584802014190927,0.33569848172737693,6.439307240405924
1539131335660584,2.655069810025225,-0.09155413138023505,7.843137254901876
1539131335676580,1.4953841458761872,-0.5188067444876197,8.819714656290444
1539131335692576,0.8239871824216607,-0.8239871824216607,9.55214770733187
1539131335708572,1.1291676203554744,-0.6408789196611906,9.979400320439481
1539131335724568,1.1902037079423735,-0.3967345693140487,10.162508583199724
1539131335740564,-0.213626306553806,0.09155413138023505,9.85732814526591
1539131335756560,-2.166781109330941,0.6408789196611906,9.185931181811156
1539131335772277,-3.1433585107195086,1.3122758831159445,8.758678568703772
1539131335788272,-1.9226367589837992,1.739528496223329,8.270389868009488
1539131335804267,-0.7019150072480898,1.8616006713969,7.476920729381163
1539131335820261,0.15259021896690683,1.6174563210497581,6.805523765926637
1539131335836256,-0.09155413138023505,1.2512397955290453,6.378271152819025
1539131335852250,-2.04470893415737,0.8239871824216607,5.95101853971164
1539131335868245,-4.058899824521177,0.6408789196611906,5.401693751430457
1539131335884239,-6.134126802471883,0.2746623941404778,4.60822461280236
1539131335900234,-8.026245517662346,-0.09155413138023505,3.570611123826893
1539131335916228,-7.4158846417944915,0.09155413138023505,2.532997634851654
1539131335932223,-4.730296787975931,0.7019150072480898,1.6784924086366573
1539131335948217,-0.5188067444876197,1.4953841458761872,1.3733119707026162
1539131335964212,2.105745021744042,2.227817196917613,1.2512397955290453
1539131335980207,1.983672846570471,2.8381780727854675,1.6784924086366573
1539131335996201,0.8850232700083325,3.3264667734797513,2.5940337224383256
1539131336012196,-2.4719615472647547,3.2043945983061803,3.3875028610666504
1539131336028190,-6.805523765926637,2.7771419851987957,3.875791561760934
1539131336044185,-8.697642481116873,1.983672846570471,5.0354772259097444
1539131336060179,-8.575570305943302,0.8850232700083325,6.195162890058782
1539131336076174,-7.11070420386045,-0.5798428320745188,7.049668116273779
1539131336091888,-4.119935912108076,-1.8005645838102282,7.660028992141633
1539131336107882,-0.3967345693140487,-2.7161058976118966,7.598992904554734
1539131336123875,1.739528496223329,-3.570611123826893,7.476920729381163
1539131336139869,2.410925459678083,-4.058899824521177,7.354848554207592
1539131336155862,1.2512397955290453,-4.364080262455218,7.660028992141633
1539131336171856,-1.1291676203554744,-4.242008087281647,7.721065079728305
1539131336187850,-3.7537193865873633,-3.936827649347606,7.354848554207592
1539131336203843,-6.378271152819025,-3.4485389486533222,6.8665598535133086
1539131336219837,-7.2938124666209205,-3.0823224231326094,6.378271152819025
1539131336235830,-7.782101167315204,-2.8992141603723667,6.073090714885211
1539131336251824,-7.232776379034021,-2.5940337224383256,5.828946364538069
1539131336267818,-5.462729839017356,-2.166781109330941,5.95101853971164
1539131336283811,-2.410925459678083,-1.9226367589837992,6.073090714885211
1539131336299805,0.15259021896690683,-1.3733119707026162,6.073090714885211
1539131336315798,-0.03051804379333589,-0.8239871824216607,5.828946364538069
1539131336331792,-2.3498893720911838,-0.3967345693140487,5.2185854886702145
1539131336347786,-0.8239871824216607,0.5798428320745188,4.486152437628789
1539131336363779,8.758678568703772,2.9602502479590385,4.730296787975931
1539131336379773,19.1348134584573,5.279621576256886,5.95101853971164
1539131336395766,21.51522087434182,6.683451590753066,6.500343327992596
1539131336411529,13.702601663233281,6.256198977645454,5.76791027695117
1539131336427522,1.4953841458761872,5.157549401083315,4.119935912108076
1539131336443514,-7.476920729381163,3.7537193865873633,2.166781109330941
1539131336459507,-11.07804989700162,2.532997634851654,0.3967345693140487
1539131336475500,-9.979400320439481,1.8005645838102282,-0.8850232700083325
1539131336491492,-6.378271152819025,1.8005645838102282,-1.983672846570471
1539131336507485,-2.8381780727854675,2.166781109330941,-2.8992141603723667
1539131336523478,-2.4719615472647547,2.3498893720911838,-3.570611123826893
1539131336539470,-5.462729839017356,2.3498893720911838,-4.058899824521177
1539131336555463,-9.613183794918768,2.410925459678083,-4.303044174868319
1539131336571456,-11.20012207217519,2.227817196917613,-4.180971999694748
1539131336587448,-10.772869459067579,1.9226367589837992,-3.997863736934505
1539131336603441,-9.185931181811156,1.8005645838102282,-3.570611123826893
1539131336619434,-6.805523765926637,1.6784924086366573,-2.8381780727854675
1539131336635426,-2.9602502479590385,1.6784924086366573,-2.105745021744042
1539131336651419,-0.03051804379333589,1.2512397955290453,-1.4953841458761872
1539131336667411,-0.7019150072480898,1.0070954451819034,-1.3122758831159445
1539131336683404,-3.3264667734797513,1.0070954451819034,-1.1902037079423735
1539131336699397,-4.852368963149502,0.8850232700083325,-1.1902037079423735
1539131336715389,-4.058899824521177,1.1902037079423735,-1.1902037079423735
1539131336731170,-2.7161058976118966,1.5564202334630863,-1.1902037079423735
1539131336747162,-2.7771419851987957,1.6174563210497581,-1.4343480582895154
1539131336763154,-3.570611123826893,1.4953841458761872,-1.4953841458761872
1539131336779145,-3.936827649347606,1.1902037079423735,-1.3733119707026162
1539131336795137,-4.058899824521177,0.9460593575952316,-1.3733119707026162
1539131336811129,-3.875791561760934,0.8850232700083325,-1.4343480582895154
1539131336827120,-3.692683299000464,1.0070954451819034,-1.4953841458761872
1539131336843112,-3.7537193865873633,1.1291676203554744,-1.4953841458761872
1539131336859104,-3.692683299000464,0.8850232700083325,-1.5564202334630863
1539131336875095,-3.570611123826893,0.7019150072480898,-1.4343480582895154
1539131336891087,-2.9602502479590385,0.5798428320745188,-1.3122758831159445
1539131336907079,-1.8616006713969,0.7629510948347615,-1.0681315327688026
1539131336923071,-1.1902037079423735,1.1291676203554744,-0.8239871824216607
1539131336939062,-0.7019150072480898,1.5564202334630863,-0.7629510948347615
1539131336955054,-0.7629510948347615,2.105745021744042,-0.9460593575952316
1539131336971046,-1.8616006713969,2.166781109330941,-1.0681315327688026
1539131336987037,-2.288853284504512,2.105745021744042,-1.0681315327688026
1539131337003029,-1.0070954451819034,1.983672846570471,-1.0681315327688026
1539131337019021,0.2746623941404778,1.6784924086366573,-1.3122758831159445
1539131337035012,0.8850232700083325,1.3733119707026162,-1.8616006713969
1539131337050750,0.5798428320745188,0.9460593575952316,-2.4719615472647547
1539131337066741,-0.15259021896690683,0.5798428320745188,-2.5940337224383256
1539131337082732,-1.0070954451819034,0.5188067444876197,-2.5940337224383256
1539131337098723,-1.1902037079423735,0.9460593575952316,-2.532997634851654
1539131337114713,-0.15259021896690683,1.3733119707026162,-2.410925459678083
1539131337130704,0.5188067444876197,1.4343480582895154,-2.3498893720911838
1539131337146695,0.5188067444876197,1.6784924086366573,-2.532997634851654
1539131337162685,-0.45777065690094787,1.6174563210497581,-2.8992141603723667
1539131337178676,-1.4953841458761872,1.4953841458761872,-3.2654306858930795
1539131337194667,-1.8616006713969,1.2512397955290453,-3.3264667734797513
1539131337210658,-0.9460593575952316,1.4343480582895154,-3.3264667734797513
1539131337226648,0.09155413138023505,1.4343480582895154,-3.2654306858930795
1539131337242639,1.0681315327688026,1.6784924086366573,-3.4485389486533222
1539131337258630,1.3122758831159445,1.983672846570471,-3.814755474174035
1539131337274621,0.5798428320745188,2.105745021744042,-3.875791561760934
1539131337290611,-0.6408789196611906,2.105745021744042,-3.692683299000464
1539131337306602,-1.4343480582895154,2.288853284504512,-3.3875028610666504
1539131337322593,-1.0070954451819034,2.655069810025225,-2.9602502479590385
1539131337338584,0.09155413138023505,2.4719615472647547,-2.5940337224383256
1539131337354574,0.2746623941404778,2.288853284504512,-2.532997634851654
1539131337370391,0.09155413138023505,2.227817196917613,-2.227817196917613
1539131337386382,0.15259021896690683,1.983672846570471,-1.8005645838102282
1539131337402372,1.5564202334630863,1.9226367589837992,-1.4343480582895154
1539131337418362,2.8381780727854675,1.6784924086366573,-1.3122758831159445
1539131337434352,2.288853284504512,1.4953841458761872,-1.4343480582895154
1539131337450343,0.15259021896690683,1.4343480582895154,-1.6174563210497581
1539131337466333,-1.0681315327688026,1.3733119707026162,-1.5564202334630863
1539131337482323,-0.33569848172737693,1.3733119707026162,-1.3122758831159445
1539131337498314,0.6408789196611906,1.2512397955290453,-0.9460593575952316
1539131337514304,1.1291676203554744,1.2512397955290453,-0.7019150072480898
1539131337530294,0.6408789196611906,1.1902037079423735,-0.5188067444876197
1539131337546284,-0.09155413138023505,1.1291676203554744,-0.33569848172737693
1539131337562275,0.15259021896690683,1.0681315327688026,-0.15259021896690683
1539131337578265,0.15259021896690683,0.9460593575952316,-0.09155413138023505
1539131337594255,-0.5188067444876197,0.6408789196611906,-0.09155413138023505
1539131337610245,-1.2512397955290453,0.45777065690094787,-0.15259021896690683
1539131337626236,-1.0070954451819034,0.3967345693140487,0.03051804379333589
1539131337642226,0.7019150072480898,0.45777065690094787,0.3967345693140487
1539131337658216,2.410925459678083,0.6408789196611906,0.7019150072480898
1539131337674206,2.410925459678083,0.7019150072480898,0.7629510948347615
1539131337690033,1.3733119707026162,0.9460593575952316,0.7629510948347615
1539131337706022,-0.03051804379333589,1.1902037079423735,0.5798428320745188
1539131337722011,-0.213626306553806,1.1902037079423735,0.3967345693140487
1539131337738000,0.15259021896690683,1.0681315327688026,0.213626306553806
1539131337753990,0.8239871824216607,0.8850232700083325,0.09155413138023505
1539131337769979,1.4953841458761872,0.45777065690094787,0.09155413138023505
1539131337785968,1.5564202334630863,0.03051804379333589,0.09155413138023505
1539131337801958,1.739528496223329,-0.213626306553806,-0.03051804379333589
1539131337817947,1.6784924086366573,-0.33569848172737693,-0.33569848172737693
1539131337833936,0.7019150072480898,-0.2746623941404778,-0.7629510948347615
1539131337849926,-0.7019150072480898,-0.09155413138023505,-1.0681315327688026
1539131337865915,-1.6784924086366573,0.213626306553806,-0.8850232700083325
1539131337881904,-0.9460593575952316,0.5798428320745188,-0.5188067444876197
1539131337897894,0.3967345693140487,1.1902037079423735,-0.33569848172737693
1539131337913883,0.2746623941404778,1.3122758831159445,-0.6408789196611906
1539131337929872,-2.410925459678083,1.0681315327688026,-1.4953841458761872
1539131337945861,-3.0823224231326094,1.2512397955290453,-2.04470893415737
1539131337961851,-0.33569848172737693,1.739528496223329,-1.3122758831159445
1539131337977840,1.3122758831159445,1.8005645838102282,-0.6408789196611906
1539131337993829,0.5188067444876197,1.983672846570471,-0.5188067444876197
1539131338009674,-0.7629510948347615,2.04470893415737,-0.45777065690094787
1539131338025663,0.15259021896690683,2.3498893720911838,-0.03051804379333589
1539131338041651,1.9226367589837992,2.4719615472647547,0.33569848172737693
1539131338057640,2.288853284504512,2.4719615472647547,0.09155413138023505
1539131338073629,1.0681315327688026,2.410925459678083,-0.213626306553806
1539131338089618,-0.45777065690094787,2.166781109330941,-0.2746623941404778
1539131338105607,-0.9460593575952316,2.166781109330941,-0.213626306553806
1539131338121595,0.33569848172737693,2.227817196917613,-0.3967345693140487
1539131338137584,1.5564202334630863,2.166781109330941,-0.7019150072480898
1539131338153573,1.8005645838102282,1.9226367589837992,-1.0681315327688026
1539131338169562,0.7629510948347615,1.739528496223329,-1.1902037079423735
1539131338185551,-0.45777065690094787,1.6174563210497581,-1.1902037079423735
1539131338201540,-0.7019150072480898,1.3733119707026162,-0.7019150072480898
1539131338217528,0.213626306553806,1.1902037079423735,-0.03051804379333589
1539131338233517,1.2512397955290453,1.1902037079423735,0.45777065690094787
1539131338249506,1.6174563210497581,0.7629510948347615,0.8850232700083325
1539131338265495,1.4343480582895154,0.5798428320745188,0.9460593575952316
1539131338281484,1.4343480582895154,0.45777065690094787,0.8239871824216607
1539131338297473,1.9226367589837992,0.3967345693140487,0.5798428320745188
1539131338313461,2.105745021744042,0.33569848172737693,0.3967345693140487
1539131338329284,2.227817196917613,0.3967345693140487,0.3967345693140487
1539131338345273,2.227817196917613,0.45777065690094787,0.5188067444876197
1539131338361261,2.288853284504512,0.45777065690094787,0.5188067444876197
1539131338377249,1.983672846570471,0.09155413138023505,0.213626306553806
1539131338393238,1.6174563210497581,-0.3967345693140487,-0.33569848172737693
1539131338409226,1.983672846570471,-1.2512397955290453,-0.8239871824216607
1539131338425214,3.3264667734797513,-2.166781109330941,-1.0070954451819034
1539131338441203,5.401693751430457,-2.7161058976118966,-0.8850232700083325
1539131338457191,7.476920729381163,-2.8381780727854675,-0.3967345693140487
1539131338473179,8.209353780422589,-2.410925459678083,0.2746623941404778
1539131338489168,7.232776379034021,-1.8616006713969,1.1291676203554744
1539131338505156,5.584802014190927,-1.5564202334630863,2.04470893415737
1539131338521144,4.852368963149502,-1.5564202334630863,3.2043945983061803
1539131338537133,4.119935912108076,-1.8005645838102282,3.997863736934505
1539131338553121,2.532997634851654,-2.04470893415737,4.242008087281647
1539131338569110,0.7629510948347615,-2.3498893720911838,4.180971999694748
1539131338585098,0.213626306553806,-2.105745021744042,4.180971999694748
1539131338601086,1.3122758831159445,-1.9226367589837992,4.119935912108076
1539131338617075,3.0823224231326094,-1.6784924086366573,3.814755474174035
1539131338633063,3.0823224231326094,-1.2512397955290453,2.9602502479590385
1539131338648895,2.166781109330941,-1.0070954451819034,2.227817196917613
1539131338664882,1.9226367589837992,-0.8850232700083325,1.8005645838102282
1539131338680870,2.7771419851987957,-0.7629510948347615,1.4343480582895154
1539131338696857,3.7537193865873633,-0.5798428320745188,1.0681315327688026
1539131338712844,3.0212863355459376,-0.45777065690094787,0.6408789196611906
1539131338728832,1.2512397955290453,-0.3967345693140487,0.03051804379333589
1539131338744819,0.5188067444876197,-0.3967345693140487,-0.6408789196611906
1539131338760807,0.8239871824216607,-0.15259021896690683,-1.1291676203554744
1539131338776794,1.6174563210497581,0.2746623941404778,-1.8005645838102282
1539131338792781,2.8992141603723667,0.8239871824216607,-2.532997634851654
1539131338808769,3.7537193865873633,1.4343480582895154,-2.8381780727854675
1539131338824756,3.570611123826893,1.739528496223329,-2.7771419851987957
1539131338840744,3.2654306858930795,1.983672846570471,-2.410925459678083
1539131338856731,2.8992141603723667,1.8616006713969,-2.288853284504512
1539131338872718,1.4953841458761872,1.4343480582895154,-2.166781109330941
1539131338888706,-0.7629510948347615,0.9460593575952316,-2.166781109330941
1539131338904693,-2.04470893415737,0.6408789196611906,-2.288853284504512
1539131338920681,-0.8850232700083325,0.6408789196611906,-2.288853284504512
1539131338936668,1.6784924086366573,0.45777065690094787,-2.4719615472647547
1539131338952655,2.5940337224383256,0.213626306553806,-2.5940337224383256
1539131338968536,1.4343480582895154,0.03051804379333589,-2.5940337224383256
1539131338984523,-0.45777065690094787,0.03051804379333589,-2.4719615472647547
1539131339000510,-1.983672846570471,0.15259021896690683,-2.410925459678083
1539131339016497,-1.8616006713969,0.2746623941404778,-2.227817196917613
1539131339032484,-0.5798428320745188,0.5798428320745188,-1.8005645838102282
1539131339048471,-0.09155413138023505,0.9460593575952316,-1.4953841458761872
1539131339064458,0.7629510948347615,0.9460593575952316,-1.2512397955290453
1539131339080444,1.6784924086366573,0.8239871824216607,-1.1291676203554744
1539131339096431,1.983672846570471,0.45777065690094787,-1.2512397955290453
1539131339112418,0.8850232700083325,-0.09155413138023505,-1.4343480582895154
1539131339128405,-0.33569848172737693,-0.5798428320745188,-1.739528496223329
1539131339144392,-0.5188067444876197,-0.45777065690094787,-2.166781109330941
1539131339160379,0.6408789196611906,-0.03051804379333589,-2.4719615472647547
1539131339176366,1.8616006713969,0.5188067444876197,-2.7161058976118966
1539131339192353,2.4719615472647547,1.1902037079423735,-2.8992141603723667
1539131339208340,2.227817196917613,1.8616006713969,-3.0823224231326094
1539131339224327,1.4343480582895154,2.105745021744042,-3.2654306858930795
1539131339240314,0.03051804379333589,2.105745021744042,-3.3264667734797513
1539131339256301,-1.0681315327688026,1.739528496223329,-3.0823224231326094
1539131339272287,-0.9460593575952316,1.2512397955290453,-2.655069810025225
1539131339288147,0.15259021896690683,0.6408789196611906,-2.166781109330941
1539131339304133,0.8239871824216607,0.213626306553806,-1.8005645838102282
1539131339320119,0.6408789196611906,0.09155413138023505,-1.6174563210497581
1539131339336106,-0.09155413138023505,0.09155413138023505,-1.2512397955290453
1539131339352092,-0.3967345693140487,0.213626306553806,-0.7629510948347615
1539131339368079,0.3967345693140487,0.5188067444876197,-0.2746623941404778
1539131339384065,1.1902037079423735,1.1902037079423735,-0.03051804379333589
1539131339400052,1.1291676203554744,1.6174563210497581,0.15259021896690683
1539131339416038,0.15259021896690683,1.6784924086366573,0.33569848172737693
1539131339432025,-0.45777065690094787,1.739528496223329,0.2746623941404778
1539131339448011,0.09155413138023505,1.6174563210497581,0.213626306553806
1539131339463997,1.0070954451819034,1.6174563210497581,0.213626306553806
1539131339479984,0.9460593575952316,1.1902037079423735,-0.03051804379333589
1539131339495970,1.0681315327688026,0.7629510948347615,-0.213626306553806
1539131339511957,1.5564202334630863,0.5798428320745188,-0.2746623941404778
1539131339527943,2.166781109330941,0.5188067444876197,-0.45777065690094787
1539131339543930,1.1902037079423735,0.5188067444876197,-0.5798428320745188
1539131339559916,-0.2746623941404778,0.5798428320745188,-0.6408789196611906
1539131339575903,0.213626306553806,0.6408789196611906,-0.5188067444876197
1539131339591889,1.2512397955290453,0.6408789196611906,-0.5188067444876197
1539131339607757,0.7629510948347615,0.7629510948347615,-0.6408789196611906
1539131339623743,-0.3967345693140487,0.8239871824216607,-1.0070954451819034
1539131339639729,-1.1902037079423735,0.8850232700083325,-1.2512397955290453
1539131339655715,-0.5188067444876197,1.0681315327688026,-1.1291676203554744
1539131339671701,1.1902037079423735,1.1902037079423735,-0.8850232700083325
1539131339687687,2.105745021744042,1.2512397955290453,-0.7629510948347615
1539131339703673,1.983672846570471,1.3733119707026162,-0.8239871824216607
1539131339719659,1.3733119707026162,1.1902037079423735,-0.9460593575952316
1539131339735645,0.7019150072480898,1.0070954451819034,-0.8850232700083325
1539131339751631,1.0681315327688026,0.7019150072480898,-0.7019150072480898
1539131339767617,0.8239871824216607,0.33569848172737693,-0.8850232700083325
1539131339783603,0.33569848172737693,0.09155413138023505,-1.1291676203554744
1539131339799589,-0.5188067444876197,0.09155413138023505,-1.2512397955290453
1539131339815575,-0.2746623941404778,0.3967345693140487,-1.0070954451819034
1539131339831561,0.8850232700083325,0.8239871824216607,-0.8239871824216607
1539131339847547,1.4343480582895154,1.4953841458761872,-0.7019150072480898
1539131339863533,1.1291676203554744,1.8005645838102282,-0.7019150072480898
1539131339879519,0.03051804379333589,1.983672846570471,-0.8239871824216607
1539131339895505,-0.5188067444876197,1.983672846570471,-0.8239871824216607
1539131339911491,-0.09155413138023505,1.739528496223329,-0.6408789196611906
1539131339927398,1.4343480582895154,1.1291676203554744,-0.33569848172737693
1539131339943384,1.8616006713969,0.5188067444876197,-0.2746623941404778
1539131339959369,1.1902037079423735,0.03051804379333589,-0.3967345693140487
1539131339975355,0.2746623941404778,-0.3967345693140487,-0.33569848172737693
1539131339991340,1.1902037079423735,-0.3967345693140487,-0.15259021896690683
1539131340007326,2.5940337224383256,-0.2746623941404778,-0.09155413138023505
1539131340023311,2.7771419851987957,-0.03051804379333589,-0.09155413138023505
1539131340039297,1.739528496223329,0.7019150072480898,-0.09155413138023505
1539131340055282,0.45777065690094787,1.2512397955290453,0.03051804379333589
1539131340071268,0.15259021896690683,1.8616006713969,0.2746623941404778
1539131340087253,0.8239871824216607,1.9226367589837992,0.6408789196611906
1539131340103239,0.8850232700083325,1.5564202334630863,0.8850232700083325
1539131340119224,0.03051804379333589,0.8239871824216607,0.7629510948347615
1539131340135210,-0.8850232700083325,0.2746623941404778,0.5188067444876197
1539131340151195,-0.33569848172737693,-0.09155413138023505,0.33569848172737693
1539131340167181,0.9460593575952316,-0.213626306553806,0.213626306553806
1539131340183166,1.8616006713969,-0.15259021896690683,0.33569848172737693
1539131340199152,1.8616006713969,-0.2746623941404778,0.5188067444876197
1539131340215137,1.2512397955290453,-0.33569848172737693,0.7629510948347615
1539131340231123,0.7019150072480898,-0.15259021896690683,0.9460593575952316
1539131340247009,0.5188067444876197,0.09155413138023505,1.0070954451819034
1539131340262994,-0.09155413138023505,0.2746623941404778,0.9460593575952316
1539131340278980,0.2746623941404778,0.5188067444876197,0.8239871824216607
1539131340294965,1.1902037079423735,0.6408789196611906,0.7629510948347615
1539131340310951,1.3122758831159445,0.8850232700083325,0.5798428320745188
1539131340326936,0.5798428320745188,1.0070954451819034,0.2746623941404778
1539131340342922,-0.2746623941404778,1.0681315327688026,-0.03051804379333589
1539131340358907,-0.03051804379333589,1.1902037079423735,-0.213626306553806
1539131340374893,0.5798428320745188,1.3122758831159445,-0.3967345693140487
1539131340390878,0.5188067444876197,1.3733119707026162,-0.5188067444876197
1539131340406864,0.213626306553806,1.2512397955290453,-0.6408789196611906
1539131340422849,0.2746623941404778,1.2512397955290453,-0.8850232700083325
1539131340438835,0.45777065690094787,1.0681315327688026,-1.2512397955290453
1539131340454820,-0.09155413138023505,0.9460593575952316,-1.6174563210497581
1539131340470806,-0.8850232700083325,1.0070954451819034,-1.9226367589837992
1539131340486791,-1.4343480582895154,1.2512397955290453,-1.8616006713969
1539131340502777,-0.2746623941404778,1.5564202334630863,-1.4343480582895154
1539131340518762,2.9602502479590385,1.9226367589837992,-1.0681315327688026
1539131340534748,5.096513313496644,2.410925459678083,-0.7629510948347615
1539131340550733,3.7537193865873633,2.5940337224383256,-0.8850232700083325
1539131340566619,1.1291676203554744,2.4719615472647547,-1.3122758831159445
1539131340582605,-1.0681315327688026,1.9226367589837992,-1.6174563210497581
1539131340598590,-1.8616006713969,1.1291676203554744,-1.4343480582895154
1539131340614575,-1.6784924086366573,0.33569848172737693,-1.1291676203554744
1539131340630560,-1.3733119707026162,-0.5188067444876197,-0.6408789196611906
1539131340646545,-0.7629510948347615,-0.6408789196611906,-0.15259021896690683
1539131340662530,-0.15259021896690683,-0.2746623941404778,0.213626306553806
1539131340678515,0.5188067444876197,-0.09155413138023505,0.5798428320745188
1539131340694500,0.8850232700083325,-0.213626306553806,0.7629510948347615
1539131340710485,0.8239871824216607,-0.3967345693140487,0.7629510948347615
1539131340726470,0.15259021896690683,-0.2746623941404778,0.8850232700083325
1539131340742455,0.3967345693140487,-0.213626306553806,1.1291676203554744
1539131340758440,2.410925459678083,-0.03051804379333589,1.4343480582895154
1539131340774425,4.364080262455218,0.3967345693140487,1.3733119707026162
1539131340790410,3.6316472114137923,1.0070954451819034,0.9460593575952316
1539131340806395,0.45777065690094787,1.3122758831159445,0.5798428320745188
1539131340822380,-1.3122758831159445,1.4953841458761872,0.33569848172737693
1539131340838365,0.09155413138023505,1.739528496223329,0.3967345693140487
1539131340854350,2.04470893415737,1.5564202334630863,0.5188067444876197
1539131340870335,3.0823224231326094,1.0070954451819034,0.33569848172737693
1539131340886230,2.3498893720911838,0.2746623941404778,-0.33569848172737693
1539131340902215,0.2746623941404778,-0.2746623941404778,-1.2512397955290453
1539131340918199,-0.8239871824216607,-0.33569848172737693,-1.6784924086366573
1539131340934184,-0.03051804379333589,-0.15259021896690683,-1.6784924086366573
1539131340950168,1.4343480582895154,0.2746623941404778,-1.2512397955290453
1539131340966153,2.227817196917613,0.5188067444876197,-0.5188067444876197
1539131340982137,1.4953841458761872,0.6408789196611906,-0.15259021896690683
1539131340998122,0.213626306553806,0.8239871824216607,-0.15259021896690683
1539131341014106,0.03051804379333589,0.8850232700083325,-0.15259021896690683
1539131341030091,0.2746623941404778,0.5798428320745188,-0.3967345693140487
1539131341046075,0.2746623941404778,0.213626306553806,-0.7629510948347615
1539131341062060,0.5798428320745188,-0.15259021896690683,-1.1902037079423735
1539131341078045,1.9226367589837992,-0.6408789196611906,-1.3122758831159445
1539131341094029,3.1433585107195086,-0.7019150072480898,-1.4343480582895154
1539131341110014,2.7771419851987957,-0.7629510948347615,-1.5564202334630863
1539131341125998,1.3122758831159445,-0.5798428320745188,-1.739528496223329
1539131341141983,-0.2746623941404778,-0.15259021896690683,-1.739528496223329
1539131341157967,-1.1902037079423735,0.2746623941404778,-1.5564202334630863
1539131341173952,-1.3122758831159445,0.5798428320745188,-1.0681315327688026
1539131341189936,-1.0681315327688026,0.9460593575952316,-0.8239871824216607
1539131341205871,-0.7629510948347615,1.1902037079423735,-0.5798428320745188
1539131341221855,-0.3967345693140487,1.3733119707026162,-0.213626306553806
1539131341237839,0.3967345693140487,1.3122758831159445,0.213626306553806
1539131341253823,1.4953841458761872,1.1902037079423735,0.5188067444876197
1539131341269807,2.410925459678083,0.8850232700083325,0.5188067444876197
1539131341285791,2.410925459678083,0.2746623941404778,0.45777065690094787
1539131341301776,0.8239871824216607,-0.45777065690094787,0.2746623941404778
1539131341317760,-0.9460593575952316,-1.0070954451819034,0.15259021896690683
1539131341333744,-0.5798428320745188,-1.2512397955290453,0.2746623941404778
1539131341349728,0.7629510948347615,-1.1902037079423735,0.45777065690094787
1539131341365712,0.7629510948347615,-0.8850232700083325,0.5798428320745188
1539131341381696,0.33569848172737693,-0.33569848172737693,0.8239871824216607
1539131341397680,0.2746623941404778,0.3967345693140487,1.0681315327688026
1539131341413664,0.09155413138023505,1.0070954451819034,1.2512397955290453
1539131341429648,-0.7629510948347615,1.4343480582895154,1.3733119707026162
1539131341445632,-2.4719615472647547,1.5564202334630863,1.3122758831159445
1539131341461616,-3.997863736934505,1.3122758831159445,1.0681315327688026
1539131341477600,-4.974441138323073,0.8239871824216607,0.8850232700083325
1539131341493584,-4.791332875562603,0.5188067444876197,0.9460593575952316
1539131341509568,-4.730296787975931,0.213626306553806,1.1291676203554744
1539131341525482,-2.655069810025225,0.15259021896690683,1.1291676203554744
1539131341541466,-1.2512397955290453,0.45777065690094787,1.0070954451819034
1539131341557450,-0.7019150072480898,0.7629510948347615,0.5188067444876197
1539131341573434,-0.9460593575952316,1.0681315327688026,0.03051804379333589
1539131341589418,-1.2512397955290453,1.3733119707026162,-0.213626306553806
1539131341605402,-1.6174563210497581,1.4343480582895154,-0.33569848172737693
1539131341621386,-1.739528496223329,1.3733119707026162,-0.3967345693140487
1539131341637370,-1.4343480582895154,1.2512397955290453,-0.45777065690094787
1539131341653354,-0.5798428320745188,1.3733119707026162,-0.2746623941404778
1539131341669338,0.9460593575952316,1.5564202334630863,-0.15259021896690683
1539131341685322,1.6174563210497581,1.6784924086366573,-0.09155413138023505
1539131341701306,1.6174563210497581,1.8005645838102282,-0.213626306553806
1539131341717291,1.5564202334630863,1.6174563210497581,-0.3967345693140487
1539131341733275,1.3733119707026162,1.3122758831159445,-0.5188067444876197
1539131341749259,0.5188067444876197,1.0681315327688026,-0.7019150072480898
1539131341765243,-0.213626306553806,1.2512397955290453,-1.1291676203554744
1539131341781227,-0.15259021896690683,1.3733119707026162,-1.3733119707026162
1539131341797211,0.33569848172737693,1.8005645838102282,-1.6784924086366573
1539131341813195,0.3967345693140487,2.166781109330941,-1.8616006713969
1539131341829179,-0.8239871824216607,2.166781109330941,-1.9226367589837992
1539131341845092,-3.0823224231326094,1.8616006713969,-1.8616006713969
1539131341861076,-4.974441138323073,1.2512397955290453,-1.5564202334630863
1539131341877060,-5.706874189364498,0.7629510948347615,-1.2512397955290453
1539131341893043,-6.256198977645454,0.15259021896690683,-0.7629510948347615
1539131341909027,-6.134126802471883,-0.3967345693140487,-0.15259021896690683
1539131341925010,-4.242008087281647,-0.7629510948347615,0.3967345693140487
1539131341940994,1.8616006713969,-1.6174563210497581,0.8850232700083325
1539131341956977,12.726024261844714,-1.8616006713969,1.983672846570471
1539131341972961,29.694056610971074,-1.0070954451819034,3.7537193865873633
1539131341988945,53.19295033188337,-0.3967345693140487,6.805523765926637
1539131342004928,75.10490577553992,-0.03051804379333589,10.528725108720437
1539131342020912,84.93171587701227,0.09155413138023505,13.092240787365427
1539131342036895,80.53711757076371,-0.45777065690094787,14.312962539101136
1539131342052879,62.10421911955427,-2.655069810025225,14.190890363927565
1539131342068863,36.346990157930804,-4.60822461280236,12.4208438239109
1539131342084846,14.557106889448278,-6.378271152819025,9.979400320439481
1539131342100830,1.0681315327688026,-7.354848554207592,8.697642481116873
1539131342116813,2.410925459678083,-7.660028992141633,8.392462043183059
1539131342132797,14.251926451514464,-7.904173342488775,8.697642481116873
1539131342148780,26.58121614404513,-8.148317692835917,9.002822919050914
1539131342164703,32.62378881513678,-7.904173342488775,9.063859006637585
1539131342180687,30.30441748683893,-7.965209430075447,8.33142595559616
1539131342196670,27.679865720607268,-8.392462043183059,7.11070420386045
1539131342212654,25.42153047989609,-9.491111619745197,5.096513313496644
1539131342228637,25.48256656748299,-11.07804989700162,3.6316472114137923
1539131342244621,25.36049439230942,-12.970168612191856,3.2654306858930795
1539131342260604,21.69832913710229,-14.557106889448278,3.875791561760934
1539131342276588,10.833905546654478,-16.754406042572555,4.058899824521177
1539131342292572,-8.758678568703772,-19.1348134584573,2.5940337224383256
1539131342308555,-33.60036621652557,-21.881437399862534,0.2746623941404778
1539131342324539,-57.83169298847952,-24.200808728160382,-1.6174563210497581
1539131342340522,-70.22201876859685,-24.567025253681095,-3.1433585107195086
1539131342356506,-72.17517357137399,-23.95666437781324,-4.303044174868319
1539131342372490,-71.07652399481185,-22.308690012970146,-5.828946364538069
1539131342388473,-70.40512703135732,-21.14900434882111,-7.843137254901876
1539131342404457,-59.90691996643022,-20.35553521019301,-9.063859006637585
1539131342420440,-41.22987716487387,-19.439993896391115,-8.51453421835663
1539131342436424,-18.58548867017612,-18.89066910811016,-6.9886320286868795
1539131342452407,-1.983672846570471,-18.463416495002548,-6.195162890058782
1539131342468391,-0.5188067444876197,-18.95170519569683,-6.439307240405924
1539131342484314,-5.2185854886702145,-19.256885633630873,-7.476920729381163
1539131342500297,-9.002822919050914,-19.684138246738257,-8.819714656290444
1539131342516280,-6.439307240405924,-18.95170519569683,-9.063859006637585
1539131342532263,7.965209430075447,-16.32715342946517,-6.622415503166167
1539131342548246,25.970855268177274,-12.970168612191856,-3.936827649347606
1539131342564229,32.440680552376534,-10.772869459067579,-3.1433585107195086
1539131342580212,26.947432669565842,-9.185931181811156,-3.1433585107195086
1539131342596195,16.754406042572555,-6.622415503166167,-2.655069810025225
1539131342612178,6.256198977645454,-3.814755474174035,-1.1291676203554744
1539131342628162,1.3733119707026162,-1.1902037079423735,0.5188067444876197
1539131342644145,4.486152437628789,1.4343480582895154,2.3498893720911838
1539131342660128,10.772869459067579,3.0823224231326094,3.2043945983061803
1539131342676111,14.007782101167322,3.570611123826893,3.5095750362402214
1539131342692094,14.068818188753994,3.570611123826893,3.814755474174035
1539131342708077,6.8665598535133086,2.8992141603723667,2.532997634851654
1539131342724060,1.0681315327688026,2.105745021744042,1.4953841458761872
1539131342740043,-0.5798428320745188,1.3733119707026162,1.1291676203554744
1539131342756026,0.3967345693140487,1.3122758831159445,0.6408789196611906
1539131342772009,3.3264667734797513,1.3122758831159445,0.7019150072480898
1539131342787993,6.561379415579495,1.4343480582895154,0.8239871824216607
1539131342803955,8.758678568703772,1.6784924086366573,0.5188067444876197
1539131342819938,10.528725108720437,1.3733119707026162,0.2746623941404778
1539131342835921,11.444266422522333,0.9460593575952316,0.45777065690094787
1539131342851904,10.955977721828049,0.2746623941404778,0.6408789196611906
1539131342867887,12.115663385976859,-0.7629510948347615,0.8850232700083325
1539131342883870,13.397421225299468,-2.166781109330941,1.3122758831159445
1539131342899853,15.045395590142562,-4.058899824521177,1.6174563210497581
1539131342915836,12.970168612191856,-6.927595941100208,1.0681315327688026
1539131342931820,10.833905546654478,-12.481879911497572,-0.15259021896690683
1539131342947803,12.23773556115043,-18.402380407415876,-1.1902037079423735
1539131342963786,9.185931181811156,-22.064545662623004,-0.6408789196611906
1539131342979769,-22.003509575036105,-20.35553521019301,0.03051804379333589
1539131342995752,-93.04951552605462,-13.885709925993751,3.5095750362402214
1539131343011735,-99.70244907301458,10.772869459067579,7.782101167315204
1539131343027718,-76.93598840314326,45.74654764629577,10.833905546654478
1539131343043701,-72.72449835965517,84.26031891355797,13.092240787365427
1539131343059684,-51.30083161669336,127.47386892500208,18.70756084534969
1539131343075667,-35.06523231860842,161.16578927290766,27.069504844739413
1539131343091651,-35.370412756542464,182.8946364538033,35.49248493171581
1539131343107634,-34.69901579308771,191.86694132906086,44.64789806973363
1539131343123565,-38.23910887312127,192.2331578545818,50.873579003585746
1539131343139548,-29.571984435797503,187.10612649729137,52.64362554360241
1539131343155532,-18.89066910811016,176.30273899443046,50.56839856565193
1539131343171515,-12.23773556115043,160.8606088349734,45.5634393835353
1539131343187498,-12.848096437018285,140.7186999313344,43.30510414282435
1539131343203481,-0.45777065690094787,123.20134279392687,39.154650186922936
1539131343219464,1.1291676203554744,102.63218127718028,33.17311360341796
1539131343235447,16.1440451667047,81.26955062180514,26.031891355763946
1539131343251430,39.45983062485675,59.23552300297524,18.036163881895163
1539131343267413,48.73731593804814,36.65217059586462,8.880750743877343
1539131343283396,46.784161135271006,12.787060349431613,2.410925459678083
1539131343299379,24.07873655298681,-13.946746013580423,1.1291676203554744
1539131343315363,24.505989166094423,-42.38956282902268,0.2746623941404778
1539131343331346,43.36614023041102,-69.85580224307614,-2.166781109330941
1539131343347329,54.413672083619076,-93.11055161364152,-0.5798428320745188
1539131343363312,70.6492713817047,-112.82520790417334,5.889982452124741
1539131343379295,92.7443350881208,-139.74212252994585,15.350576028076603
1539131343395278,109.22407873655311,-184.78675516899375,19.9893186846723
1539131343411261,108.49164568551168,-250.09536888685443,18.036163881895163
1539131343427244,90.97428854810414,-332.06683451590743,9.796292057679011
1539131343443176,72.29724574654801,-425.08583199816894,-1.1902037079423735
1539131343459159,360.6317235065235,-275.791561760891,35.91973754482319
1539131343475141,536.2935835812923,27.496757457846797,88.65491721980652
1539131343491124,-260.2273594262608,-21.69832913710229,64.97291523613376
1539131343507106,-81.08644235904467,-56.61097123674381,9.308003356984727
1539131343523089,-101.47249561303124,-38.30014496070817,-10.223544670786623
1539131343539072,-252.10955977721824,-25.726710917830133,-26.276035706111088
1539131343555054,-136.07995727473872,14.251926451514464,-50.7515068284124
1539131343571037,-131.62432288090326,63.14183260852997,-51.85015640497454
1539131343587020,-115.02250705729762,114.35111009384309,-40.619516289006015
1539131343603002,-117.6470588235295,140.16937514305346,-29.08369573510322
1539131343618985,-115.14457923247119,141.75631342030965,-21.210040436408008
1539131343634967,-100.06866559853529,124.60517280842305,-15.594720378423744
1539131343650950,-80.65918974593728,98.23758297093173,-13.702601663233281
1539131343666933,-53.74227512016478,67.41435873960518,-14.862287327382319
1539131343682915,-23.529411764705856,34.88212405584795,-17.60891126878755
1539131343698898,-3.3875028610666504,7.2938124666209205,-18.646524757763018
1539131343714881,1.2512397955290453,-10.223544670786623,-17.42580300602731
1539131343730863,0.9460593575952316,-22.064545662623004,-17.181658655680167
1539131343746846,2.8381780727854675,-31.280994888227724,-15.960936903944457
1539131343762786,10.223544670786623,-34.332799267567,-12.787060349431613
1539131343778769,15.716792553597315,-32.806897077897474,-7.782101167315204
1539131343794752,16.571297779812312,-27.313649195086555,-3.0212863355459376
1539131343810734,14.251926451514464,-22.125581750209676,0.8239871824216607
1539131343826717,10.589761196307336,-20.05035477225897,5.0354772259097444
1539131343842700,6.927595941100208,-17.60891126878755,9.063859006637585
1539131343858682,8.392462043183059,-14.068818188753994,11.20012207217519
1539131343874665,9.002822919050914,-11.07804989700162,11.261158159761862
1539131343890648,6.805523765926637,-11.322194247348762,9.185931181811156
1539131343906630,8.45349813076973,-14.92332341496899,7.354848554207592
1539131343922613,10.772869459067579,-19.623102159151586,7.843137254901876
1539131343938595,9.73525597009234,-23.773556115052997,8.392462043183059
1539131343954578,13.153276874952326,-26.092927443350845,7.17174029144735
1539131343970561,14.862287327382319,-27.130540932326085,4.547188525215461
1539131343986543,15.533684290836845,-28.534370946822264,0.7629510948347615
1539131344002526,12.970168612191856,-29.999237048905115,-4.119935912108076
1539131344018509,12.970168612191856,-31.769283588922008,-9.613183794918768
1539131344034491,9.85732814526591,-32.99000534065772,-15.10643167772946
1539131344050474,4.60822461280236,-33.72243839169914,-18.76859693293659
1539131344066456,-3.814755474174035,-31.464103150988194,-18.158236057068734
1539131344082397,-3.3875028610666504,-24.689097428854666,-17.853055619134693
1539131344098379,-0.2746623941404778,-17.60891126878755,-18.036163881895163
1539131344114361,-1.9226367589837992,-12.176699473563758,-16.1440451667047
1539131344130344,2.04470893415737,-9.67421988250544,-12.542915999084471
1539131344146326,4.9134050507361735,-9.185931181811156,-7.965209430075447
1539131344162308,3.2043945983061803,-8.697642481116873,-5.2185854886702145
1539131344178290,7.4158846417944915,-8.819714656290444,-3.6316472114137923
1539131344194272,8.209353780422589,-8.697642481116873,-1.9226367589837992
1539131344210254,9.491111619745197,-6.683451590753066,0.03051804379333589
1539131344226236,8.819714656290444,3.570611123826893,1.3122758831159445
1539131344242219,8.941786831464015,15.899900816357558,2.288853284504512
1539131344258201,9.979400320439481,16.26611734187827,2.166781109330941
1539131344274183,3.814755474174035,7.049668116273779,0.3967345693140487
1539131344290165,0.8239871824216607,0.2746623941404778,-1.1291676203554744
1539131344306147,1.0070954451819034,1.3122758831159445,-0.8850232700083325
1539131344322129,4.60822461280236,4.486152437628789,-0.03051804379333589
1539131344338112,6.378271152819025,4.42511635004189,0.33569848172737693
1539131344354094,4.547188525215461,2.7771419851987957,0.15259021896690683
1539131344370076,1.9226367589837992,1.6784924086366573,0.03051804379333589
1539131344386058,-0.6408789196611906,1.8616006713969,0.2746623941404778
1539131344402008,-1.6784924086366573,3.1433585107195086,0.5798428320745188
1539131344417990,-0.09155413138023505,3.7537193865873633,0.45777065690094787
1539131344433972,5.157549401083315,4.669260700389032,0.213626306553806
1539131344449954,16.26611734187827,6.927595941100208,0.213626306553806
1539131344465936,29.022659647516548,8.880750743877343,1.4343480582895154
1539131344481918,38.0560006103608,11.01701380941472,2.410925459678083
1539131344497901,31.219958800640825,11.261158159761862,2.410925459678083
1539131344513883,14.98435950255589,9.246967269398056,0.9460593575952316
1539131344529865,-5.279621576256886,5.95101853971164,-1.5564202334630863
1539131344545847,-21.57625696192872,2.166781109330941,-3.814755474174035
1539131344561829,-26.7032883192187,-0.7019150072480898,-5.279621576256886
1539131344577811,-20.538643472953254,-1.8616006713969,-5.3406576638437855
1539131344593793,-11.322194247348762,-1.9226367589837992,-5.279621576256886
1539131344609776,-3.692683299000464,-1.8005645838102282,-5.584802014190927
1539131344625758,-2.7771419851987957,-1.6174563210497581,-6.805523765926637
1539131344641740,-5.523765926604028,-1.3122758831159445,-8.026245517662346
1539131344657722,-7.476920729381163,-1.1902037079423735,-8.697642481116873
1539131344673704,-6.317235065232353,-0.6408789196611906,-8.392462043183059
1539131344689686,-1.4953841458761872,0.15259021896690683,-7.2938124666209205
1539131344705669,4.058899824521177,1.0681315327688026,-5.584802014190927
1539131344721618,5.95101853971164,2.166781109330941,-3.936827649347606
1539131344737600,3.2043945983061803,2.5940337224383256,-3.1433585107195086
1539131344753583,-3.0212863355459376,2.410925459678083,-3.1433585107195086
1539131344769565,-8.148317692835917,2.04470893415737,-3.1433585107195086
1539131344785547,-10.467689021133765,1.4953841458761872,-3.1433585107195086
1539131344801529,-6.683451590753066,1.6784924086366573,-2.532997634851654
1539131344817511,1.6174563210497581,2.532997634851654,-1.1291676203554744
1539131344833493,9.613183794918768,3.997863736934505,0.45777065690094787
1539131344849475,12.787060349431613,5.523765926604028,0.8850232700083325
1539131344865458,9.185931181811156,6.683451590753066,0.09155413138023505
1539131344881440,2.105745021744042,7.17174029144735,-1.4953841458761872
1539131344897422,-0.8239871824216607,7.232776379034021,-3.2043945983061803
1539131344913404,1.8616006713969,7.660028992141633,-3.3264667734797513
1539131344929386,9.491111619745197,8.697642481116873,-2.532997634851654
1539131344945368,17.24269474326684,9.491111619745197,-1.8616006713969
1539131344961351,19.1348134584573,8.575570305943302,-1.739528496223329
1539131344977333,15.10643167772946,6.805523765926637,-2.4719615472647547
1539131344993315,8.51453421835663,5.0354772259097444,-2.8992141603723667
1539131345009297,3.4485389486533222,3.570611123826893,-3.3264667734797513
1539131345025279,0.9460593575952316,2.7161058976118966,-3.0823224231326094
1539131345041259,3.2043945983061803,4.058899824521177,-1.4953841458761872
1539131345057242,4.364080262455218,4.669260700389032,-0.7629510948347615
1539131345073224,-0.33569848172737693,4.058899824521177,-0.6408789196611906
1539131345089206,-5.462729839017356,3.0212863355459376,-0.8850232700083325
1539131345105188,-8.51453421835663,1.6174563210497581,-1.3733119707026162
1539131345121170,-6.683451590753066,0.9460593575952316,-1.5564202334630863
1539131345137152,1.2512397955290453,0.7019150072480898,-0.5798428320745188
1539131345153134,12.115663385976859,1.2512397955290453,1.0070954451819034
1539131345169117,19.195849546043974,2.3498893720911838,2.7771419851987957
1539131345185099,20.23346303501944,3.2043945983061803,3.936827649347606
1539131345201081,16.02197299153113,3.2654306858930795,4.242008087281647
1539131345217063,8.6366063935302,1.6784924086366573,4.180971999694748
1539131345233045,0.5188067444876197,-0.7629510948347615,4.119935912108076
1539131345249027,-6.195162890058782,-2.8992141603723667,4.180971999694748
1539131345265010,-10.101472495613052,-3.3875028610666504,4.242008087281647
1539131345280992,-11.20012207217519,-2.532997634851654,4.42511635004189
1539131345296974,-10.101472495613052,-1.983672846570471,4.547188525215461
1539131345312956,-11.01701380941472,-1.983672846570471,4.242008087281647
1539131345328938,-16.998550392919697,-2.9602502479590385,3.0823224231326094
1539131345344920,-29.20576791027679,-5.3406576638437855,0.5798428320745188
1539131345360870,-40.98573281452673,-6.622415503166167,-2.7771419851987957
1539131345376852,-41.779201953154825,-4.119935912108076,-3.3875028610666504
1539131345392834,-32.928969253071045,-2.288853284504512,-1.0070954451819034
1539131345408816,-17.54787518120088,-2.3498893720911838,0.5188067444876197
1539131345424799,-19.501029983978015,-4.364080262455218,0.3967345693140487
1539131345440781,-25.48256656748299,-5.523765926604028,-0.8850232700083325
1539131345456763,-35.85870145723675,-7.2938124666209205,-2.532997634851654
1539131345472745,-43.67132066834529,-8.6366063935302,-3.4485389486533222
1539131345488727,-40.1922636758984,-9.063859006637585,-3.2654306858930795
1539131345504709,-24.383916990920852,-8.51453421835663,-2.04470893415737
1539131345520691,-1.1902037079423735,-6.927595941100208,0.2746623941404778
1539131345536674,17.914091706721592,-4.852368963149502,2.410925459678083
1539131345552656,25.60463874265656,-3.6316472114137923,3.570611123826893
1539131345568638,22.67490653849086,-3.5095750362402214,3.3264667734797513
1539131345584620,14.862287327382319,-3.936827649347606,2.655069810025225
1539131345600602,7.4158846417944915,-4.547188525215461,1.9226367589837992
1539131345616584,1.1291676203554744,-4.9134050507361735,1.4343480582895154
1539131345632567,-2.7771419851987957,-5.462729839017356,0.5798428320745188
1539131345648549,-4.303044174868319,-5.584802014190927,-0.03051804379333589
1539131345664531,-7.598992904554734,-6.073090714885211,-1.4953841458761872
1539131345680481,-15.533684290836845,-7.2938124666209205,-3.7537193865873633
1539131345696462,-20.904859998473967,-7.721065079728305,-5.645838101777599
1539131345712444,-20.294499122606112,-6.805523765926637,-6.683451590753066
1539131345728426,-10.955977721828049,-5.645838101777599,-6.012054627298312
1539131345744407,2.5940337224383256,-4.547188525215461,-4.364080262455218
1539131345760389,12.23773556115043,-3.2654306858930795,-3.5095750362402214
1539131345776371,14.129854276340893,-2.3498893720911838,-3.2654306858930795
1539131345792352,11.932555123216616,-1.4953841458761872,-2.655069810025225
1539131345808334,7.049668116273779,-1.0070954451819034,-2.166781109330941
1539131345824316,2.3498893720911838,-0.5188067444876197,-2.105745021744042
1539131345840297,-1.0070954451819034,-0.33569848172737693,-1.983672846570471
1539131345856279,-2.410925459678083,-0.5798428320745188,-1.9226367589837992
1539131345872261,0.03051804379333589,-1.0681315327688026,-1.6174563210497581
1539131345888242,7.049668116273779,-1.0070954451819034,-0.7019150072480898
1539131345904224,18.76859693293659,0.2746623941404778,0.3967345693140487
1539131345920206,29.38887617303726,2.105745021744042,1.3733119707026162
1539131345936187,33.600366216525344,3.6316472114137923,1.739528496223329
1539131345952169,29.08369573510322,4.547188525215461,1.0070954451819034
1539131345968151,19.501029983978015,4.852368963149502,-0.15259021896690683
1539131345984132,11.810482948043045,5.462729839017356,-0.8850232700083325
1539131346000091,9.430075532158298,5.889982452124741,-0.9460593575952316
1539131346016073,8.6366063935302,5.889982452124741,-0.45777065690094787
1539131346032055,7.049668116273779,5.401693751430457,0.03051804379333589
1539131346048036,3.3264667734797513,4.058899824521177,0.3967345693140487
1539131346064018,0.213626306553806,2.8992141603723667,0.5798428320745188
1539131346080000,-0.2746623941404778,2.166781109330941,0.9460593575952316
1539131346095981,2.4719615472647547,1.6174563210497581,1.6784924086366573
1539131346111963,4.058899824521177,1.0681315327688026,2.3498893720911838
1539131346127945,3.0212863355459376,0.33569848172737693,2.288853284504512
1539131346143926,0.9460593575952316,-0.8239871824216607,1.983672846570471
1539131346159908,-1.3122758831159445,-1.9226367589837992,1.983672846570471
1539131346175890,-1.9226367589837992,-2.8381780727854675,2.410925459678083
1539131346191871,-2.166781109330941,-3.2043945983061803,3.2654306858930795
1539131346207853,-1.2512397955290453,-3.3264667734797513,4.42511635004189
1539131346223835,0.15259021896690683,-2.9602502479590385,5.3406576638437855
1539131346239816,1.3122758831159445,-2.4719615472647547,5.76791027695117
1539131346255798,0.7629510948347615,-1.983672846570471,5.889982452124741
1539131346271780,-0.5188067444876197,-1.739528496223329,5.828946364538069
1539131346287761,-1.3122758831159445,-1.1902037079423735,5.76791027695117
1539131346303743,0.5188067444876197,-0.45777065690094787,5.828946364538069
1539131346319671,2.9602502479590385,-0.03051804379333589,5.706874189364498
1539131346335653,4.852368963149502,0.45777065690094787,5.157549401083315
1539131346351635,4.303044174868319,0.45777065690094787,4.303044174868319
1539131346367616,1.0681315327688026,-0.03051804379333589,3.0823224231326094
1539131346383598,-3.3264667734797513,-0.5188067444876197,1.6784924086366573
1539131346399580,-6.439307240405924,-0.7629510948347615,-0.03051804379333589
1539131346415561,-7.598992904554734,-0.7629510948347615,-1.5564202334630863
1539131346431543,-7.17174029144735,-0.2746623941404778,-2.532997634851654
1539131346447525,-4.974441138323073,0.45777065690094787,-2.9602502479590385
1539131346463506,-2.04470893415737,1.0070954451819034,-3.2043945983061803
1539131346479488,-0.2746623941404778,1.0681315327688026,-3.1433585107195086
1539131346495470,-0.7629510948347615,0.6408789196611906,-3.570611123826893
1539131346511451,-2.5940337224383256,-0.15259021896690683,-3.997863736934505
1539131346527433,-3.4485389486533222,-0.3967345693140487,-4.486152437628789
1539131346543415,-2.655069810025225,-0.6408789196611906,-4.60822461280236
1539131346559396,-0.6408789196611906,-0.5798428320745188,-4.180971999694748
1539131346575378,2.3498893720911838,0.15259021896690683,-3.6316472114137923
1539131346591360,3.5095750362402214,0.7629510948347615,-3.3264667734797513
1539131346607341,2.532997634851654,0.8850232700083325,-3.0823224231326094
1539131346623323,-1.2512397955290453,0.33569848172737693,-2.9602502479590385
1539131346639282,-5.401693751430457,-0.33569848172737693,-2.9602502479590385
1539131346655263,-6.012054627298312,-0.3967345693140487,-2.9602502479590385
1539131346671244,-3.875791561760934,-0.5798428320745188,-2.8381780727854675
1539131346687225,-0.7629510948347615,-0.6408789196611906,-2.3498893720911838
1539131346703207,1.1902037079423735,-0.7019150072480898,-1.8616006713969
1539131346719188,1.9226367589837992,-0.3967345693140487,-1.6174563210497581
1539131346735169,1.8616006713969,-0.09155413138023505,-1.5564202334630863
1539131346751150,1.0070954451819034,0.5798428320745188,-1.6174563210497581
1539131346767131,-0.6408789196611906,1.1902037079423735,-1.6784924086366573
1539131346783113,-1.739528496223329,1.6784924086366573,-1.739528496223329
1539131346799094,-0.5798428320745188,2.166781109330941,-1.8005645838102282
1539131346815075,3.4485389486533222,3.0212863355459376,-1.4343480582895154
1539131346831056,8.45349813076973,4.180971999694748,-0.7629510948347615
1539131346847037,8.45349813076973,4.60822461280236,-0.3967345693140487
1539131346863019,4.364080262455218,4.547188525215461,-0.7629510948347615
1539131346879000,-0.3967345693140487,3.5095750362402214,-1.1902037079423735
1539131346894981,-3.2654306858930795,2.7161058976118966,-1.1902037079423735
1539131346910962,-3.3875028610666504,2.105745021744042,-0.9460593575952316
1539131346926943,-2.9602502479590385,1.4953841458761872,-0.5188067444876197
1539131346942925,-3.2654306858930795,0.7019150072480898,-0.213626306553806
1539131346958892,-3.4485389486533222,0.09155413138023505,0.2746623941404778
1539131346974874,-3.4485389486533222,-0.2746623941404778,0.9460593575952316
1539131346990855,-2.8992141603723667,-0.5188067444876197,1.3122758831159445
1539131347006836,-1.739528496223329,-0.45777065690094787,1.5564202334630863
1539131347022817,-0.9460593575952316,-0.03051804379333589,1.739528496223329
1539131347038798,-0.03051804379333589,0.3967345693140487,2.105745021744042
1539131347054780,-0.45777065690094787,0.8850232700083325,2.288853284504512
1539131347070761,-2.166781109330941,1.1291676203554744,1.983672846570471
1539131347086742,-2.5940337224383256,1.1902037079423735,1.4343480582895154
1539131347102723,-2.410925459678083,1.1902037079423735,0.9460593575952316
1539131347118704,-1.3122758831159445,1.1902037079423735,0.5188067444876197
1539131347134686,-0.09155413138023505,1.3122758831159445,0.15259021896690683
1539131347150667,0.8850232700083325,1.2512397955290453,-0.03051804379333589
1539131347166648,0.5188067444876197,0.8239871824216607,-0.45777065690094787
1539131347182629,-2.105745021744042,0.09155413138023505,-1.3122758831159445
1539131347198610,-4.180971999694748,-0.5798428320745188,-1.9226367589837992
1539131347214592,-3.2654306858930795,-1.1291676203554744,-2.04470893415737
1539131347230573,-0.7629510948347615,-1.3733119707026162,-1.8005645838102282
1539131347246554,1.4343480582895154,-1.5564202334630863,-1.4953841458761872
1539131347262535,1.1291676203554744,-1.5564202334630863,-1.2512397955290453
1539131347278534,-1.739528496223329,-1.3122758831159445,-1.0070954451819034
1539131347294515,-3.692683299000464,-1.0070954451819034,-0.33569848172737693
1539131347310496,-2.7771419851987957,-0.45777065690094787,0.6408789196611906
1539131347326477,-0.6408789196611906,0.2746623941404778,1.4953841458761872
1539131347342458,0.7019150072480898,0.5188067444876197,2.04470893415737
1539131347358440,-0.03051804379333589,0.5188067444876197,2.410925459678083
1539131347374421,-0.15259021896690683,0.7629510948347615,3.2043945983061803
1539131347390402,0.6408789196611906,1.0070954451819034,4.119935912108076
1539131347406383,1.9226367589837992,1.3122758831159445,4.60822461280236
1539131347422364,2.410925459678083,1.4953841458761872,4.303044174868319
1539131347438346,1.9226367589837992,1.6784924086366573,3.3264667734797513
1539131347454327,0.6408789196611906,1.3733119707026162,2.227817196917613
1539131347470308,-0.7629510948347615,1.1902037079423735,1.1291676203554744
1539131347486289,-0.9460593575952316,1.6784924086366573,-0.09155413138023505
1539131347502270,0.3967345693140487,2.5940337224383256,-1.0070954451819034
1539131347518252,0.7629510948347615,3.1433585107195086,-1.1291676203554744
1539131347534233,-0.3967345693140487,3.570611123826893,-1.0070954451819034
1539131347550214,-3.1433585107195086,3.692683299000464,-1.2512397955290453
1539131347566195,-5.523765926604028,3.692683299000464,-1.8616006713969
1539131347582176,-5.95101853971164,3.6316472114137923,-2.532997634851654
1539131347598144,-5.157549401083315,3.3875028610666504,-3.0212863355459376
1539131347614125,-2.288853284504512,3.0823224231326094,-3.2043945983061803
1539131347630107,2.105745021744042,2.655069810025225,-2.9602502479590385
1539131347646088,6.256198977645454,2.227817196917613,-2.3498893720911838
1539131347662069,8.880750743877343,1.9226367589837992,-1.739528496223329
1539131347678050,9.430075532158298,1.8005645838102282,-1.1902037079423735
1539131347694031,7.782101167315204,1.6784924086366573,-0.8239871824216607
1539131347710013,4.119935912108076,1.6174563210497581,-0.9460593575952316
1539131347725994,-0.5188067444876197,1.6784924086366573,-1.6174563210497581
1539131347741975,-4.180971999694748,1.739528496223329,-2.166781109330941
1539131347757956,-4.60822461280236,2.288853284504512,-2.166781109330941
1539131347773937,-2.9602502479590385,2.9602502479590385,-1.739528496223329
1539131347789919,-2.04470893415737,2.8992141603723667,-1.2512397955290453
1539131347805900,-1.9226367589837992,1.8005645838102282,-0.8239871824216607
1539131347821881,-3.2043945983061803,-0.03051804379333589,-0.5188067444876197
1539131347837862,-5.279621576256886,-2.105745021744042,-0.3967345693140487
1539131347853843,-7.4158846417944915,-4.058899824521177,-0.6408789196611906
1539131347869825,-7.354848554207592,-5.2185854886702145,-1.0681315327688026
1539131347885806,-5.2185854886702145,-5.096513313496644,-1.1902037079423735
1539131347901787,-2.7161058976118966,-4.364080262455218,-1.0070954451819034
1539131347917785,-0.6408789196611906,-3.570611123826893,-0.6408789196611906
1539131347933766,-1.1291676203554744,-2.655069810025225,-0.3967345693140487
1539131347949748,-3.692683299000464,-1.8005645838102282,-0.09155413138023505
1539131347965729,-6.561379415579495,-1.3122758831159445,0.15259021896690683
1539131347981710,-6.9886320286868795,-0.3967345693140487,0.213626306553806
1539131347997691,-4.669260700389032,0.7019150072480898,0.09155413138023505
1539131348013672,-1.8616006713969,1.4343480582895154,-0.213626306553806
1539131348029654,0.5798428320745188,1.8005645838102282,-0.5798428320745188
1539131348045635,2.166781109330941,2.3498893720911838,-0.9460593575952316
1539131348061616,3.936827649347606,3.1433585107195086,-1.5564202334630863
1539131348077597,5.462729839017356,4.180971999694748,-1.983672846570471
1539131348093578,5.889982452124741,5.0354772259097444,-2.3498893720911838
1539131348109560,4.242008087281647,5.95101853971164,-2.5940337224383256
1539131348125541,1.3733119707026162,6.378271152819025,-2.5940337224383256
1539131348141522,-0.213626306553806,6.439307240405924,-3.2043945983061803
1539131348157503,0.09155413138023505,6.195162890058782,-4.303044174868319
1539131348173484,0.8850232700083325,5.523765926604028,-5.76791027695117
1539131348189466,2.8381780727854675,4.669260700389032,-7.232776379034021
1539131348205447,5.645838101777599,3.4485389486533222,-8.575570305943302
1539131348221428,9.246967269398056,2.04470893415737,-9.796292057679011
1539131348237396,15.716792553597315,1.1902037079423735,-10.833905546654478
1539131348253377,22.67490653849086,1.0681315327688026,-11.07804989700162
1539131348269358,28.229190508888223,1.6174563210497581,-10.650797283894008
1539131348285339,31.097886625467254,2.655069810025225,-9.73525597009234
1539131348301321,28.473334859235365,3.6316472114137923,-8.392462043183059
1539131348317302,22.67490653849086,4.486152437628789,-6.927595941100208
1539131348333283,13.214312962538997,3.997863736934505,-5.3406576638437855
1539131348349264,-1.4343480582895154,3.1433585107195086,-3.570611123826893
1539131348365245,-16.754406042572555,1.9226367589837992,-1.983672846570471
1539131348381227,-28.351262684061794,0.8850232700083325,-0.8239871824216607
1539131348397208,-33.11207751583129,0.45777065690094787,-0.03051804379333589
1539131348413189,-31.342030975814623,1.0070954451819034,0.7629510948347615
1539131348429170,-26.82536049439227,1.9226367589837992,1.4953841458761872
1539131348445151,-23.468375677118956,2.4719615472647547,1.739528496223329
1539131348461133,-21.45418478675515,2.7771419851987957,1.6784924086366573
1539131348477114,-19.623102159151586,3.3875028610666504,1.3733119707026162
1539131348493095,-17.120622568093268,3.692683299000464,0.7629510948347615
1539131348509076,-15.899900816357558,3.2654306858930795,0.3967345693140487
1539131348525057,-16.44922560463874,2.655069810025225,0.2746623941404778
1539131348541039,-16.571297779812312,1.8005645838102282,0.3967345693140487
1539131348557006,-17.059586480506596,0.6408789196611906,0.7629510948347615
1539131348572988,-17.303730830853738,-0.213626306553806,1.0070954451819034
1539131348588969,-15.10643167772946,-0.5798428320745188,1.3733119707026162
1539131348604950,-9.73525597009234,-0.8239871824216607,1.8616006713969
1539131348620931,-3.2654306858930795,-0.7019150072480898,2.655069810025225
1539131348636912,2.655069810025225,-0.3967345693140487,3.570611123826893
1539131348652894,9.124895094224485,-0.09155413138023505,4.486152437628789
1539131348668875,19.745174334325156,0.15259021896690683,6.012054627298312
1539131348684856,34.88212405584795,1.0070954451819034,8.148317692835917
1539131348700837,47.57763027389933,2.4719615472647547,10.345616845960194
1539131348716818,46.723125047684334,3.3875028610666504,10.955977721828049
1539131348732800,30.182345311665358,2.7161058976118966,9.308003356984727
1539131348748781,6.9886320286868795,1.1902037079423735,6.927595941100208
1539131348764762,-11.810482948043045,-0.15259021896690683,4.9134050507361735
1539131348780743,-20.599679560540153,-0.8239871824216607,3.814755474174035
1539131348796724,-20.23346303501944,-0.7629510948347615,3.570611123826893
1539131348812706,-14.251926451514464,-0.213626306553806,3.4485389486533222
1539131348828687,-6.134126802471883,0.5798428320745188,3.2043945983061803
1539131348844668,-0.5188067444876197,0.9460593575952316,2.532997634851654
1539131348860649,0.8239871824216607,0.8850232700083325,1.5564202334630863
1539131348876617,0.09155413138023505,0.5798428320745188,0.6408789196611906
1539131348892598,-0.5798428320745188,0.45777065690094787,0.03051804379333589
1539131348908579,0.5188067444876197,0.7629510948347615,-0.03051804379333589
1539131348924561,0.8850232700083325,0.9460593575952316,-0.09155413138023505
1539131348940542,-2.227817196917613,0.8239871824216607,-0.3967345693140487
1539131348956523,-7.843137254901876,1.0070954451819034,-1.1291676203554744
1539131348972504,-11.810482948043045,1.2512397955290453,-1.9226367589837992
1539131348988485,-12.176699473563758,1.6784924086366573,-2.410925459678083
1539131349004467,-10.589761196307336,2.166781109330941,-2.655069810025225
1539131349020448,-7.4158846417944915,2.532997634851654,-2.7771419851987957
1539131349036429,-3.0823224231326094,2.410925459678083,-2.7161058976118966
1539131349052410,-0.09155413138023505,2.227817196917613,-2.7771419851987957
1539131349068391,0.5798428320745188,1.6174563210497581,-3.692683299000464
1539131349084373,1.4953841458761872,1.2512397955290453,-4.42511635004189
1539131349100354,3.4485389486533222,0.6408789196611906,-4.486152437628789
1539131349116335,5.645838101777599,0.9460593575952316,-4.242008087281647
1539131349132316,5.828946364538069,1.6784924086366573,-4.242008087281647
1539131349148297,3.875791561760934,2.4719615472647547,-4.669260700389032
1539131349164279,2.166781109330941,3.2654306858930795,-4.791332875562603
1539131349180260,2.288853284504512,3.814755474174035,-4.486152437628789
1539131349196228,3.570611123826893,4.119935912108076,-3.936827649347606
1539131349212209,3.936827649347606,4.058899824521177,-3.2043945983061803
1539131349228190,2.5940337224383256,3.692683299000464,-2.7771419851987957
1539131349244171,-1.0070954451819034,3.0212863355459376,-2.4719615472647547
1539131349260152,-4.60822461280236,2.288853284504512,-2.288853284504512
1539131349276134,-5.401693751430457,1.9226367589837992,-2.105745021744042
1539131349292115,-3.7537193865873633,1.9226367589837992,-1.983672846570471
1539131349308096,-1.9226367589837992,1.8616006713969,-1.6784924086366573
1539131349324077,-1.9226367589837992,1.1902037079423735,-0.8850232700083325
1539131349340058,-5.3406576638437855,0.7019150072480898,-0.2746623941404778
1539131349356040,-9.85732814526591,0.2746623941404778,-0.5188067444876197
1539131349372021,-13.64156557564661,0.09155413138023505,-1.0681315327688026
1539131349388002,-19.439993896391115,-0.03051804379333589,-2.105745021744042
1539131349403983,-30.54856183718607,-0.7629510948347615,-3.2654306858930795
1539131349419964,-46.84519722285813,-1.5564202334630863,-5.462729839017356
1539131349435946,-58.38101777676047,-1.8005645838102282,-7.598992904554734
1539131349451927,-58.07583733882666,-1.6174563210497581,-7.843137254901876
1539131349467908,-48.310063324940984,-0.5798428320745188,-6.500343327992596
1539131349483889,-32.25757228961629,0.2746623941404778,-3.936827649347606
1539131349499870,-15.533684290836845,0.8850232700083325,-1.4343480582895154
1539131349515838,-1.983672846570471,1.3122758831159445,-0.2746623941404778
1539131349531819,5.706874189364498,1.3122758831159445,0.2746623941404778
1539131349547801,8.697642481116873,1.1902037079423735,0.15259021896690683
1539131349563782,6.9886320286868795,0.7629510948347615,-0.5188067444876197
1539131349579763,2.9602502479590385,0.6408789196611906,-1.8005645838102282
1539131349595744,1.4343480582895154,0.8239871824216607,-2.9602502479590385
1539131349611725,4.119935912108076,1.0681315327688026,-3.4485389486533222
1539131349627707,8.209353780422589,1.6174563210497581,-3.2654306858930795
1539131349643688,9.796292057679011,2.105745021744042,-3.1433585107195086
1539131349659669,8.45349813076973,2.5940337224383256,-3.0212863355459376
1539131349675650,4.303044174868319,2.227817196917613,-3.1433585107195086
1539131349691631,0.15259021896690683,1.983672846570471,-3.2654306858930795
1539131349707613,-1.1291676203554744,2.288853284504512,-2.7771419851987957
1539131349723594,-4.60822461280236,4.242008087281647,-2.4719615472647547
1539131349739575,-15.289539940489703,6.256198977645454,-3.814755474174035
1539131349755556,-30.36545357442583,8.392462043183059,-6.439307240405924
1539131349771537,-47.089341573205274,6.8665598535133086,-10.040436408026153
1539131349787519,-57.34340428778523,4.180971999694748,-13.702601663233281
1539131349803500,-51.85015640497454,2.3498893720911838,-15.10643167772946
1539131349819481,-35.614557106889606,0.8850232700083325,-13.45845731288614
1539131349835449,-14.251926451514464,0.7019150072480898,-9.918364232852582
1539131349851430,7.4158846417944915,2.166781109330941,-6.073090714885211
1539131349867411,19.745174334325156,2.8381780727854675,-3.2043945983061803
1539131349883392,16.26611734187827,1.6174563210497581,-1.8616006713969
1539131349899374,3.692683299000464,0.15259021896690683,-1.4343480582895154
1539131349915355,-7.782101167315204,-0.15259021896690683,-1.3733119707026162
1539131349931336,-11.810482948043045,0.8850232700083325,-1.4343480582895154
1539131349947317,-11.139085984588291,1.3733119707026162,-1.3122758831159445
1539131349963298,-6.317235065232353,1.4953841458761872,-0.7019150072480898
1539131349979280,-0.03051804379333589,1.1291676203554744,0.213626306553806
1539131349995261,5.889982452124741,0.5798428320745188,0.9460593575952316
1539131350011242,11.07804989700162,-0.03051804379333589,1.5564202334630863
1539131350027223,14.98435950255589,-0.7629510948347615,2.288853284504512
1539131350043204,18.402380407415876,-1.3733119707026162,3.4485389486533222
1539131350059186,20.35553521019301,-1.8616006713969,4.547188525215461
1539131350075167,22.125581750209676,-1.4953841458761872,5.3406576638437855
1539131350091148,22.369726100556818,-0.7629510948347615,5.889982452124741
1539131350107129,19.623102159151586,-0.15259021896690683,5.645838101777599
1539131350123110,14.373998626688035,-0.03051804379333589,4.852368963149502
1539131350139092,10.284580758373295,-0.15259021896690683,4.42511635004189
1539131350155059,9.185931181811156,-0.5798428320745188,4.180971999694748
1539131350171040,10.589761196307336,-0.5188067444876197,3.692683299000464
1539131350187021,11.20012207217519,-0.213626306553806,2.8992141603723667
1539131350203002,9.73525597009234,-0.213626306553806,1.739528496223329
1539131350218982,7.721065079728305,-0.5798428320745188,0.7019150072480898
1539131350234963,6.439307240405924,-1.1902037079423735,0.15259021896690683
1539131350250944,7.782101167315204,-1.5564202334630863,0.15259021896690683
1539131350266924,9.73525597009234,-1.8005645838102282,0.5798428320745188
1539131350282905,9.85732814526591,-1.9226367589837992,1.0070954451819034
1539131350298886,7.476920729381163,-2.288853284504512,1.0681315327688026
1539131350314867,4.119935912108076,-2.4719615472647547,1.0681315327688026
1539131350330847,2.04470893415737,-2.4719615472647547,1.3733119707026162
1539131350346828,1.1902037079423735,-2.166781109330941,1.739528496223329
1539131350362809,2.8381780727854675,-1.4953841458761872,2.04470893415737
1539131350378790,5.3406576638437855,-0.8850232700083325,2.227817196917613
1539131350394770,7.2938124666209205,-0.09155413138023505,2.5940337224383256
1539131350410751,8.087281605249018,0.3967345693140487,2.8381780727854675
1539131350426732,6.439307240405924,0.2746623941404778,2.8992141603723667
1539131350442712,3.692683299000464,0.15259021896690683,2.4719615472647547
1539131350458693,0.213626306553806,-0.15259021896690683,1.9226367589837992
1539131350474670,-1.8616006713969,-0.3967345693140487,1.3122758831159445
1539131350490651,0.3967345693140487,-0.09155413138023505,0.7629510948347615
1539131350506631,5.462729839017356,0.7019150072480898,0.15259021896690683
1539131350522612,9.979400320439481,1.6784924086366573,-0.5188067444876197
1539131350538593,10.162508583199724,2.3498893720911838,-1.3122758831159445
1539131350554574,5.462729839017356,2.7771419851987957,-2.3498893720911838
1539131350570554,-1.0070954451819034,2.7771419851987957,-3.570611123826893
1539131350586535,-5.401693751430457,2.410925459678083,-4.42511635004189
1539131350602516,-3.5095750362402214,2.166781109330941,-4.547188525215461
1539131350618497,2.227817196917613,2.166781109330941,-4.119935912108076
1539131350634477,8.087281605249018,1.9226367589837992,-3.570611123826893
1539131350650458,10.528725108720437,1.1291676203554744,-2.8381780727854675
1539131350666439,7.537956816968062,0.09155413138023505,-2.410925459678083
1539131350682419,1.4953841458761872,-1.0070954451819034,-2.105745021744042
1539131350698400,-2.7161058976118966,-1.6784924086366573,-1.6174563210497581
1539131350714381,-2.9602502479590385,-1.6174563210497581,-0.9460593575952316
1539131350730362,0.45777065690094787,-1.0681315327688026,0.33569848172737693
1539131350746342,5.0354772259097444,0.03051804379333589,1.739528496223329
1539131350762323,7.049668116273779,1.0070954451819034,2.4719615472647547
1539131350778304,4.364080262455218,1.3122758831159445,2.3498893720911838
1539131350794281,0.09155413138023505,1.0681315327688026,1.8005645838102282
1539131350810261,-2.532997634851654,0.7019150072480898,1.3733119707026162
1539131350826242,-2.8381780727854675,0.5188067444876197,1.1291676203554744
1539131350842223,-1.9226367589837992,0.2746623941404778,0.8239871824216607
1539131350858204,-0.7019150072480898,0.03051804379333589,0.5798428320745188
1539131350874184,-0.6408789196611906,-0.6408789196611906,0.33569848172737693
1539131350890165,-0.9460593575952316,-1.0681315327688026,0.09155413138023505
1539131350906146,-0.9460593575952316,-1.0681315327688026,-0.2746623941404778
1539131350922126,-1.4343480582895154,-0.8239871824216607,-0.5188067444876197
1539131350938107,-0.7629510948347615,-0.3967345693140487,-0.09155413138023505
1539131350954088,2.105745021744042,0.213626306553806,0.7019150072480898
1539131350970069,3.570611123826893,0.5798428320745188,1.3733119707026162
1539131350986049,2.8381780727854675,0.45777065690094787,1.3733119707026162
1539131351002030,0.15259021896690683,0.09155413138023505,1.1291676203554744
1539131351018011,-1.9226367589837992,-0.15259021896690683,1.0070954451819034
1539131351033991,-1.4343480582895154,-0.45777065690094787,1.0681315327688026
1539131351049972,1.0681315327688026,-0.5798428320745188,1.4953841458761872
1539131351065953,3.2654306858930795,-1.0681315327688026,2.04470893415737
1539131351081934,3.570611123826893,-1.8005645838102282,2.227817196917613
1539131351097914,2.8381780727854675,-2.227817196917613,2.3498893720911838
1539131351113891,1.983672846570471,-2.227817196917613,2.410925459678083
1539131351129872,1.739528496223329,-2.166781109330941,2.7161058976118966
1539131351145853,2.7161058976118966,-1.8005645838102282,2.9602502479590385
1539131351161833,3.692683299000464,-1.0070954451819034,2.8381780727854675
1539131351177814,4.303044174868319,-0.5188067444876197,2.7771419851987957
1539131351193795,3.3875028610666504,-0.2746623941404778,2.9602502479590385
1539131351209776,2.105745021744042,-0.2746623941404778,2.8992141603723667
1539131351225756,0.8239871824216607,-0.213626306553806,2.8992141603723667
1539131351241737,-0.45777065690094787,-0.09155413138023505,3.0823224231326094
1539131351257718,-1.1291676203554744,-0.03051804379333589,3.0823224231326094
1539131351273698,-0.3967345693140487,0.213626306553806,2.8381780727854675
1539131351289679,0.7019150072480898,0.8850232700083325,2.655069810025225
1539131351305660,1.9226367589837992,1.4343480582895154,2.4719615472647547
1539131351321641,2.7161058976118966,1.4953841458761872,2.410925459678083
1539131351337621,3.2654306858930795,1.3733119707026162,2.227817196917613
1539131351353602,4.058899824521177,1.3733119707026162,1.8616006713969
1539131351369583,3.875791561760934,1.2512397955290453,1.3733119707026162
1539131351385563,2.3498893720911838,1.0681315327688026,0.7629510948347615
1539131351401544,-0.09155413138023505,0.8239871824216607,-0.03051804379333589
1539131351417525,-1.6784924086366573,0.7629510948347615,-0.7019150072480898
1539131351433502,-3.3875028610666504,0.8850232700083325,-1.0070954451819034
1539131351449483,-5.76791027695117,0.8850232700083325,-1.4343480582895154
1539131351465463,-7.660028992141633,0.9460593575952316,-2.410925459678083
1539131351481444,-7.660028992141633,1.1291676203554744,-3.4485389486533222
1539131351497425,-4.669260700389032,1.5564202334630863,-4.058899824521177
1539131351513405,1.4953841458761872,2.410925459678083,-4.60822461280236
1539131351529386,6.195162890058782,2.8992141603723667,-4.9134050507361735
1539131351545367,6.500343327992596,2.8381780727854675,-4.730296787975931
1539131351561348,3.3264667734797513,2.105745021744042,-4.547188525215461
1539131351577328,-1.4343480582895154,1.2512397955290453,-4.42511635004189
1539131351593309,-5.157549401083315,0.6408789196611906,-4.242008087281647
1539131351609290,-5.95101853971164,0.5188067444876197,-3.7537193865873633
1539131351625270,-2.8381780727854675,0.8239871824216607,-2.7161058976118966
1539131351641251,1.4343480582895154,1.1902037079423735,-1.3733119707026162
1539131351657232,3.4485389486533222,1.5564202334630863,-0.33569848172737693
1539131351673213,3.2043945983061803,1.6174563210497581,0.09155413138023505
1539131351689193,2.7161058976118966,1.1902037079423735,0.2746623941404778
1539131351705174,1.6174563210497581,0.8239871824216607,-0.15259021896690683
1539131351721155,0.213626306553806,0.33569848172737693,-1.0681315327688026
1539131351737136,-0.09155413138023505,-0.5188067444876197,-1.8616006713969
1539131351753143,1.4953841458761872,-1.1902037079423735,-2.3498893720911838
1539131351769124,3.570611123826893,-1.5564202334630863,-2.8992141603723667
1539131351785104,4.058899824521177,-1.9226367589837992,-3.7537193865873633
1539131351801085,3.2654306858930795,-1.8616006713969,-4.364080262455218
1539131351817066,3.0823224231326094,-1.0070954451819034,-4.364080262455218
1539131351833047,3.7537193865873633,0.33569848172737693,-3.875791561760934
1539131351849027,3.5095750362402214,2.04470893415737,-3.3264667734797513
1539131351865008,1.1291676203554744,3.936827649347606,-2.7161058976118966
1539131351880989,-2.288853284504512,5.401693751430457,-1.983672846570471
1539131351896969,-5.2185854886702145,6.500343327992596,-1.1291676203554744
1539131351912950,-7.17174029144735,7.232776379034021,-0.2746623941404778
1539131351928931,-9.246967269398056,7.049668116273779,0.03051804379333589
1539131351944912,-10.955977721828049,6.073090714885211,-0.45777065690094787
1539131351960892,-11.810482948043045,4.486152437628789,-1.6784924086366573
1539131351976873,-11.20012207217519,2.410925459678083,-3.1433585107195086
1539131351992854,-8.026245517662346,-0.213626306553806,-4.180971999694748
1539131352008834,-0.3967345693140487,-2.532997634851654,-4.486152437628789
1539131352024815,11.566338597695903,-3.3875028610666504,-3.997863736934505
1539131352040796,22.247653925383247,-2.9602502479590385,-3.0212863355459376
1539131352056777,25.543602655069662,-2.410925459678083,-2.288853284504512
1539131352072754,19.317921721217544,-2.166781109330941,-2.04470893415737
1539131352088734,6.805523765926637,-2.227817196917613,-2.4719615472647547
1539131352104715,-6.500343327992596,-2.288853284504512,-3.6316472114137923
1539131352120696,-15.289539940489703,-2.105745021744042,-5.279621576256886
1539131352136676,-16.388189517051842,-2.227817196917613,-5.76791027695117
1539131352152657,-10.040436408026153,-2.105745021744042,-4.852368963149502
1539131352168638,-2.4719615472647547,-1.1902037079423735,-3.692683299000464
1539131352184619,2.04470893415737,0.09155413138023505,-3.2043945983061803
1539131352200599,3.570611123826893,1.5564202334630863,-3.6316472114137923
1539131352216580,2.4719615472647547,2.5940337224383256,-4.42511635004189
1539131352232561,-0.213626306553806,3.814755474174035,-4.974441138323073
1539131352248541,-3.997863736934505,4.9134050507361735,-5.401693751430457
1539131352264522,-8.33142595559616,5.645838101777599,-5.706874189364498
1539131352280503,-11.322194247348762,6.073090714885211,-6.195162890058782
1539131352296484,-11.444266422522333,6.256198977645454,-6.561379415579495
1539131352312464,-7.660028992141633,5.889982452124741,-6.012054627298312
1539131352328445,-1.6174563210497581,4.852368963149502,-5.096513313496644
1539131352344426,2.532997634851654,3.692683299000464,-4.486152437628789
1539131352360407,2.7161058976118966,2.288853284504512,-4.180971999694748
1539131352376387,0.15259021896690683,0.6408789196611906,-4.180971999694748
1539131352392334,-2.3498893720911838,-0.9460593575952316,-4.058899824521177
1539131352408314,-1.983672846570471,-1.9226367589837992,-3.2043945983061803
1539131352424295,-0.03051804379333589,-2.4719615472647547,-1.983672846570471
1539131352440276,0.2746623941404778,-2.655069810025225,-0.8850232700083325
1539131352456256,-3.570611123826893,-2.4719615472647547,0.213626306553806
1539131352472237,-8.880750743877343,-1.1291676203554744,0.8850232700083325
1539131352488218,-7.721065079728305,1.4953841458761872,0.8239871824216607
1539131352504199,-1.9226367589837992,4.42511635004189,0.09155413138023505
1539131352520179,3.3264667734797513,7.17174029144735,-0.7629510948347615
1539131352536160,4.669260700389032,8.575570305943302,-1.4343480582895154
1539131352552141,1.3733119707026162,8.45349813076973,-1.4953841458761872
1539131352568122,-0.9460593575952316,7.843137254901876,-0.7629510948347615
1539131352584102,4.303044174868319,7.354848554207592,1.0070954451819034
1539131352600083,12.664988174258042,6.683451590753066,3.2654306858930795
1539131352616064,16.02197299153113,5.157549401083315,4.669260700389032
1539131352632044,10.284580758373295,2.166781109330941,4.669260700389032
1539131352648025,0.9460593575952316,-1.5564202334630863,4.303044174868319
1539131352664006,-3.2043945983061803,-4.058899824521177,4.547188525215461
1539131352679987,0.15259021896690683,-4.60822461280236,5.2185854886702145
1539131352695967,3.3264667734797513,-4.974441138323073,5.828946364538069
1539131352711944,3.875791561760934,-5.096513313496644,6.256198977645454
1539131352727925,1.9226367589837992,-4.547188525215461,7.11070420386045
1539131352743906,-2.288853284504512,-3.692683299000464,7.721065079728305
1539131352759886,-9.613183794918768,-3.4485389486533222,7.660028992141633
1539131352775867,-18.89066910811016,-3.936827649347606,7.2938124666209205
1539131352791848,-23.773556115052997,-4.180971999694748,7.660028992141633
1539131352807829,-22.064545662623004,-4.669260700389032,8.697642481116873
1539131352823809,-18.646524757763018,-5.584802014190927,9.73525597009234
1539131352839790,-18.58548867017612,-6.012054627298312,9.613183794918768
1539131352855771,-20.23346303501944,-5.76791027695117,9.185931181811156
1539131352871751,-19.80621042191183,-5.157549401083315,8.880750743877343
1539131352887732,-16.32715342946517,-4.364080262455218,8.148317692835917
1539131352903713,-8.6366063935302,-3.570611123826893,7.476920729381163
1539131352919694,1.1902037079423735,-2.5940337224383256,6.927595941100208
1539131352935674,11.261158159761862,-1.1291676203554744,6.378271152819025
1539131352951655,18.341344319828977,0.6408789196611906,5.95101853971164
1539131352967636,21.942473487449433,2.166781109330941,5.3406576638437855
1539131352983616,22.247653925383247,2.8992141603723667,4.60822461280236
1539131352999597,22.369726100556818,2.410925459678083,4.303044174868319
1539131353015578,22.980086976424673,1.5564202334630863,4.547188525215461
1539131353031555,24.567025253681095,0.9460593575952316,4.9134050507361735
1539131353047536,23.83459220263967,0.09155413138023505,5.2185854886702145
1539131353063516,20.965896086060866,-0.9460593575952316,4.852368963149502
1539131353079497,14.251926451514464,-0.7629510948347615,3.570611123826893
1539131353095478,8.758678568703772,-0.2746623941404778,2.227817196917613
1539131353111458,5.95101853971164,0.3967345693140487,1.3122758831159445
1539131353127439,8.026245517662346,1.8005645838102282,0.7019150072480898
1539131353143420,14.98435950255589,2.8381780727854675,0.7019150072480898
1539131353159401,23.346303501945386,3.0212863355459376,1.983672846570471
1539131353175381,29.449912260623933,3.0212863355459376,3.3264667734797513
1539131353191362,32.07446402685582,3.692683299000464,4.119935912108076
1539131353207343,31.89135576409535,4.058899824521177,4.547188525215461
1539131353223323,29.571984435797503,3.7537193865873633,4.791332875562603
1539131353239304,29.26680399786369,2.655069810025225,5.0354772259097444
1539131353255285,27.679865720607268,0.45777065690094787,5.157549401083315
1539131353271266,23.163195239185143,-1.3733119707026162,4.974441138323073
1539131353287246,11.749446860456146,-2.227817196917613,3.936827649347606
1539131353303227,-14.679179064621849,-4.791332875562603,1.0070954451819034
1539131353319208,-53.74227512016478,-10.589761196307336,-3.692683299000464
1539131353335188,-91.5236133363851,-16.26611734187827,-7.782101167315204
1539131353351165,-112.27588311589238,-19.01274128328373,-9.979400320439481
1539131353367146,-104.52429999237052,-17.36476691844041,-9.002822919050914
1539131353383127,-75.89837491416802,-11.749446860456146,-6.012054627298312
1539131353399108,-37.81185626001388,-4.303044174868319,-2.7771419851987957
1539131353415088,-8.33142595559616,1.0681315327688026,-0.15259021896690683
1539131353431069,-0.33569848172737693,3.2654306858930795,-0.15259021896690683
1539131353447050,-3.6316472114137923,3.7537193865873633,-1.2512397955290453
1539131353463030,-4.058899824521177,3.936827649347606,-1.0681315327688026
1539131353479011,3.936827649347606,3.936827649347606,0.45777065690094787
1539131353494992,12.176699473563758,2.655069810025225,2.3498893720911838
1539131353510973,14.618142977035177,2.04470893415737,3.570611123826893
1539131353526953,12.603952086671143,1.8005645838102282,4.058899824521177
1539131353542934,8.45349813076973,1.5564202334630863,3.692683299000464
1539131353558915,6.256198977645454,2.288853284504512,3.3875028610666504
1539131353574895,6.9886320286868795,3.3875028610666504,3.2654306858930795
1539131353590876,11.810482948043045,3.6316472114137923,3.5095750362402214
1539131353606857,15.716792553597315,2.655069810025225,3.814755474174035
1539131353622838,18.158236057068734,0.33569848172737693,3.814755474174035
1539131353638818,19.378957808804444,-1.0070954451819034,3.0212863355459376
1539131353654799,20.05035477225897,-2.410925459678083,3.0823224231326094
1539131353670807,21.27107652399468,-4.058899824521177,3.1433585107195086
1539131353686787,19.073777370870403,-5.95101853971164,2.3498893720911838
1539131353702768,16.754406042572555,-8.575570305943302,1.8005645838102282
1539131353718749,16.937514305333025,-11.20012207217519,0.8850232700083325
1539131353734729,15.777828641183987,-15.960936903944457,-0.5188067444876197
1539131353750710,4.974441138323073,-22.49179827573039,-3.6316472114137923
1539131353766691,-14.068818188753994,-32.19653620202962,-9.430075532158298
1539131353782672,-27.92401007095441,-39.94811932555126,-15.289539940489703
1539131353798652,-19.684138246738257,-40.00915541313816,-19.9893186846723
1539131353814633,-30.73167009994654,-27.313649195086555,-23.163195239185143
1539131353830614,-58.86930647745476,-3.3264667734797513,-18.646524757763018
1539131353846594,-66.25467307545591,29.938200961318216,-7.2938124666209205
1539131353862575,-54.65781643396667,69.18440527962184,5.462729839017356
1539131353878556,-32.928969253071045,113.74074921797501,20.35553521019301
1539131353894537,-34.21072709239343,156.2218661783777,45.86861982146934
1539131353910517,-35.187304493781994,190.58518348973848,74.12832837415135
1539131353926498,-18.402380407415876,212.61921110856792,94.5754177157246
1539131353942479,12.970168612191856,224.88746471351214,106.59952697032122
1539131353958459,40.497444113832216,228.7327382314793,110.26169222552835
1539131353974440,47.08934157320505,229.1599908445869,110.38376440070215
1539131353990417,31.64721141374821,221.77462424658597,106.53849088273455
1539131354006398,23.102159151598244,204.56244754711224,101.71663996337838
1539131354022379,29.08369573510322,183.26085297932377,96.28442816815459
1539131354038359,29.816128786144645,157.74776836804767,88.89906157015366
1539131354054340,32.99000534065749,127.10765239948114,77.91256580453228
1539131354070321,48.85938811322194,93.90402075226984,64.1794460975052
1539131354086301,62.28732738231474,60.15106431677714,51.667048142213844
1539131354102282,65.82742046234853,26.6422522316318,40.68055237659246
1539131354118263,88.10559243152511,-3.3264667734797513,29.877164873731545
1539131354134244,91.82879377431937,-30.243381399252257,21.087968261234437
1539131354150224,88.77698939497986,-52.76569771877621,14.007782101167322
1539131354166205,74.6776531624323,-71.44274052033256,9.85732814526591
1539131354182186,61.982146944380474,-85.60311284046679,6.561379415579495
1539131354198166,73.33485923552325,-98.66483558403911,4.730296787975931
1539131354214147,70.83237964446516,-112.15381094071881,3.3875028610666504
1539131354230128,37.1404592965589,-134.06576638437468,-0.3967345693140487
1539131354246109,-7.843137254901876,-174.8378728923476,-11.07804989700162
1539131354262089,-0.5798428320745188,-245.5786984054323,-29.877164873731545
1539131354278070,28.595407034408936,-340.1235980773631,-43.244068055237676
1539131354294051,59.96795605401667,-422.58335240711085,-48.00488288700694
1539131354310028,17.66994735637445,-466.9565880827038,-51.17875944151979
1539131354326008,239.3530174715802,-84.50446326390465,10.955977721828049
1539131354341989,-138.46036469062324,44.098573281452445,21.942473487449433
1539131354357970,-117.03669794766165,-10.467689021133765,-28.656443121995835
1539131354373951,-61.55489433127332,-23.89562829022657,-40.741588464179586
1539131354389931,-121.24818799114973,-14.618142977035177,-36.530098420691274
1539131354405912,-60.273136491950936,-15.10643167772946,-49.16456855115598
1539131354421893,-97.99343862058458,-5.3406576638437855,-47.150377660791946
1539131354437873,-72.23620965896089,43.61028458075816,-36.28595407034413
1539131354453854,-59.78484779125665,97.68825818265077,-13.397421225299468
1539131354469835,-44.403753719386714,128.02319371328304,6.378271152819025
1539131354485816,-28.16815442130155,132.05157549401065,14.862287327382319
1539131354501796,-13.885709925993751,123.56755931944781,18.280308232242305
1539131354517777,-0.3967345693140487,108.97993438620597,19.501029983978015
1539131354533758,2.9602502479590385,86.57969024185559,21.45418478675515
1539131354549739,9.55214770733187,60.82246128023189,21.51522087434182
1539131354565719,13.885709925993751,35.91973754482319,19.867246509498727
1539131354581700,14.98435950255589,11.749446860456146,16.26611734187827
1539131354597681,14.435034714274707,-9.185931181811156,11.20012207217519
1539131354613661,12.848096437018285,-22.980086976424673,6.500343327992596
1539131354629638,10.406652933546866,-31.342030975814623,2.288853284504512
1539131354645619,8.941786831464015,-36.04180971999699,-1.4953841458761872
1539131354661600,9.796292057679011,-37.50667582207984,-4.486152437628789
1539131354677580,9.063859006637585,-37.2625314717327,-4.669260700389032
1539131354693561,7.721065079728305,-33.5393301289389,-2.9602502479590385
1539131354709542,6.683451590753066,-29.449912260623933,-2.3498893720911838
1539131354725523,2.4719615472647547,-26.214999618524416,-4.119935912108076
1539131354741503,2.105745021744042,-23.89562829022657,-8.087281605249018
1539131354757484,-1.8005645838102282,-23.95666437781324,-11.566338597695903
1539131354773465,-1.8616006713969,-24.567025253681095,-12.726024261844714
1539131354789446,2.8381780727854675,-25.848783093003703,-11.566338597695903
1539131354805426,12.481879911497572,-31.525139238574866,-10.650797283894008
1539131354821407,13.824673838406852,-38.97154192416269,-11.688410772869474
1539131354837388,8.880750743877343,-40.558480201419115,-13.58052948805971
1539131354853368,3.2043945983061803,-35.98077363241032,-14.98435950255589
1539131354869349,-1.6174563210497581,-29.816128786144645,-16.876478217746126
1539131354885330,-5.706874189364498,-28.351262684061794,-19.01274128328373
1539131354901311,4.242008087281647,-31.403067063401295,-20.294499122606112
1539131354917291,7.4158846417944915,-33.23414969100486,-18.89066910811016
1539131354933272,5.0354772259097444,-28.412298771648693,-14.312962539101136
1539131354949249,0.7019150072480898,-21.69832913710229,-9.67421988250544
1539131354965230,5.3406576638437855,-18.036163881895163,-9.796292057679011
1539131354981210,2.4719615472647547,-16.937514305333025,-11.810482948043045
1539131354997191,4.180971999694748,-13.702601663233281,-11.505302510109004
1539131355013172,3.5095750362402214,-8.758678568703772,-8.026245517662346
1539131355029152,-2.410925459678083,-3.5095750362402214,-4.303044174868319
1539131355045133,-1.5564202334630863,1.0681315327688026,-1.6784924086366573
1539131355061114,7.11070420386045,3.0823224231326094,-1.0681315327688026
1539131355077095,12.909132524605184,3.4485389486533222,-1.9226367589837992
1539131355093075,5.279621576256886,4.364080262455218,-2.3498893720911838
1539131355109056,0.6408789196611906,4.791332875562603,-2.3498893720911838
1539131355125037,3.0823224231326094,1.9226367589837992,-3.3264667734797513
1539131355141018,5.462729839017356,-2.04470893415737,-3.997863736934505
1539131355156998,10.162508583199724,-3.5095750362402214,-3.570611123826893
1539131355172979,5.828946364538069,-1.8616006713969,-2.04470893415737
1539131355188960,3.875791561760934,0.8239871824216607,-0.213626306553806
1539131355204940,8.392462043183059,1.3122758831159445,1.0070954451819034
1539131355220921,15.10643167772946,-1.4953841458761872,1.0070954451819034
1539131355236902,21.51522087434182,-6.439307240405924,0.33569848172737693
1539131355252883,22.8580148012511,-0.7019150072480898,1.4953841458761872
1539131355268859,21.57625696192872,13.153276874952326,4.303044174868319
1539131355284840,35.85870145723652,16.1440451667047,6.378271152819025
1539131355300821,50.75150682841195,9.918364232852582,7.2938124666209205
1539131355316802,61.310749980926175,8.270389868009488,8.087281605249018
1539131355332782,59.662775616082854,9.85732814526591,8.758678568703772
1539131355348763,48.6152437628748,8.6366063935302,8.270389868009488
1539131355364744,30.243381399252257,6.378271152819025,7.2938124666209205
1539131355380725,9.002822919050914,4.486152437628789,5.76791027695117
1539131355396705,-4.242008087281647,3.936827649347606,4.547188525215461
1539131355412686,-9.369039444571627,5.95101853971164,3.570611123826893
1539131355428667,-12.603952086671143,10.345616845960194,1.4343480582895154
1539131355444647,-21.637293049515392,14.129854276340893,-1.9226367589837992
1539131355460628,-35.79766536964985,16.754406042572555,-6.561379415579495
1539131355476609,-52.277409018081926,17.303730830853738,-10.040436408026153
1539131355492590,-68.69611657892733,12.970168612191856,-10.955977721828049
1539131355508570,-67.902647440299,5.76791027695117,-9.246967269398056
1539131355524551,-49.28664072632955,-0.09155413138023505,-5.0354772259097444
1539131355540532,-17.54787518120088,-2.7161058976118966,0.9460593575952316
1539131355556512,15.167467765316132,-2.3498893720911838,5.828946364538069
1539131355572493,34.33279926756677,-2.227817196917613,8.209353780422589
1539131355588440,38.66636148622865,-3.5095750362402214,7.660028992141633
1539131355604420,34.33279926756677,-5.279621576256886,6.195162890058782
1539131355620401,27.61882963302037,-6.134126802471883,4.791332875562603
1539131355636382,22.67490653849086,-5.76791027695117,3.814755474174035
1539131355652362,19.378957808804444,-4.486152437628789,4.119935912108076
1539131355668343,19.562066071564686,-3.4485389486533222,5.523765926604028
1539131355684324,14.80125123979542,-3.1433585107195086,6.439307240405924
1539131355700305,5.157549401083315,-3.814755474174035,5.95101853971164
1539131355716285,-7.354848554207592,-5.462729839017356,4.119935912108076
1539131355732266,-19.195849546043974,-6.9886320286868795,1.3122758831159445
1539131355748247,-23.468375677118956,-8.087281605249018,-1.4343480582895154
1539131355764227,-19.745174334325156,-9.002822919050914,-3.3875028610666504
1539131355780208,-9.979400320439481,-9.85732814526591,-3.814755474174035
1539131355796189,2.04470893415737,-10.223544670786623,-3.6316472114137923
1539131355812170,10.040436408026153,-10.223544670786623,-3.875791561760934
1539131355828150,13.946746013580423,-10.162508583199724,-4.42511635004189
1539131355844131,12.481879911497572,-10.101472495613052,-5.279621576256886
1539131355860112,9.246967269398056,-9.67421988250544,-6.012054627298312
1539131355876093,5.889982452124741,-9.246967269398056,-6.256198977645454
1539131355892073,3.3875028610666504,-9.124895094224485,-5.584802014190927
1539131355908081,0.8239871824216607,-8.392462043183059,-4.547188525215461
1539131355924061,-3.2654306858930795,-6.744487678339738,-3.3875028610666504
1539131355940042,-6.805523765926637,-4.119935912108076,-2.04470893415737
1539131355956023,-8.697642481116873,-1.8616006713969,-0.45777065690094787
1539131355972004,-9.67421988250544,-0.3967345693140487,1.0681315327688026
1539131355987984,-10.162508583199724,0.3967345693140487,2.04470893415737
1539131356003965,-9.491111619745197,0.45777065690094787,2.7771419851987957
1539131356019946,-6.012054627298312,0.15259021896690683,3.4485389486533222
1539131356035926,-1.6174563210497581,0.33569848172737693,3.6316472114137923
1539131356051907,4.119935912108076,1.1291676203554744,2.8992141603723667
1539131356067888,7.476920729381163,1.8616006713969,1.3122758831159445
1539131356083869,8.392462043183059,2.7771419851987957,-0.6408789196611906
1539131356099849,6.9886320286868795,3.3875028610666504,-2.4719615472647547
1539131356115830,3.3264667734797513,3.4485389486533222,-4.242008087281647
1539131356131811,-1.6784924086366573,3.3875028610666504,-5.645838101777599
1539131356147791,-5.828946364538069,3.570611123826893,-7.049668116273779
1539131356163772,-9.002822919050914,3.5095750362402214,-7.782101167315204
1539131356179753,-13.092240787365427,3.3875028610666504,-7.904173342488775
1539131356195734,-16.510261692225413,2.7771419851987957,-7.721065079728305
1539131356211714,-20.35553521019301,1.6784924086366573,-7.537956816968062
1539131356227691,-21.087968261234437,0.6408789196611906,-6.622415503166167
1539131356243672,-17.36476691844041,-0.33569848172737693,-5.0354772259097444
1539131356259653,-10.711833371480907,-0.3967345693140487,-3.4485389486533222
1539131356275633,-3.875791561760934,-0.213626306553806,-2.04470893415737
1539131356291614,0.6408789196611906,-0.15259021896690683,-0.8239871824216607
1539131356307595,3.997863736934505,0.15259021896690683,0.33569848172737693
1539131356323576,6.805523765926637,0.213626306553806,1.4953841458761872
1539131356339556,7.660028992141633,0.03051804379333589,2.166781109330941
1539131356355537,7.4158846417944915,-0.5188067444876197,2.288853284504512
1539131356371518,6.439307240405924,-1.2512397955290453,2.105745021744042
1539131356387498,6.8665598535133086,-1.4343480582895154,1.6784924086366573
1539131356403479,8.270389868009488,-1.739528496223329,1.0681315327688026
1539131356419460,8.758678568703772,-2.3498893720911838,0.45777065690094787
1539131356435441,9.063859006637585,-3.3875028610666504,0.33569848172737693
1539131356451421,9.85732814526591,-4.730296787975931,0.9460593575952316
1539131356467402,11.566338597695903,-5.3406576638437855,2.105745021744042
1539131356483383,13.76363775082018,-5.157549401083315,3.1433585107195086
1539131356499364,13.702601663233281,-4.486152437628789,3.875791561760934
1539131356515344,9.73525597009234,-3.997863736934505,4.42511635004189
1539131356531325,1.4343480582895154,-3.814755474174035,4.852368963149502
1539131356547302,-6.012054627298312,-3.3264667734797513,4.730296787975931
1539131356563283,-10.955977721828049,-2.410925459678083,4.547188525215461
1539131356579263,-11.688410772869474,-0.8850232700083325,4.180971999694748
1539131356595244,-9.979400320439481,0.6408789196611906,3.875791561760934
1539131356611225,-5.828946364538069,2.532997634851654,3.570611123826893
1539131356627205,0.2746623941404778,4.42511635004189,2.9602502479590385
1539131356643186,5.279621576256886,5.706874189364498,2.655069810025225
1539131356659167,8.45349813076973,6.378271152819025,2.288853284504512
1539131356675148,8.6366063935302,6.622415503166167,1.0681315327688026
1539131356691128,7.17174029144735,6.500343327992596,-0.5798428320745188
1539131356707109,6.439307240405924,6.073090714885211,-1.983672846570471
1539131356723090,6.256198977645454,5.828946364538069,-3.1433585107195086
1539131356739071,5.401693751430457,5.523765926604028,-3.814755474174035
1539131356755051,3.1433585107195086,4.791332875562603,-4.119935912108076
1539131356771032,0.5798428320745188,3.814755474174035,-3.997863736934505
1539131356787013,-2.04470893415737,3.0212863355459376,-3.814755474174035
1539131356802993,-4.303044174868319,1.983672846570471,-3.5095750362402214
1539131356818974,-7.354848554207592,0.7629510948347615,-3.3264667734797513
1539131356834955,-10.772869459067579,-0.33569848172737693,-3.570611123826893
1539131356850936,-12.664988174258042,-0.9460593575952316,-3.4485389486533222
1539131356866912,-11.139085984588291,-1.1902037079423735,-2.227817196917613
1539131356882893,-7.476920729381163,-1.8616006713969,0.2746623941404778
1539131356898874,-6.134126802471883,-2.9602502479590385,3.2654306858930795
1539131356914855,-10.528725108720437,-4.547188525215461,5.279621576256886
1539131356930835,-18.58548867017612,-6.012054627298312,6.073090714885211
1539131356946816,-28.900587472342977,-6.9886320286868795,5.706874189364498
1539131356962797,-35.67559319447628,-6.8665598535133086,4.852368963149502
1539131356978778,-34.51590753032747,-5.2185854886702145,4.730296787975931
1539131356994758,-25.36049439230942,-2.9602502479590385,5.95101853971164
1539131357010739,-12.4208438239109,-0.5798428320745188,7.537956816968062
1539131357026720,-1.6174563210497581,1.1902037079423735,9.063859006637585
1539131357042700,3.3875028610666504,1.8616006713969,9.796292057679011
1539131357058681,0.15259021896690683,1.6784924086366573,8.941786831464015
1539131357074662,-8.33142595559616,0.7019150072480898,6.500343327992596
1539131357090643,-15.472648203250174,-0.6408789196611906,3.6316472114137923
1539131357106623,-16.388189517051842,-1.3122758831159445,1.0681315327688026
1539131357122604,-10.589761196307336,-0.5188067444876197,-0.8239871824216607
1539131357138585,-0.9460593575952316,0.9460593575952316,-1.4343480582895154
1539131357154565,7.232776379034021,2.7161058976118966,-1.6174563210497581
1539131357170546,9.796292057679011,4.364080262455218,-1.983672846570471
1539131357186523,5.462729839017356,5.096513313496644,-2.5940337224383256
1539131357202504,-0.7019150072480898,5.0354772259097444,-2.7771419851987957
1539131357218485,-4.974441138323073,4.791332875562603,-2.532997634851654
1539131357234465,-5.523765926604028,4.364080262455218,-2.166781109330941
1539131357250446,-4.547188525215461,4.242008087281647,-1.6784924086366573
1539131357266427,-3.1433585107195086,3.997863736934505,-0.9460593575952316
1539131357282407,-2.166781109330941,3.570611123826893,-0.5798428320745188
1539131357298388,0.45777065690094787,3.570611123826893,-0.3967345693140487
1539131357314369,3.875791561760934,3.875791561760934,-0.213626306553806
1539131357330350,5.523765926604028,4.119935912108076,-0.2746623941404778
1539131357346330,4.669260700389032,4.058899824521177,-0.3967345693140487
1539131357362311,2.410925459678083,3.814755474174035,-0.5798428320745188
1539131357378292,0.3967345693140487,3.2654306858930795,-0.8850232700083325
1539131357394272,-1.1291676203554744,2.105745021744042,-1.0681315327688026
1539131357410253,-3.1433585107195086,1.2512397955290453,-1.4953841458761872
1539131357426234,-4.730296787975931,0.7019150072480898,-1.9226367589837992
1539131357442215,-5.401693751430457,0.45777065690094787,-2.227817196917613
1539131357458195,-2.7161058976118966,0.33569848172737693,-2.4719615472647547
1539131357474176,1.0070954451819034,0.3967345693140487,-2.410925459678083
1539131357490157,2.105745021744042,0.5798428320745188,-2.227817196917613
1539131357506134,0.5798428320745188,0.3967345693140487,-2.227817196917613
1539131357522114,-0.09155413138023505,0.5188067444876197,-1.8616006713969
1539131357538095,0.8850232700083325,0.8239871824216607,-0.8850232700083325
1539131357554076,2.105745021744042,1.4343480582895154,0.5798428320745188
1539131357570057,1.9226367589837992,1.9226367589837992,1.9226367589837992
1539131357586037,-0.7629510948347615,1.8616006713969,2.9602502479590385
1539131357602018,-3.936827649347606,1.5564202334630863,3.814755474174035
1539131357617999,-6.500343327992596,0.7019150072480898,4.119935912108076
1539131357633979,-7.17174029144735,-0.09155413138023505,4.119935912108076
1539131357649960,-4.486152437628789,-0.7629510948347615,4.180971999694748
1539131357665941,0.213626306553806,-1.3122758831159445,4.119935912108076
1539131357681922,4.60822461280236,-1.4343480582895154,4.119935912108076
1539131357697902,6.927595941100208,-1.3733119707026162,3.7537193865873633
1539131357713883,5.523765926604028,-1.1902037079423735,3.0823224231326094
1539131357729864,1.983672846570471,-1.0070954451819034,2.5940337224383256
1539131357745844,-1.6174563210497581,-0.5798428320745188,2.5940337224383256
1539131357761825,-3.692683299000464,0.09155413138023505,2.8381780727854675
1539131357777806,-3.3875028610666504,0.8850232700083325,3.3264667734797513
1539131357793787,-1.739528496223329,1.5564202334630863,3.570611123826893
1539131357809767,-0.09155413138023505,2.227817196917613,3.5095750362402214
1539131357825775,0.8239871824216607,2.410925459678083,3.1433585107195086
1539131357841755,0.2746623941404778,2.410925459678083,2.532997634851654
1539131357857736,-0.03051804379333589,2.288853284504512,2.166781109330941
1539131357873717,0.7629510948347615,2.04470893415737,1.9226367589837992
1539131357889698,1.8005645838102282,1.739528496223329,1.9226367589837992
1539131357905678,2.9602502479590385,1.5564202334630863,2.04470893415737
1539131357921659,3.814755474174035,1.3733119707026162,2.5940337224383256
1539131357937640,3.6316472114137923,1.0681315327688026,3.3264667734797513
1539131357953621,3.6316472114137923,0.8850232700083325,3.692683299000464
1539131357969601,2.532997634851654,0.6408789196611906,3.7537193865873633
1539131357985582,-0.03051804379333589,0.5188067444876197,3.6316472114137923
1539131358001563,-1.6784924086366573,0.6408789196611906,3.5095750362402214
1539131358017543,-0.7019150072480898,1.0070954451819034,3.4485389486533222
1539131358033524,0.8239871824216607,1.1902037079423735,3.3264667734797513
1539131358049505,0.7629510948347615,0.6408789196611906,2.655069810025225
1539131358065486,-1.0070954451819034,-0.09155413138023505,1.6784924086366573
1539131358081466,-3.7537193865873633,-0.5798428320745188,0.09155413138023505
1539131358097447,-4.9134050507361735,-0.3967345693140487,-1.983672846570471
1539131358113428,-2.410925459678083,0.2746623941404778,-3.875791561760934
1539131358129408,1.4953841458761872,0.3967345693140487,-3.997863736934505
1539131358145385,2.5940337224383256,-0.03051804379333589,-1.8616006713969
1539131358161366,-0.2746623941404778,-0.8239871824216607,1.6174563210497581
1539131358177347,-2.8381780727854675,-2.04470893415737,5.0354772259097444
1539131358193328,-5.645838101777599,-3.0212863355459376,7.11070420386045
1539131358209308,-11.627374685282575,-3.0212863355459376,8.148317692835917
1539131358225289,-12.726024261844714,-1.3122758831159445,8.270389868009488
1539131358241270,-5.523765926604028,0.45777065690094787,7.537956816968062
1539131358257250,4.547188525215461,1.4343480582895154,6.317235065232353
1539131358273231,9.85732814526591,1.6784924086366573,4.60822461280236
1539131358289212,9.55214770733187,1.5564202334630863,2.532997634851654
1539131358305193,6.8665598535133086,0.9460593575952316,0.5798428320745188
1539131358321173,4.9134050507361735,0.5798428320745188,-1.0070954451819034
1539131358337154,5.0354772259097444,0.8239871824216607,-2.288853284504512
1539131358353135,5.584802014190927,1.1902037079423735,-3.4485389486533222
1539131358369115,4.242008087281647,0.5188067444876197,-4.242008087281647
1539131358385096,-0.03051804379333589,-1.0070954451819034,-4.730296787975931
1539131358401077,-7.354848554207592,-2.4719615472647547,-5.096513313496644
1539131358417058,-14.496070801861606,-3.0212863355459376,-5.157549401083315
1539131358433038,-12.909132524605184,-2.04470893415737,-5.462729839017356
1539131358449019,-3.814755474174035,-0.5188067444876197,-5.95101853971164
1539131358464965,5.645838101777599,1.1291676203554744,-6.195162890058782
1539131358480946,8.575570305943302,2.7161058976118966,-6.134126802471883
1539131358496927,5.0354772259097444,3.7537193865873633,-5.584802014190927
1539131358512908,0.2746623941404778,4.852368963149502,-4.852368963149502
1539131358528888,-1.2512397955290453,6.195162890058782,-3.875791561760934
1539131358544869,-0.7629510948347615,7.2938124666209205,-3.2043945983061803
1539131358560850,-0.9460593575952316,8.209353780422589,-3.2654306858930795
1539131358576830,-2.532997634851654,8.392462043183059,-3.6316472114137923
1539131358592811,-2.655069810025225,7.965209430075447,-3.875791561760934
1539131358608792,-0.15259021896690683,6.805523765926637,-3.936827649347606
1539131358624773,2.5940337224383256,5.157549401083315,-4.303044174868319
1539131358640753,3.3264667734797513,3.6316472114137923,-4.791332875562603
1539131358656734,2.04470893415737,2.532997634851654,-5.157549401083315
1539131358672715,-1.983672846570471,2.227817196917613,-5.889982452124741
1539131358688696,-9.369039444571627,0.45777065690094787,-6.927595941100208
1539131358704676,-15.899900816357558,-1.3733119707026162,-7.2938124666209205
1539131358720657,-16.571297779812312,-1.983672846570471,-5.279621576256886
1539131358736638,-12.115663385976859,-1.739528496223329,-1.6174563210497581
1539131358752618,-6.500343327992596,-1.4343480582895154,2.7161058976118966
1539131358768599,-3.6316472114137923,-1.0681315327688026,6.622415503166167
1539131358784576,-4.9134050507361735,-0.7019150072480898,9.308003356984727
1539131358800557,-8.758678568703772,-1.0681315327688026,10.528725108720437
1539131358816537,-10.223544670786623,-1.4343480582895154,11.139085984588291
1539131358832518,-6.134126802471883,-0.7019150072480898,11.688410772869474
1539131358848499,-1.983672846570471,0.8850232700083325,11.993591210803288
1539131358864480,-1.6174563210497581,1.5564202334630863,11.20012207217519
1539131358880460,-3.814755474174035,0.6408789196611906,9.796292057679011
1539131358896441,-4.791332875562603,-2.166781109330941,8.941786831464015
1539131358912422,3.7537193865873633,-0.5798428320745188,6.134126802471883
1539131358928403,31.76928358892178,4.60822461280236,5.0354772259097444
1539131358944383,49.2866407263291,4.974441138323073,5.401693751430457
1539131358960364,53.80331120775145,3.2043945983061803,4.547188525215461
1539131358976345,41.65712977798103,-0.8239871824216607,3.2654306858930795
1539131358992325,24.07873655298681,-3.875791561760934,2.166781109330941
1539131359008306,7.17174029144735,-5.3406576638437855,1.1902037079423735
1539131359024287,-5.584802014190927,-4.974441138323073,0.03051804379333589
1539131359040268,-9.002822919050914,-2.7771419851987957,-1.0681315327688026
1539131359056248,-6.378271152819025,0.03051804379333589,-1.4953841458761872
1539131359072229,-3.570611123826893,1.8616006713969,-1.5564202334630863
1539131359088210,-5.0354772259097444,1.5564202334630863,-1.3122758831159445
1539131359104187,-9.430075532158298,0.45777065690094787,-0.7629510948347615
1539131359120167,-11.810482948043045,0.09155413138023505,-0.7019150072480898
1539131359136148,-13.885709925993751,0.15259021896690683,-0.8239871824216607
1539131359152129,-15.960936903944457,0.3967345693140487,-0.7019150072480898
1539131359168110,-16.32715342946517,1.3122758831159445,-0.2746623941404778
1539131359184090,-15.533684290836845,2.5940337224383256,0.03051804379333589
1539131359200071,-15.411612115663274,3.7537193865873633,0.33569848172737693
1539131359216052,-16.02197299153113,4.852368963149502,1.2512397955290453
1539131359232032,-18.463416495002548,5.889982452124741,2.4719615472647547
1539131359248013,-21.820401312275862,6.378271152819025,3.5095750362402214
1539131359263994,-23.83459220263967,6.744487678339738,4.303044174868319
1539131359279975,-22.186617837796575,7.232776379034021,4.60822461280236
1539131359295955,-16.44922560463874,7.476920729381163,4.974441138323073
1539131359311936,-8.087281605249018,7.2938124666209205,5.3406576638437855
1539131359327917,-0.9460593575952316,6.500343327992596,5.706874189364498
1539131359343897,3.1433585107195086,4.791332875562603,5.95101853971164
1539131359359878,3.875791561760934,1.983672846570471,6.073090714885211
1539131359375859,2.04470893415737,-0.7019150072480898,5.828946364538069
1539131359391840,-0.5798428320745188,-3.1433585107195086,4.730296787975931
1539131359407820,-2.227817196917613,-5.3406576638437855,3.6316472114137923
1539131359423797,-1.983672846570471,-6.439307240405924,2.9602502479590385
1539131359439778,-1.5564202334630863,-5.95101853971164,2.4719615472647547
1539131359455759,-2.105745021744042,-4.9134050507361735,1.983672846570471
1539131359471739,-3.936827649347606,-4.180971999694748,2.655069810025225
1539131359487720,-5.279621576256886,-3.7537193865873633,4.42511635004189
1539131359503701,-5.523765926604028,-2.7771419851987957,6.073090714885211
1539131359519682,-4.42511635004189,-2.7161058976118966,7.11070420386045
1539131359535662,-0.5188067444876197,-4.730296787975931,9.185931181811156
1539131359551643,8.087281605249018,-7.782101167315204,12.970168612191856
1539131359567624,17.48683909361398,-9.063859006637585,16.571297779812312
1539131359583604,18.341344319828977,-8.697642481116873,18.036163881895163
1539131359599585,7.354848554207592,-8.45349813076973,16.510261692225413
1539131359615566,-5.279621576256886,-7.476920729381163,13.519493400473038
1539131359631547,-10.040436408026153,-6.378271152819025,11.261158159761862
1539131359647527,-6.8665598535133086,-5.584802014190927,9.85732814526591
1539131359663508,0.45777065690094787,-5.3406576638437855,9.67421988250544
1539131359679489,6.439307240405924,-4.60822461280236,9.85732814526591
1539131359695469,9.85732814526591,-2.8381780727854675,8.880750743877343
1539131359711450,8.270389868009488,-0.9460593575952316,5.76791027695117
1539131359727431,3.814755474174035,0.9460593575952316,1.4953841458761872
1539131359743408,1.1902037079423735,2.04470893415737,-1.1291676203554744
1539131359759389,0.5188067444876197,1.5564202334630863,-0.9460593575952316
1539131359775369,-2.04470893415737,0.213626306553806,0.2746623941404778
1539131359791350,-5.95101853971164,-1.4953841458761872,0.9460593575952316
1539131359807331,-8.087281605249018,-2.8381780727854675,-0.2746623941404778
1539131359823311,-7.782101167315204,-1.4953841458761872,-3.0823224231326094
1539131359839292,-5.0354772259097444,1.1291676203554744,-6.073090714885211
1539131359855273,-0.7629510948347615,3.5095750362402214,-8.697642481116873
1539131359871254,4.058899824521177,4.9134050507361735,-11.261158159761862
1539131359887234,8.270389868009488,4.364080262455218,-13.702601663233281
1539131359903215,14.251926451514464,2.655069810025225,-15.350576028076603
1539131359919196,23.041123064011572,0.213626306553806,-14.862287327382319
1539131359935176,30.30441748683893,-2.166781109330941,-12.664988174258042
1539131359951157,31.76928358892178,-4.852368963149502,-10.162508583199724
1539131359967138,26.276035706111088,-5.95101853971164,-8.941786831464015
1539131359983119,16.876478217746126,-5.0354772259097444,-9.796292057679011
1539131359999099,10.772869459067579,-2.5940337224383256,-10.89494163424115
1539131360015080,9.063859006637585,0.03051804379333589,-10.162508583199724
1539131360031061,-1.1291676203554744,3.692683299000464,-8.392462043183059
1539131360047042,-6.073090714885211,6.744487678339738,-6.256198977645454
1539131360063049,-13.275349050125897,4.974441138323073,-3.936827649347606
1539131360079030,-19.9282825970854,3.0823224231326094,-3.1433585107195086
1539131360095010,-23.590447852292527,1.4343480582895154,-4.180971999694748
1539131360110991,-22.919050888838,0.213626306553806,-5.584802014190927
1539131360126972,-15.167467765316132,0.15259021896690683,-6.439307240405924
1539131360142953,-3.6316472114137923,-0.09155413138023505,-6.683451590753066
1539131360158933,11.139085984588291,0.09155413138023505,-6.744487678339738
1539131360174914,25.23842221713585,0.2746623941404778,-7.049668116273779
1539131360190895,32.31860837720296,-0.3967345693140487,-7.660028992141633
1539131360206875,32.31860837720296,-1.3733119707026162,-9.369039444571627
1539131360222856,28.595407034408936,-2.532997634851654,-11.932555123216616
1539131360238837,30.30441748683893,-2.105745021744042,-14.862287327382319
1539131360254818,35.67559319447605,-1.3122758831159445,-17.66994735637445
1539131360270798,43.18303196765078,0.213626306553806,-19.9282825970854
1539131360286779,58.13687342641333,0.8239871824216607,-21.69832913710229
1539131360302760,74.7997253376061,0.5798428320745188,-21.39314869916825
1539131360318740,91.40154116121175,0.213626306553806,-19.562066071564686
1539131360334721,103.66979476615552,-0.45777065690094787,-17.66994735637445
1539131360350702,108.61371786068503,-1.0070954451819034,-16.32715342946517
1539131360366683,105.68398565651933,-2.4719615472647547,-15.411612115663274
1539131360382660,98.11551079575793,-4.364080262455218,-14.618142977035177
1539131360398640,92.56122682536079,-4.974441138323073,-13.519493400473038
1539131360414621,89.26527809567415,-4.42511635004189,-11.871519035629717
1539131360430602,85.78622110322749,-2.7161058976118966,-10.406652933546866
1539131360446582,80.84229800869798,-0.8850232700083325,-8.697642481116873
1539131360462563,74.6776531624323,0.7629510948347615,-6.134126802471883
1539131360478544,69.67269398031613,1.9226367589837992,-3.0823224231326094
1539131360494525,63.56908522163758,2.8992141603723667,-0.5798428320745188
1539131360510505,53.498130769817635,3.7537193865873633,1.0681315327688026
1539131360526486,39.82604715037746,4.364080262455218,2.3498893720911838
1539131360542467,24.811169604028237,4.852368963149502,2.8381780727854675
1539131360558447,10.101472495613052,4.791332875562603,2.655069810025225
1539131360574428,-4.180971999694748,3.875791561760934,2.7161058976118966
1539131360590409,-21.51522087434182,2.3498893720911838,3.875791561760934
1539131360606390,-35.00419623102175,0.9460593575952316,5.279621576256886
