Timestamp (microseconds),Accel X (g),Accel Y (g),Accel Z (g)
1539732495677642,-0.18475623712520006,0.9401388570992602,0.26227206836041805
1539732495693642,-0.18573281452658863,0.9358663309681852,0.26361486228732733
1539732495709642,-0.18744182497901862,0.9320820935378045,0.26569008926527804
1539732495725642,-0.18866254673075478,0.9319600213626309,0.26727702754253446
1539732495741642,-0.19037155718318477,0.9328145265888459,0.2666666666666666
1539732495757641,-0.18963912413214334,0.935622186617838,0.26691081101701375
1539732495773641,-0.1902494850080112,0.934767681391623,0.2670328831921873
1539732495789641,-0.18744182497901862,0.9359884031433587,0.26642252231631947
1539732495805641,-0.1870756084534979,0.9361104753185323,0.2642252231631952
1539732495821641,-0.18646524757763006,0.9341573205157552,0.26446936751354233
1539732495837640,-0.18426794842450578,0.9341573205157552,0.26483558403906304
1539732495853640,-0.18353551537346435,0.9344014648661023,0.26227206836041805
1539732495869640,-0.1832913710231172,0.9324483100633252,0.25848783093003735
1539732495885640,-0.18280308232242293,0.934767681391623,0.25970855268177306
1539732495901640,-0.18268101014724936,0.935622186617838,0.2573891813534752
1539732495917639,-0.18439002059967935,0.9325703822384988,0.25726710917830165
1539732495933639,-0.18219272144655507,0.9352559700923173,0.25604638742656594
1539732495949639,-0.18280308232242293,0.9357442587930116,0.25690089265278093
1539732495965639,-0.18487830930037363,0.9342793926909287,0.25604638742656594
1539732495981639,-0.18365758754863792,0.9335469596398873,0.2586099031052109
1539732495997650,-0.18439002059967935,0.934767681391623,0.2590981918059052
1539732496013650,-0.18255893797207579,0.9365987640192266,0.25763332570382236
1539732496029649,-0.18182650492103436,0.9378194857709623,0.25970855268177306
1539732496045649,-0.18243686579690221,0.934767681391623,0.2594644083314259
1539732496061649,-0.18158236057068722,0.9320820935378045,0.25799954222934307
1539732496077649,-0.18194857709620793,0.935622186617838,0.2595864805065995
1539732496093649,-0.1837796597238115,0.939040207522698,0.25604638742656594
1539732496109648,-0.18609903105210934,0.934767681391623,0.2621499961852445
1539732496125648,-0.18988326848249049,0.9292744335088123,0.2623941405355916
1539732496141648,-0.19220263981078833,0.9292744335088123,0.2687418936446173
1539732496157648,-0.1928130006866562,0.9300068665598538,0.2667887388418402
1539732496173648,-0.19220263981078833,0.9342793926909287,0.2666666666666666
1539732496189647,-0.19073777370870548,0.9361104753185323,0.26825360494392303
1539732496205647,-0.18976119630731692,0.9379415579461359,0.2647135118638895
1539732496221647,-0.18719768062867148,0.935622186617838,0.2676432440680552
1539732496237647,-0.1854886701762415,0.9353780422674909,0.2675211718928816
1539732496253646,-0.1854886701762415,0.9335469596398873,0.26813153276874946
1539732496269646,-0.1846341649500265,0.9325703822384988,0.2645914396887159
1539732496285646,-0.18475623712520006,0.9324483100633252,0.2642252231631952
1539732496301646,-0.18353551537346435,0.936476691844053,0.2620279240100709
1539732496317627,-0.18255893797207579,0.936476691844053,0.2623941405355916
1539732496333626,-0.1837796597238115,0.9383077744716566,0.2616617074845502
1539732496349626,-0.18158236057068722,0.9385519188220037,0.2608072022583352
1539732496365626,-0.1812161440451665,0.9372091248950944,0.25775539787899593
1539732496381626,-0.18243686579690221,0.934767681391623,0.2587319752803845
1539732496397626,-0.18426794842450578,0.9297627222095066,0.25641260395208665
1539732496413625,-0.18402380407415864,0.9289082169832916,0.25763332570382236
1539732496429625,-0.1817044327458608,0.9326924544136723,0.2549477378500038
1539732496445625,-0.1808499275196458,0.937331197070268,0.25726710917830165
1539732496461625,-0.18011749446860437,0.9374532692454416,0.2548256656748302
1539732496477625,-0.18048371099412508,0.936476691844053,0.25677882047760736
1539732496493624,-0.18280308232242293,0.938185702296483,0.25641260395208665
1539732496509624,-0.18219272144655507,0.9389181353475244,0.2562905317769131
1539732496525624,-0.18280308232242293,0.9341573205157552,0.2592202639810788
1539732496541624,-0.18646524757763006,0.9306172274357216,0.26153963530937663
1539732496557623,-0.18951705195696977,0.9290302891584652,0.2623941405355916
1539732496573623,-0.19085984588387905,0.9317158770122838,0.26056305790798806
1539732496589623,-0.1906157015335319,0.9357442587930116,0.26483558403906304
1539732496605623,-0.1906157015335319,0.9363546196688795,0.2676432440680552
1539732496621623,-0.19098191805905262,0.9345235370412759,0.2645914396887159
1539732496637603,-0.18988326848249049,0.9342793926909287,0.2647135118638895
1539732496653603,-0.18927290760662263,0.9363546196688795,0.2633707179369802
1539732496669603,-0.18646524757763006,0.9357442587930116,0.26434729533836876
1539732496685603,-0.1867093919279772,0.9336690318150609,0.26483558403906304
1539732496701603,-0.18573281452658863,0.9342793926909287,0.2645914396887159
1539732496717602,-0.18426794842450578,0.9325703822384988,0.2630045014114595
1539732496733602,-0.18341344319829078,0.9325703822384988,0.2632486457618066
1539732496749602,-0.18060578316929865,0.9329365987640195,0.2637369344625009
1539732496765602,-0.1795071335927365,0.9341573205157552,0.2621499961852445
1539732496781602,-0.17865262836652152,0.9353780422674909,0.2609292744335088
1539732496797601,-0.17865262836652152,0.9370870527199209,0.25970855268177306
1539732496813601,-0.18133821622034008,0.9341573205157552,0.26276035706111234
1539732496829601,-0.18158236057068722,0.9337911039902345,0.26105134660868234
1539732496845601,-0.18341344319829078,0.9341573205157552,0.2611734187838559
1539732496861601,-0.18316929884794364,0.9359884031433587,0.2612954909590295
1539732496877600,-0.18353551537346435,0.9365987640192266,0.25690089265278093
1539732496893600,-0.18426794842450578,0.9342793926909287,0.2575112535286488
1539732496909600,-0.18475623712520006,0.9363546196688795,0.2586099031052109
1539732496925600,-0.18573281452658863,0.939040207522698,0.2565346761272602
1539732496941599,-0.18646524757763006,0.9351338979171437,0.26019684138246735
1539732496957641,-0.1890287632562755,0.9306172274357216,0.25934233615625235
1539732496973641,-0.1911039902342262,0.9303730830853745,0.2621499961852445
1539732496989641,-0.19293507286182976,0.9312275883115895,0.26361486228732733
1539732497005641,-0.1923247119859619,0.9355001144426645,0.2638590066376745
1539732497021640,-0.19159227893492048,0.9368429083695737,0.2659342336156252
1539732497037640,-0.19098191805905262,0.9384298466468302,0.26654459449149304
1539732497053640,-0.18609903105210934,0.9378194857709623,0.2676432440680552
1539732497069640,-0.18475623712520006,0.9387960631723509,0.26849774929427017
1539732497085640,-0.18402380407415864,0.9368429083695737,0.2661783779659723
1539732497101639,-0.18268101014724936,0.9353780422674909,0.2653238727397573
1539732497117639,-0.18097199969481936,0.9331807431143666,0.26520180056458376
1539732497133639,-0.18023956664377794,0.9328145265888459,0.2611734187838559
1539732497149639,-0.1795071335927365,0.9337911039902345,0.25934233615625235
1539732497165639,-0.18023956664377794,0.9341573205157552,0.2587319752803845
1539732497181638,-0.18048371099412508,0.9333028152895402,0.25641260395208665
1539732497197638,-0.1808499275196458,0.9326924544136723,0.25690089265278093
1539732497213638,-0.18243686579690221,0.934767681391623,0.25848783093003735
1539732497229638,-0.18597695887693577,0.936476691844053,0.25690089265278093
1539732497245638,-0.1867093919279772,0.9379415579461359,0.25885404745555807
1539732497261637,-0.1846341649500265,0.9380636301213094,0.2612954909590295
1539732497277649,-0.18646524757763006,0.9376974135957887,0.2562905317769131
1539732497293648,-0.18451209277485292,0.9370870527199209,0.25970855268177306
1539732497309648,-0.18304722667277007,0.9335469596398873,0.26153963530937663
1539732497325648,-0.18695353627832434,0.9335469596398873,0.26068513008316163
1539732497341648,-0.18561074235141506,0.9372091248950944,0.26276035706111234
1539732497357648,-0.18561074235141506,0.9365987640192266,0.2621499961852445
1539732497373647,-0.18890669108110192,0.9298847943846802,0.2633707179369802
1539732497389647,-0.1885404745555812,0.9267109178301673,0.2670328831921873
1539732497405647,-0.19000534065766406,0.9292744335088123,0.2650797283894102
1539732497421647,-0.18915083543144906,0.9318379491874573,0.26642252231631947
1539732497437646,-0.18951705195696977,0.9355001144426645,0.26483558403906304
1539732497453646,-0.1881742580300605,0.9369649805447473,0.2683756771190966
1539732497469646,-0.18402380407415864,0.9368429083695737,0.26556801709010447
1539732497485646,-0.18243686579690221,0.9357442587930116,0.2663004501411459
1539732497501646,-0.18219272144655507,0.9379415579461359,0.26434729533836876
1539732497517645,-0.18109407186999293,0.9355001144426645,0.2667887388418402
1539732497533645,-0.17816433966582723,0.9350118257419702,0.2650797283894102
1539732497549645,-0.17901884489204223,0.9357442587930116,0.25799954222934307
1539732497565645,-0.17804226749065366,0.9355001144426645,0.2583657587548638
1539732497581645,-0.17755397878995938,0.9335469596398873,0.25983062485694663
1539732497597625,-0.1779201953154801,0.9348897535667966,0.26153963530937663
1539732497613625,-0.18023956664377794,0.9336690318150609,0.2578774700541695
1539732497629625,-0.1812161440451665,0.934767681391623,0.2604409857328145
1539732497645625,-0.18304722667277007,0.9334248874647137,0.25763332570382236
1539732497661625,-0.18475623712520006,0.9340352483405816,0.2562905317769131
1539732497677624,-0.18451209277485292,0.9337911039902345,0.25799954222934307
1539732497693624,-0.1850003814755472,0.9352559700923173,0.2562905317769131
1539732497709624,-0.18805218585488692,0.936476691844053,0.25677882047760736
1539732497725624,-0.18841840238040763,0.9359884031433587,0.2590981918059052
1539732497741624,-0.1850003814755472,0.936476691844053,0.2604409857328145
1539732497757623,-0.18866254673075478,0.9401388570992602,0.26190585183489734
1539732497773623,-0.18805218585488692,0.9414816510261694,0.26105134660868234
1539732497789623,-0.18658731975280363,0.9348897535667966,0.2632486457618066
1539732497805623,-0.1881742580300605,0.929640650034333,0.26642252231631947
1539732497821622,-0.1923247119859619,0.9290302891584652,0.26434729533836876
1539732497837622,-0.19049362935835834,0.931349660486763,0.2659342336156252
1539732497853622,-0.18988326848249049,0.9361104753185323,0.2647135118638895
1539732497869622,-0.18927290760662263,0.9376974135957887,0.26605630579079875
1539732497885622,-0.18744182497901862,0.9395284962233923,0.2650797283894102
1539732497901621,-0.18402380407415864,0.9385519188220037,0.2676432440680552
1539732497917633,-0.18316929884794364,0.9369649805447473,0.26654459449149304
1539732497933632,-0.18231479362172864,0.9342793926909287,0.26691081101701375
1539732497949632,-0.1791409170672158,0.9324483100633252,0.2659342336156252
1539732497965632,-0.18048371099412508,0.9307392996108952,0.2638590066376745
1539732497981632,-0.17755397878995938,0.9312275883115895,0.2638590066376745
1539732497997632,-0.17804226749065366,0.9315938048371102,0.26141756313420306
1539732498013631,-0.1787747005416951,0.9328145265888459,0.2595864805065995
1539732498029631,-0.17987335011825722,0.9336690318150609,0.25848783093003735
1539732498045631,-0.1782864118410008,0.9346456092164495,0.25763332570382236
1539732498061631,-0.1799954222934308,0.9353780422674909,0.2592202639810788
1539732498077631,-0.18072785534447222,0.9358663309681852,0.2565346761272602
1539732498093630,-0.18072785534447222,0.9367208361944002,0.25799954222934307
1539732498109630,-0.1817044327458608,0.938185702296483,0.25848783093003735
1539732498125630,-0.18255893797207579,0.9379415579461359,0.2583657587548638
1539732498141630,-0.18243686579690221,0.9380636301213094,0.2594644083314259
1539732498157630,-0.18304722667277007,0.9361104753185323,0.2608072022583352
1539732498173629,-0.18426794842450578,0.935622186617838,0.2586099031052109
1539732498189629,-0.1862211032272829,0.938185702296483,0.26178377965972377
1539732498205629,-0.18793011367971335,0.9396505683985659,0.2632486457618066
1539732498221629,-0.18866254673075478,0.9342793926909287,0.26642252231631947
1539732498237640,-0.19000534065766406,0.9282978561074238,0.2654459449149309
1539732498253640,-0.19073777370870548,0.9273212787060352,0.26569008926527804
1539732498269640,-0.19256885633630905,0.9300068665598538,0.26361486228732733
1539732498285639,-0.18963912413214334,0.9350118257419702,0.2670328831921873
1539732498301639,-0.18890669108110192,0.9367208361944002,0.2666666666666666
1539732498317639,-0.18487830930037363,0.9362325474937059,0.26605630579079875
1539732498333639,-0.18451209277485292,0.9351338979171437,0.26349279011215376
1539732498349639,-0.18011749446860437,0.9348897535667966,0.26556801709010447
1539732498365638,-0.1799954222934308,0.9337911039902345,0.26520180056458376
1539732498381638,-0.18011749446860437,0.9318379491874573,0.26312657358663305
1539732498397638,-0.17901884489204223,0.9301289387350273,0.25970855268177306
1539732498413638,-0.17779812314030652,0.9315938048371102,0.2548256656748302
1539732498429638,-0.17889677271686866,0.9311055161364159,0.2553139543755245
1539732498445637,-0.17816433966582723,0.9295185778591595,0.2566567483024338
1539732498461637,-0.1782864118410008,0.9315938048371102,0.2558022430762188
1539732498477637,-0.1791409170672158,0.9367208361944002,0.26019684138246735
1539732498493637,-0.18146028839551365,0.9397726405737394,0.2611734187838559
1539732498509637,-0.18365758754863792,0.9440451667048144,0.2642252231631952
1539732498525636,-0.18304722667277007,0.9491721980621044,0.26569008926527804
1539732498541636,-0.18353551537346435,0.9507591363393608,0.26691081101701375
1539732498557647,-0.1787747005416951,0.9477073319600215,0.26446936751354233
1539732498573647,-0.17975127794308365,0.9445334554055087,0.2661783779659723
1539732498589647,-0.1762111848630501,0.9375753414206152,0.2611734187838559
1539732498605647,-0.17523460746166153,0.9293965056839859,0.25812161440451664
1539732498621647,-0.1782864118410008,0.9256122682536052,0.2592202639810788
1539732498637646,-0.1795071335927365,0.9275654230563823,0.2604409857328145
1539732498653646,-0.1803616388189515,0.928786144808118,0.26153963530937663
1539732498669646,-0.1820706492713815,0.9262226291294731,0.2630045014114595
1539732498685646,-0.18280308232242293,0.9267109178301673,0.2661783779659723
1539732498701645,-0.18439002059967935,0.9315938048371102,0.269108110170138
1539732498717645,-0.1832913710231172,0.9361104753185323,0.26849774929427017
1539732498733645,-0.18512245365072078,0.9386739909971773,0.27313649195086587
1539732498749645,-0.18634317540245648,0.938185702296483,0.27240405889982444
1539732498765645,-0.18609903105210934,0.9372091248950944,0.2721599145494773
1539732498781644,-0.18573281452658863,0.9369649805447473,0.27118333714808873
1539732498797644,-0.1876859693293662,0.9345235370412759,0.26605630579079875
1539732498813644,-0.1890287632562755,0.9355001144426645,0.2680094605935759
1539732498829644,-0.18793011367971335,0.9363546196688795,0.2620279240100709
1539732498845644,-0.18780804150453978,0.9402609292744337,0.2621499961852445
1539732498861643,-0.18719768062867148,0.9408712901503016,0.2594644083314259
1539732498877655,-0.18365758754863792,0.9395284962233923,0.2583657587548638
1539732498893654,-0.1829251544975965,0.9372091248950944,0.2566567483024338
1539732498909654,-0.1803616388189515,0.9351338979171437,0.2544594491493095
1539732498925654,-0.17608911268787653,0.931349660486763,0.2536049439230945
1539732498941654,-0.1757228961623558,0.9267109178301673,0.25433737697413594
1539732498957654,-0.17633325703822367,0.9271992065308616,0.25519188220035094
1539732498973653,-0.1745021744106201,0.9276874952315559,0.2556801709010452
1539732498989653,-0.17254901960784297,0.9312275883115895,0.25763332570382236
1539732499005653,-0.17315938048371082,0.9361104753185323,0.25983062485694663
1539732499021653,-0.17389181353475225,0.9385519188220037,0.25983062485694663
1539732499037653,-0.17730983443961224,0.9389181353475244,0.26068513008316163
1539732499053652,-0.1782864118410008,0.9391622796978716,0.2630045014114595
1539732499069652,-0.18072785534447222,0.9427023727779051,0.2632486457618066
1539732499085652,-0.18182650492103436,0.9409933623254751,0.2616617074845502
1539732499101652,-0.18426794842450578,0.935622186617838,0.26263828488593877
1539732499117652,-0.1858548867017622,0.9306172274357216,0.2633707179369802
1539732499133651,-0.18793011367971335,0.9297627222095066,0.26569008926527804
1539732499149651,-0.1881742580300605,0.934767681391623,0.26813153276874946
1539732499165651,-0.18866254673075478,0.9357442587930116,0.2700846875715266
1539732499181651,-0.1885404745555812,0.9361104753185323,0.27154955367360945
1539732499197662,-0.18744182497901862,0.9363546196688795,0.2700846875715266
1539732499213662,-0.1837796597238115,0.9351338979171437,0.26935225452048517
1539732499229663,-0.18268101014724936,0.9353780422674909,0.2735027084763866
1539732499245663,-0.17987335011825722,0.9312275883115895,0.27411306935225443
1539732499261663,-0.1799954222934308,0.9312275883115895,0.27191577019913016
1539732499277663,-0.1795071335927365,0.933913176165408,0.269108110170138
1539732499293664,-0.17840848401617437,0.9362325474937059,0.26825360494392303
1539732499309664,-0.17779812314030652,0.9367208361944002,0.26556801709010447
1539732499325664,-0.17718776226443866,0.9337911039902345,0.2649576562142366
1539732499341664,-0.1762111848630501,0.9348897535667966,0.2611734187838559
1539732499357665,-0.17669947356374438,0.9355001144426645,0.2600747692072938
1539732499373665,-0.1770656900892651,0.933913176165408,0.2586099031052109
1539732499389665,-0.17730983443961224,0.9346456092164495,0.26227206836041805
1539732499405665,-0.17938506141756294,0.9370870527199209,0.26056305790798806
1539732499421666,-0.17853055619134794,0.9406271457999544,0.2637369344625009
1539732499437666,-0.17901884489204223,0.9420920119020373,0.2625162127107652
1539732499453666,-0.1817044327458608,0.9389181353475244,0.2628824292362859
1539732499469667,-0.1832913710231172,0.933913176165408,0.26019684138246735
1539732499485667,-0.1854886701762415,0.9352559700923173,0.2587319752803845
1539732499501667,-0.18634317540245648,0.9411154345006487,0.2570229648279545
1539732499517639,-0.1885404745555812,0.9392843518730452,0.2583657587548638
1539732499533639,-0.18866254673075478,0.9318379491874573,0.2592202639810788
1539732499549638,-0.1902494850080112,0.9268329900053409,0.2599526970321202
1539732499565638,-0.18841840238040763,0.9263447013046466,0.25775539787899593
1539732499581638,-0.18512245365072078,0.9291523613336388,0.25983062485694663
1539732499597638,-0.18524452582589435,0.9311055161364159,0.25897611963073164
1539732499613638,-0.1850003814755472,0.934767681391623,0.2642252231631952
1539732499629637,-0.1782864118410008,0.9378194857709623,0.26178377965972377
1539732499645637,-0.18060578316929865,0.9408712901503016,0.2638590066376745
1539732499661637,-0.17962920576791008,0.9403830014496073,0.26227206836041805
1539732499677637,-0.17938506141756294,0.9355001144426645,0.26276035706111234
1539732499693637,-0.17901884489204223,0.9344014648661023,0.2628824292362859
1539732499709636,-0.1787747005416951,0.933058670939193,0.25934233615625235
1539732499725636,-0.17755397878995938,0.9328145265888459,0.25885404745555807
1539732499741636,-0.17755397878995938,0.9355001144426645,0.25885404745555807
1539732499757636,-0.17889677271686866,0.9362325474937059,0.2592202639810788
1539732499773635,-0.18011749446860437,0.9369649805447473,0.2612954909590295
1539732499789635,-0.18048371099412508,0.9376974135957887,0.2612954909590295
1539732499805635,-0.18194857709620793,0.937331197070268,0.2637369344625009
1539732499821635,-0.17987335011825722,0.9384298466468302,0.26520180056458376
1539732499837646,-0.17779812314030652,0.9358663309681852,0.26398107881284805
1539732499853646,-0.17645532921339724,0.9336690318150609,0.26446936751354233
1539732499869646,-0.17523460746166153,0.9307392996108952,0.26605630579079875
1539732499885645,-0.17718776226443866,0.9317158770122838,0.2659342336156252
1539732499901645,-0.1791409170672158,0.933913176165408,0.26654459449149304
1539732499917645,-0.1846341649500265,0.9384298466468302,0.26642252231631947
1539732499933645,-0.18683146410315077,0.9451438162813766,0.2671549553673609
1539732499949645,-0.1876859693293662,0.9456321049820708,0.26861982146944374
1539732499965644,-0.18683146410315077,0.9359884031433587,0.2666666666666666
1539732499981644,-0.18634317540245648,0.9291523613336388,0.2654459449149309
1539732499997644,-0.18780804150453978,0.9275654230563823,0.2625162127107652
1539732500013644,-0.18512245365072078,0.9297627222095066,0.2638590066376745
1539732500029644,-0.18658731975280363,0.9334248874647137,0.26349279011215376
1539732500045643,-0.18780804150453978,0.9368429083695737,0.2612954909590295
1539732500061643,-0.18744182497901862,0.939894712748913,0.2604409857328145
1539732500077643,-0.1846341649500265,0.9420920119020373,0.25885404745555807
1539732500093643,-0.18268101014724936,0.940749217975128,0.25433737697413594
1539732500109643,-0.18023956664377794,0.937331197070268,0.25641260395208665
1539732500125642,-0.17816433966582723,0.9351338979171437,0.2566567483024338
1539732500141642,-0.1770656900892651,0.9351338979171437,0.2566567483024338
1539732500157653,-0.1749904631113144,0.9342793926909287,0.25555809872587165
1539732500173653,-0.17486839093614082,0.9341573205157552,0.2561684596017395
1539732500189653,-0.17730983443961224,0.9368429083695737,0.2565346761272602
1539732500205653,-0.17584496833752938,0.9386739909971773,0.25775539787899593
1539732500221653,-0.17816433966582723,0.9397726405737394,0.2608072022583352
1539732500237652,-0.1795071335927365,0.9409933623254751,0.2570229648279545
1539732500253652,-0.18133821622034008,0.9408712901503016,0.2594644083314259
1539732500269652,-0.18182650492103436,0.9391622796978716,0.2600747692072938
1539732500285652,-0.1817044327458608,0.9370870527199209,0.2595864805065995
1539732500301652,-0.18219272144655507,0.933913176165408,0.2587319752803845
1539732500317651,-0.18280308232242293,0.9314717326619366,0.2609292744335088
1539732500333651,-0.1862211032272829,0.929640650034333,0.2658121614404516
1539732500349651,-0.18646524757763006,0.9336690318150609,0.2659342336156252
1539732500365651,-0.18731975280384505,0.9403830014496073,0.2688639658197909
1539732500381651,-0.18744182497901862,0.9427023727779051,0.2692301823453116
1539732500397650,-0.1867093919279772,0.9355001144426645,0.27032883192187374
1539732500413650,-0.18512245365072078,0.931349660486763,0.270817120622568
1539732500429650,-0.18524452582589435,0.928786144808118,0.2700846875715266
1539732500445650,-0.1812161440451665,0.9311055161364159,0.2700846875715266
1539732500461650,-0.18097199969481936,0.9335469596398873,0.26849774929427017
1539732500477661,-0.1791409170672158,0.9365987640192266,0.26776531624322875
1539732500493661,-0.17816433966582723,0.9395284962233923,0.2667887388418402
1539732500509661,-0.17669947356374438,0.9406271457999544,0.2649576562142366
1539732500525662,-0.1762111848630501,0.9400167849240866,0.2633707179369802
1539732500541662,-0.1762111848630501,0.9369649805447473,0.2616617074845502
1539732500557662,-0.17523460746166153,0.9323262378881516,0.2595864805065995
1539732500573662,-0.17560082398718224,0.9301289387350273,0.25885404745555807
1539732500589663,-0.17596704051270295,0.9279316395819031,0.25506981002517737
1539732500605663,-0.17669947356374438,0.9301289387350273,0.2516517891203174
1539732500621663,-0.17975127794308365,0.9325703822384988,0.2544594491493095
1539732500637663,-0.18353551537346435,0.9369649805447473,0.25848783093003735
1539732500653664,-0.18609903105210934,0.9394064240482187,0.25519188220035094
1539732500669664,-0.1862211032272829,0.9412375066758223,0.2549477378500038
1539732500685664,-0.18561074235141506,0.9402609292744337,0.25262836652170595
1539732500701665,-0.1858548867017622,0.9376974135957887,0.2515297169451438
1539732500717665,-0.1870756084534979,0.9351338979171437,0.2573891813534752
1539732500733665,-0.18524452582589435,0.9348897535667966,0.25690089265278093
1539732500749665,-0.1846341649500265,0.9340352483405816,0.2590981918059052
1539732500765666,-0.18439002059967935,0.932204165712978,0.25641260395208665
1539732500781666,-0.18451209277485292,0.930495155260548,0.26068513008316163
1539732500797668,-0.18390173189898507,0.9365987640192266,0.2653238727397573
1539732500813668,-0.18243686579690221,0.9384298466468302,0.26569008926527804
1539732500829669,-0.18280308232242293,0.936476691844053,0.27020675974670016
1539732500845669,-0.18280308232242293,0.9317158770122838,0.27069504844739445
1539732500861669,-0.1829251544975965,0.932204165712978,0.2728923476005187
1539732500877669,-0.18439002059967935,0.9334248874647137,0.2721599145494773
1539732500893670,-0.1817044327458608,0.9368429083695737,0.27228198672465087
1539732500909670,-0.1817044327458608,0.9387960631723509,0.274235141527428
1539732500925670,-0.18011749446860437,0.9386739909971773,0.26861982146944374
1539732500941671,-0.17865262836652152,0.9368429083695737,0.26849774929427017
1539732500957671,-0.17840848401617437,0.9333028152895402,0.2678873884184023
1539732500973671,-0.17865262836652152,0.9337911039902345,0.2714274814984359
1539732500989671,-0.1770656900892651,0.9345235370412759,0.26727702754253446
1539732501005672,-0.17682154573891795,0.9365987640192266,0.2647135118638895
1539732501021672,-0.17853055619134794,0.9351338979171437,0.2659342336156252
1539732501037672,-0.17669947356374438,0.9352559700923173,0.26178377965972377
1539732501053672,-0.17779812314030652,0.9345235370412759,0.2623941405355916
1539732501069673,-0.17633325703822367,0.9352559700923173,0.26056305790798806
1539732501085673,-0.17596704051270295,0.9369649805447473,0.26019684138246735
1539732501101673,-0.1791409170672158,0.9368429083695737,0.2566567483024338
1539732501117675,-0.18231479362172864,0.9378194857709623,0.2592202639810788
1539732501133676,-0.18182650492103436,0.9368429083695737,0.25812161440451664
1539732501149676,-0.18231479362172864,0.9355001144426645,0.2594644083314259
1539732501165676,-0.1817044327458608,0.9341573205157552,0.2587319752803845
1539732501181676,-0.18158236057068722,0.9325703822384988,0.2594644083314259
1539732501197677,-0.1799954222934308,0.9320820935378045,0.25604638742656594
1539732501213677,-0.1803616388189515,0.9315938048371102,0.2583657587548638
1539732501229677,-0.18011749446860437,0.9348897535667966,0.26019684138246735
1539732501245678,-0.1799954222934308,0.9401388570992602,0.2625162127107652
1539732501261678,-0.18219272144655507,0.9383077744716566,0.2658121614404516
1539732501277678,-0.1812161440451665,0.9326924544136723,0.2666666666666666
1539732501293678,-0.1837796597238115,0.9295185778591595,0.26691081101701375
1539732501309679,-0.1841458762493322,0.9290302891584652,0.2658121614404516
1539732501325679,-0.18304722667277007,0.9324483100633252,0.26813153276874946
1539732501341679,-0.1846341649500265,0.9351338979171437,0.26569008926527804
1539732501357679,-0.18561074235141506,0.9384298466468302,0.2666666666666666
1539732501373680,-0.18402380407415864,0.9394064240482187,0.26569008926527804
1539732501389680,-0.18268101014724936,0.9385519188220037,0.2661783779659723
1539732501405680,-0.18219272144655507,0.9372091248950944,0.26446936751354233
1539732501421681,-0.18341344319829078,0.9337911039902345,0.2616617074845502
1539732501437652,-0.17926298924238937,0.9320820935378045,0.26263828488593877
1539732501453652,-0.17840848401617437,0.9328145265888459,0.26056305790798806
1539732501469653,-0.17767605096513295,0.9345235370412759,0.26019684138246735
1539732501485653,-0.17694361791409152,0.9350118257419702,0.2637369344625009
1539732501501653,-0.17682154573891795,0.936476691844053,0.2621499961852445
1539732501517654,-0.17816433966582723,0.9378194857709623,0.26153963530937663
1539732501533654,-0.17938506141756294,0.936476691844053,0.2632486457618066
1539732501549654,-0.17584496833752938,0.9352559700923173,0.26105134660868234
1539732501565654,-0.17682154573891795,0.9337911039902345,0.26056305790798806
1539732501581655,-0.17767605096513295,0.9351338979171437,0.2611734187838559
1539732501597655,-0.1753566796368351,0.9353780422674909,0.26153963530937663
1539732501613655,-0.17645532921339724,0.9376974135957887,0.26361486228732733
1539732501629655,-0.1779201953154801,0.9365987640192266,0.26642252231631947
1539732501645656,-0.17694361791409152,0.9334248874647137,0.2647135118638895
1539732501661656,-0.1774319066147858,0.9358663309681852,0.2653238727397573
1539732501677656,-0.1779201953154801,0.9408712901503016,0.2671549553673609
1539732501693657,-0.17779812314030652,0.9414816510261694,0.26642252231631947
1539732501709657,-0.17938506141756294,0.9361104753185323,0.26642252231631947
1539732501725657,-0.18133821622034008,0.9352559700923173,0.26898603799496446
1539732501741657,-0.18231479362172864,0.933913176165408,0.26813153276874946
1539732501757660,-0.18426794842450578,0.9342793926909287,0.2697184710460059
1539732501773660,-0.1870756084534979,0.9351338979171437,0.27032883192187374
1539732501789660,-0.18731975280384505,0.9363546196688795,0.2704509040970473
1539732501805660,-0.18634317540245648,0.936476691844053,0.27032883192187374
1539732501821661,-0.18573281452658863,0.9357442587930116,0.26520180056458376
1539732501837661,-0.18683146410315077,0.9317158770122838,0.2658121614404516
1539732501853661,-0.18451209277485292,0.9306172274357216,0.26312657358663305
1539732501869661,-0.18304722667277007,0.9289082169832916,0.2609292744335088
1539732501885662,-0.1808499275196458,0.9300068665598538,0.2608072022583352
1539732501901662,-0.17938506141756294,0.933058670939193,0.2616617074845502
1539732501917662,-0.17767605096513295,0.9357442587930116,0.26019684138246735
1539732501933663,-0.17840848401617437,0.9376974135957887,0.2609292744335088
1539732501949663,-0.17462424658579367,0.9384298466468302,0.25763332570382236
1539732501965663,-0.17267109178301654,0.937331197070268,0.2571450370031281
1539732501981663,-0.17132829785610726,0.9363546196688795,0.2608072022583352
1539732501997664,-0.1712062256809337,0.9355001144426645,0.25983062485694663
1539732502013664,-0.17352559700923154,0.9374532692454416,0.26019684138246735
1539732502029664,-0.17438010223544653,0.939040207522698,0.2612954909590295
1539732502045664,-0.17669947356374438,0.9391622796978716,0.2604409857328145
1539732502061665,-0.17853055619134794,0.9346456092164495,0.2620279240100709
1539732502077697,-0.17853055619134794,0.9306172274357216,0.26105134660868234
1539732502093698,-0.1808499275196458,0.9324483100633252,0.26434729533836876
1539732502109698,-0.18048371099412508,0.934767681391623,0.2647135118638895
1539732502125698,-0.1817044327458608,0.9308613717860688,0.26312657358663305
1539732502141698,-0.18475623712520006,0.9281757839322502,0.26849774929427017
1539732502157699,-0.18609903105210934,0.930495155260548,0.2683756771190966
1539732502173699,-0.18609903105210934,0.9333028152895402,0.26898603799496446
1539732502189699,-0.1858548867017622,0.9384298466468302,0.2705729762722209
1539732502205700,-0.1881742580300605,0.940749217975128,0.26947432669565874
1539732502221700,-0.1862211032272829,0.9409933623254751,0.2717936980239566
1539732502237700,-0.18426794842450578,0.9363546196688795,0.2697184710460059
1539732502253700,-0.1829251544975965,0.9337911039902345,0.2680094605935759
1539732502269701,-0.18219272144655507,0.9303730830853745,0.27020675974670016
1539732502285701,-0.18158236057068722,0.9302510109102009,0.26861982146944374
1539732502301701,-0.1812161440451665,0.9306172274357216,0.2658121614404516
1539732502317701,-0.1770656900892651,0.9336690318150609,0.2621499961852445
1539732502333702,-0.1749904631113144,0.9365987640192266,0.2630045014114595
1539732502349702,-0.1736476691844051,0.9375753414206152,0.26312657358663305
1539732502365702,-0.17340352483405796,0.9383077744716566,0.26263828488593877
1539732502381703,-0.17169451438162797,0.937331197070268,0.2600747692072938
1539732502397674,-0.17254901960784297,0.9367208361944002,0.2632486457618066
1539732502413674,-0.17352559700923154,0.9345235370412759,0.25885404745555807
1539732502429675,-0.17486839093614082,0.9351338979171437,0.26178377965972377
1539732502445675,-0.17669947356374438,0.9362325474937059,0.26141756313420306
1539732502461675,-0.17804226749065366,0.9391622796978716,0.2625162127107652
1539732502477676,-0.18023956664377794,0.9365987640192266,0.2620279240100709
1539732502493676,-0.18243686579690221,0.9350118257419702,0.2608072022583352
1539732502509676,-0.18365758754863792,0.9336690318150609,0.25983062485694663
1539732502525676,-0.18524452582589435,0.9375753414206152,0.26276035706111234
1539732502541677,-0.1858548867017622,0.9395284962233923,0.26434729533836876
1539732502557677,-0.18963912413214334,0.9324483100633252,0.2654459449149309
1539732502573677,-0.19073777370870548,0.9270771343556881,0.2663004501411459
1539732502589677,-0.19183642328526762,0.9276874952315559,0.26776531624322875
1539732502605678,-0.18890669108110192,0.9320820935378045,0.26691081101701375
1539732502621678,-0.1881742580300605,0.9359884031433587,0.26849774929427017
1539732502637678,-0.18927290760662263,0.9357442587930116,0.2678873884184023
1539732502653679,-0.18683146410315077,0.9363546196688795,0.2688639658197909
1539732502669679,-0.1841458762493322,0.9374532692454416,0.2700846875715266
1539732502685679,-0.18231479362172864,0.9342793926909287,0.2697184710460059
1539732502701679,-0.17889677271686866,0.933058670939193,0.27032883192187374
1539732502717682,-0.17608911268787653,0.9308613717860688,0.2714274814984359
1539732502733682,-0.1703517204547187,0.9311055161364159,0.2675211718928816
1539732502749682,-0.1669336995498587,0.9293965056839859,0.2653238727397573
1539732502765682,-0.1660791943236437,0.9323262378881516,0.2659342336156252
1539732502781683,-0.1644922560463873,0.9341573205157552,0.26483558403906304
1539732502797683,-0.16339360646982515,0.9361104753185323,0.26434729533836876
1539732502813683,-0.1636377508201723,0.9372091248950944,0.26153963530937663
1539732502829683,-0.16620126649881728,0.9369649805447473,0.26398107881284805
1539732502845684,-0.1698634317540244,0.9355001144426645,0.2608072022583352
1539732502861684,-0.17425803006027296,0.9363546196688795,0.2616617074845502
1539732502877684,-0.17669947356374438,0.9369649805447473,0.26227206836041805
1539732502893684,-0.17938506141756294,0.9394064240482187,0.2628824292362859
1539732502909685,-0.18304722667277007,0.9394064240482187,0.2632486457618066
1539732502925685,-0.18512245365072078,0.9378194857709623,0.26190585183489734
1539732502941685,-0.18829633020523406,0.9370870527199209,0.2650797283894102
1539732502957686,-0.19049362935835834,0.9406271457999544,0.26569008926527804
1539732502973686,-0.19122606240939977,0.9352559700923173,0.2676432440680552
1539732502989686,-0.1923247119859619,0.9286640726329445,0.2661783779659723
1539732503005686,-0.1943999389639126,0.9256122682536052,0.2670328831921873
1539732503021687,-0.19293507286182976,0.9273212787060352,0.2697184710460059
1539732503037689,-0.19183642328526762,0.9289082169832916,0.2700846875715266
1539732503053689,-0.18646524757763006,0.9336690318150609,0.2709391927977416
1539732503069689,-0.1854886701762415,0.9355001144426645,0.2654459449149309
1539732503085690,-0.18255893797207579,0.9370870527199209,0.2658121614404516
1539732503101690,-0.1799954222934308,0.9359884031433587,0.2649576562142366
1539732503117690,-0.17962920576791008,0.9342793926909287,0.26483558403906304
1539732503133690,-0.17816433966582723,0.9315938048371102,0.2647135118638895
1539732503149691,-0.17560082398718224,0.932204165712978,0.26190585183489734
1539732503165691,-0.17376974135957868,0.935622186617838,0.26190585183489734
1539732503181691,-0.17108415350576012,0.9387960631723509,0.26178377965972377
1539732503197692,-0.17169451438162797,0.9384298466468302,0.2642252231631952
1539732503213692,-0.16925307087815655,0.936476691844053,0.2647135118638895
1539732503229692,-0.16974135957885084,0.9326924544136723,0.26105134660868234
1539732503245692,-0.16913099870298298,0.9334248874647137,0.26153963530937663
1539732503261693,-0.17108415350576012,0.9311055161364159,0.26483558403906304
1539732503277693,-0.17230487525749583,0.932204165712978,0.26605630579079875
1539732503293693,-0.1745021744106201,0.9333028152895402,0.2647135118638895
1539732503309693,-0.1724269474326694,0.9383077744716566,0.26520180056458376
1539732503325694,-0.17560082398718224,0.9397726405737394,0.26263828488593877
1539732503341694,-0.1787747005416951,0.9387960631723509,0.2632486457618066
1539732503357666,-0.17962920576791008,0.9348897535667966,0.26227206836041805
1539732503373666,-0.1832913710231172,0.9370870527199209,0.2633707179369802
1539732503389666,-0.18219272144655507,0.9396505683985659,0.2654459449149309
1539732503405666,-0.18219272144655507,0.9361104753185323,0.26263828488593877
1539732503421667,-0.1850003814755472,0.9312275883115895,0.26727702754253446
1539732503437667,-0.1890287632562755,0.9291523613336388,0.2697184710460059
1539732503453667,-0.1914702067597469,0.9319600213626309,0.26813153276874946
1539732503469668,-0.19000534065766406,0.9345235370412759,0.2676432440680552
1539732503485668,-0.19000534065766406,0.9337911039902345,0.2709391927977416
1539732503501668,-0.18890669108110192,0.9368429083695737,0.269962615396353
1539732503517668,-0.18609903105210934,0.9367208361944002,0.269962615396353
1539732503533669,-0.1837796597238115,0.935622186617838,0.2680094605935759
1539732503549669,-0.18365758754863792,0.9346456092164495,0.2649576562142366
1539732503565669,-0.1817044327458608,0.9329365987640195,0.2638590066376745
1539732503581669,-0.18048371099412508,0.933058670939193,0.2641031509880216
1539732503597670,-0.1791409170672158,0.9344014648661023,0.26068513008316163
1539732503613670,-0.17645532921339724,0.9358663309681852,0.2578774700541695
1539732503629670,-0.17596704051270295,0.9344014648661023,0.26019684138246735
1539732503645671,-0.1741359578850994,0.9359884031433587,0.2595864805065995
1539732503661671,-0.17254901960784297,0.936476691844053,0.2587319752803845
1539732503677673,-0.1724269474326694,0.9376974135957887,0.25934233615625235
1539732503693673,-0.1719386587319751,0.9362325474937059,0.25970855268177306
1539732503709674,-0.17315938048371082,0.9362325474937059,0.2592202639810788
1539732503725674,-0.17376974135957868,0.9369649805447473,0.25799954222934307
1539732503741674,-0.17376974135957868,0.9352559700923173,0.25885404745555807
1539732503757674,-0.1719386587319751,0.9346456092164495,0.2587319752803845
1539732503773675,-0.17303730830853725,0.931349660486763,0.2582436865796902
1539732503789675,-0.17267109178301654,0.9314717326619366,0.2611734187838559
1539732503805675,-0.17560082398718224,0.9367208361944002,0.2633707179369802
1539732503821675,-0.17779812314030652,0.9396505683985659,0.2638590066376745
1539732503837676,-0.1803616388189515,0.9357442587930116,0.2661783779659723
1539732503853676,-0.18231479362172864,0.9342793926909287,0.2666666666666666
1539732503869676,-0.1850003814755472,0.9361104753185323,0.27399099717708086
1539732503885676,-0.18573281452658863,0.9379415579461359,0.2737468528267337
1539732503901677,-0.18658731975280363,0.9378194857709623,0.27191577019913016
1539732503917677,-0.18561074235141506,0.9361104753185323,0.27228198672465087
1539732503933677,-0.18561074235141506,0.9355001144426645,0.2704509040970473
1539732503949678,-0.1850003814755472,0.9324483100633252,0.269108110170138
1539732503965678,-0.18524452582589435,0.9317158770122838,0.26861982146944374
1539732503981678,-0.18475623712520006,0.9307392996108952,0.26947432669565874
1539732503997711,-0.18365758754863792,0.9318379491874573,0.2671549553673609
1539732504013711,-0.18231479362172864,0.9312275883115895,0.26446936751354233
1539732504029711,-0.1795071335927365,0.9336690318150609,0.2620279240100709
1539732504045712,-0.1774319066147858,0.9336690318150609,0.2633707179369802
1539732504061712,-0.1736476691844051,0.9358663309681852,0.2653238727397573
1539732504077712,-0.1724269474326694,0.937331197070268,0.2599526970321202
1539732504093712,-0.1719386587319751,0.9387960631723509,0.25983062485694663
1539732504109713,-0.17315938048371082,0.939894712748913,0.25970855268177306
1539732504125713,-0.17267109178301654,0.9380636301213094,0.26056305790798806
1539732504141713,-0.17303730830853725,0.9363546196688795,0.2575112535286488
1539732504157714,-0.1757228961623558,0.9365987640192266,0.2570229648279545
1539732504173714,-0.1745021744106201,0.9341573205157552,0.2548256656748302
1539732504189714,-0.17145037003128083,0.933058670939193,0.2566567483024338
1539732504205714,-0.1990386816205083,0.9291523613336388,0.2625162127107652
1539732504221715,-0.18353551537346435,0.9337911039902345,0.26898603799496446
1539732504237715,-0.16717784390020585,0.9389181353475244,0.24884412909132525
1539732504253715,-0.1698634317540244,0.929640650034333,0.2616617074845502
1539732504269715,-0.18097199969481936,0.9218280308232245,0.2506752117189288
1539732504285716,-0.17291523613336368,0.9307392996108952,0.24640268558785383
1539732504301716,-0.1660791943236437,0.9413595788509959,0.24628061341268026
1539732504317688,-0.16925307087815655,0.9532005798428322,0.24420538643472955
1539732504333688,-0.1686427100022887,0.9573510337987337,0.24518196383611812
1539732504349688,-0.16791027695124727,0.9529564354924851,0.2515297169451438
1539732504365688,-0.1686427100022887,0.9483176928358894,0.2582436865796902
1539732504381689,-0.17840848401617437,0.944167238879988,0.26178377965972377
1539732504397689,-0.17975127794308365,0.9372091248950944,0.26849774929427017
1539732504413689,-0.17596704051270295,0.9337911039902345,0.2730144197756923
1539732504429690,-0.17462424658579367,0.9333028152895402,0.27313649195086587
1539732504445690,-0.17462424658579367,0.9350118257419702,0.27154955367360945
1539732504461690,-0.17340352483405796,0.9375753414206152,0.2726482032501716
1539732504477690,-0.17389181353475225,0.9379415579461359,0.27069504844739445
1539732504493691,-0.17376974135957868,0.9370870527199209,0.2697184710460059
1539732504509691,-0.1732814526588844,0.9369649805447473,0.2676432440680552
1539732504525691,-0.1745021744106201,0.9355001144426645,0.26434729533836876
1539732504541691,-0.1745021744106201,0.9348897535667966,0.2630045014114595
1539732504557692,-0.17376974135957868,0.9378194857709623,0.26276035706111234
1539732504573692,-0.17206073090714868,0.9374532692454416,0.2583657587548638
1539732504589692,-0.1698634317540244,0.9376974135957887,0.2562905317769131
1539732504605692,-0.16852063782711513,0.9384298466468302,0.25519188220035094
1539732504621693,-0.16681162737468513,0.9385519188220037,0.2556801709010452
1539732504637695,-0.1669336995498587,0.938185702296483,0.25433737697413594
1539732504653695,-0.16815442130159441,0.9413595788509959,0.2532387273975738
1539732504669695,-0.16925307087815655,0.9420920119020373,0.25311665522240023
1539732504685696,-0.16888685435263584,0.938185702296483,0.25128557259479667
1539732504701696,-0.16961928740367727,0.9340352483405816,0.2520180056458381
1539732504717696,-0.1719386587319751,0.9318379491874573,0.25055313954375524
1539732504733697,-0.17340352483405796,0.9342793926909287,0.24982070649271382
1539732504749697,-0.17291523613336368,0.9361104753185323,0.2510414282444495
1539732504765697,-0.1736476691844051,0.9386739909971773,0.2536049439230945
1539732504781697,-0.1757228961623558,0.9412375066758223,0.25433737697413594
1539732504797698,-0.17340352483405796,0.9419699397268637,0.2566567483024338
1539732504813698,-0.17230487525749583,0.9409933623254751,0.2578774700541695
1539732504829698,-0.17401388570992582,0.9392843518730452,0.2590981918059052
1539732504845698,-0.17181658655680154,0.934767681391623,0.2603189135576409
1539732504861699,-0.1707179369802394,0.9337911039902345,0.26276035706111234
1539732504877699,-0.1712062256809337,0.9342793926909287,0.2632486457618066
1539732504893699,-0.1724269474326694,0.9333028152895402,0.26483558403906304
1539732504909700,-0.1724269474326694,0.936476691844053,0.2670328831921873
1539732504925700,-0.17462424658579367,0.9372091248950944,0.26691081101701375
1539732504941700,-0.17462424658579367,0.9368429083695737,0.2661783779659723
1539732504957702,-0.17474631876096725,0.9365987640192266,0.26849774929427017
1539732504973703,-0.17486839093614082,0.9358663309681852,0.2666666666666666
1539732504989703,-0.1762111848630501,0.9374532692454416,0.27020675974670016
1539732505005703,-0.17425803006027296,0.937331197070268,0.26935225452048517
1539732505021703,-0.1745021744106201,0.9383077744716566,0.2666666666666666
1539732505037704,-0.17376974135957868,0.9370870527199209,0.2667887388418402
1539732505053704,-0.17254901960784297,0.9351338979171437,0.26654459449149304
1539732505069704,-0.17352559700923154,0.9375753414206152,0.2649576562142366
1539732505085704,-0.17425803006027296,0.9400167849240866,0.26446936751354233
1539732505101705,-0.17352559700923154,0.9396505683985659,0.2630045014114595
1539732505117705,-0.17340352483405796,0.9350118257419702,0.2650797283894102
1539732505133705,-0.1220111390859846,0.876173037308309,0.26446936751354233
1539732505149706,-0.2955977721828029,1.110917830167086,0.22577248798352034
1539732505165706,-0.06927595941100195,0.9816433966582743,0.25177386129549095
1539732505181706,-0.17376974135957868,0.8870374608987568,0.24139772640573742
1539732505197706,-0.22223239490348679,0.8891126878767075,0.24884412909132525
1539732505213707,-0.16388189517051943,0.9167009994659345,0.2788738841840237
1539732505229707,-0.17303730830853725,0.9445334554055087,0.2697184710460059
1539732505245707,-0.18023956664377794,0.9442893110551616,0.26153963530937663
1539732505261707,-0.17218280308232226,0.9511253528648815,0.27411306935225443
1539732505277679,-0.17560082398718224,0.9474631876096744,0.27154955367360945
1539732505293679,-0.16815442130159441,0.9400167849240866,0.2695963988708323
1539732505309680,-0.16412603952086657,0.9369649805447473,0.26569008926527804
1539732505325680,-0.17291523613336368,0.9336690318150609,0.25641260395208665
1539732505341680,-0.1636377508201723,0.9324483100633252,0.2600747692072938
1539732505357680,-0.16009765774013873,0.9334248874647137,0.26141756313420306
1539732505373681,-0.1741359578850994,0.9318379491874573,0.25604638742656594
1539732505389681,-0.17987335011825722,0.9359884031433587,0.25384908827344166
1539732505405681,-0.17401388570992582,0.9431906614785994,0.2511635004196231
1539732505421682,-0.17047379262989226,0.9455100328068973,0.25519188220035094
1539732505437682,-0.1698634317540244,0.9389181353475244,0.25812161440451664
1539732505453682,-0.17169451438162797,0.9331807431143666,0.2554360265506981
1539732505469682,-0.16876478217746227,0.9341573205157552,0.2532387273975738
1539732505485683,-0.16803234912642084,0.9370870527199209,0.25311665522240023
1539732505501683,-0.16937514305333012,0.9383077744716566,0.25604638742656594
1539732505517683,-0.17145037003128083,0.9431906614785994,0.25983062485694663
1539732505533683,-0.1732814526588844,0.942458228427558,0.25897611963073164
1539732505549684,-0.17462424658579367,0.9363546196688795,0.2583657587548638
1539732505565684,-0.17547875181200867,0.9319600213626309,0.2608072022583352
1539732505581684,-0.17608911268787653,0.9342793926909287,0.2611734187838559
1539732505597686,-0.1757228961623558,0.9355001144426645,0.2632486457618066
1539732505613687,-0.1782864118410008,0.9367208361944002,0.26483558403906304
1539732505629687,-0.17767605096513295,0.9395284962233923,0.26776531624322875
1539732505645687,-0.17755397878995938,0.9394064240482187,0.2666666666666666
1539732505661687,-0.17511253528648796,0.9397726405737394,0.2667887388418402
1539732505677688,-0.17401388570992582,0.936476691844053,0.26727702754253446
1539732505693688,-0.17303730830853725,0.9331807431143666,0.2661783779659723
1539732505709688,-0.17291523613336368,0.9319600213626309,0.26935225452048517
1539732505725689,-0.17181658655680154,0.9346456092164495,0.2675211718928816
1539732505741689,-0.17206073090714868,0.9355001144426645,0.26642252231631947
1539732505757689,-0.17096208133058655,0.9374532692454416,0.2650797283894102
1539732505773689,-0.17047379262989226,0.9375753414206152,0.2666666666666666
1539732505789690,-0.17132829785610726,0.9391622796978716,0.26691081101701375
1539732505805690,-0.1719386587319751,0.9400167849240866,0.26276035706111234
1539732505821690,-0.17047379262989226,0.9406271457999544,0.2642252231631952
1539732505837690,-0.1698634317540244,0.9400167849240866,0.2633707179369802
1539732505853691,-0.1690089265278094,0.9389181353475244,0.2637369344625009
1539732505869691,-0.16827649347676799,0.9375753414206152,0.26227206836041805
1539732505885691,-0.1707179369802394,0.9359884031433587,0.2595864805065995
1539732505901692,-0.16974135957885084,0.9368429083695737,0.2573891813534752
1539732505917724,-0.17010757610437155,0.9353780422674909,0.25934233615625235
1539732505933725,-0.17206073090714868,0.9350118257419702,0.25848783093003735
1539732505949725,-0.1707179369802394,0.9376974135957887,0.2575112535286488
1539732505965725,-0.1724269474326694,0.9405050736247809,0.2590981918059052
1539732505981725,-0.17303730830853725,0.9380636301213094,0.25897611963073164
1539732505997726,-0.17291523613336368,0.9341573205157552,0.2565346761272602
1539732506013726,-0.17560082398718224,0.9335469596398873,0.2594644083314259
1539732506029726,-0.17669947356374438,0.9348897535667966,0.2612954909590295
1539732506045726,-0.17596704051270295,0.9375753414206152,0.2633707179369802
1539732506061727,-0.17560082398718224,0.939894712748913,0.26178377965972377
1539732506077727,-0.17608911268787653,0.9409933623254751,0.26263828488593877
1539732506093727,-0.17291523613336368,0.9396505683985659,0.2620279240100709
1539732506109727,-0.1703517204547187,0.9395284962233923,0.2623941405355916
1539732506125728,-0.17010757610437155,0.9357442587930116,0.2625162127107652
1539732506141728,-0.17047379262989226,0.9337911039902345,0.26434729533836876
1539732506157728,-0.16998550392919798,0.9344014648661023,0.2628824292362859
1539732506173729,-0.16839856565194156,0.9348897535667966,0.2612954909590295
1539732506189729,-0.16888685435263584,0.9352559700923173,0.25970855268177306
1539732506205729,-0.17022964827954512,0.9353780422674909,0.26398107881284805
1539732506221729,-0.1707179369802394,0.9358663309681852,0.2633707179369802
1539732506237701,-0.1715724422064544,0.9375753414206152,0.25848783093003735
1539732506253701,-0.16925307087815655,0.9387960631723509,0.25775539787899593
1539732506269702,-0.17022964827954512,0.9384298466468302,0.2571450370031281
1539732506285702,-0.17047379262989226,0.9379415579461359,0.25848783093003735
1539732506301702,-0.17108415350576012,0.9383077744716566,0.26019684138246735
1539732506317702,-0.1732814526588844,0.9379415579461359,0.25885404745555807
1539732506333703,-0.1736476691844051,0.9385519188220037,0.25934233615625235
1539732506349703,-0.1724269474326694,0.9392843518730452,0.2637369344625009
1539732506365703,-0.17303730830853725,0.9392843518730452,0.2642252231631952
1539732506381703,-0.1762111848630501,0.9397726405737394,0.2637369344625009
1539732506397704,-0.1741359578850994,0.9444113832303351,0.2667887388418402
1539732506413704,-0.1774319066147858,0.9428244449530787,0.26263828488593877
1539732506429704,-0.17718776226443866,0.9348897535667966,0.2659342336156252
1539732506445705,-0.1795071335927365,0.9281757839322502,0.2671549553673609
1539732506461705,-0.1832913710231172,0.9279316395819031,0.2625162127107652
1539732506477705,-0.17560082398718224,0.9295185778591595,0.2625162127107652
1539732506493705,-0.17376974135957868,0.9336690318150609,0.2647135118638895
1539732506509706,-0.1770656900892651,0.9392843518730452,0.2633707179369802
1539732506525706,-0.17254901960784297,0.9402609292744337,0.26263828488593877
1539732506541706,-0.16620126649881728,0.9409933623254751,0.26520180056458376
1539732506557708,-0.1660791943236437,0.9411154345006487,0.2630045014114595
1539732506573709,-0.163149462119478,0.9387960631723509,0.26361486228732733
1539732506589709,-0.16290531776913086,0.9368429083695737,0.26141756313420306
1539732506605709,-0.1619287403677423,0.9365987640192266,0.26056305790798806
1539732506621709,-0.1627832455939573,0.935622186617838,0.2586099031052109
1539732506637710,-0.1636377508201723,0.9374532692454416,0.2583657587548638
1539732506653710,-0.16253910124361015,0.9391622796978716,0.25934233615625235
1539732506669710,-0.164003967345693,0.9430685893034259,0.25555809872587165
1539732506685711,-0.16803234912642084,0.9425803006027316,0.25726710917830165
1539732506701711,-0.1741359578850994,0.9420920119020373,0.25775539787899593
1539732506717711,-0.17462424658579367,0.9387960631723509,0.25934233615625235
1539732506733711,-0.18182650492103436,0.934767681391623,0.2566567483024338
1539732506749712,-0.18451209277485292,0.9342793926909287,0.2570229648279545
1539732506765712,-0.18365758754863792,0.9342793926909287,0.2599526970321202
1539732506781712,-0.18341344319829078,0.9361104753185323,0.25848783093003735
1539732506797712,-0.18390173189898507,0.9378194857709623,0.2586099031052109
1539732506813713,-0.18011749446860437,0.9370870527199209,0.26153963530937663
1539732506829713,-0.1774319066147858,0.9403830014496073,0.26398107881284805
1539732506845713,-0.17694361791409152,0.942458228427558,0.2659342336156252
1539732506861714,-0.1757228961623558,0.9369649805447473,0.2663004501411459
1539732506877716,-0.1749904631113144,0.9301289387350273,0.2649576562142366
1539732506893716,-0.17438010223544653,0.9298847943846802,0.2650797283894102
1539732506909716,-0.17486839093614082,0.9334248874647137,0.26398107881284805
1539732506925717,-0.1712062256809337,0.9358663309681852,0.26361486228732733
1539732506941717,-0.17267109178301654,0.9378194857709623,0.2628824292362859
1539732506957717,-0.17108415350576012,0.9389181353475244,0.2641031509880216
1539732506973717,-0.165712977798123,0.9414816510261694,0.2621499961852445
1539732506989718,-0.162294956893263,0.942458228427558,0.26361486228732733
1539732507005718,-0.1607080186160066,0.9395284962233923,0.2658121614404516
1539732507021718,-0.15826657511253517,0.9376974135957887,0.26349279011215376
1539732507037718,-0.15582513160906375,0.9368429083695737,0.2653238727397573
1539732507053719,-0.15887693598840302,0.9355001144426645,0.25934233615625235
1539732507069719,-0.16083009079118016,0.936476691844053,0.26153963530937663
1539732507085719,-0.1607080186160066,0.9375753414206152,0.2630045014114595
1539732507101719,-0.16559090562294942,0.937331197070268,0.2599526970321202
1539732507117720,-0.166567483024338,0.9387960631723509,0.2600747692072938
1539732507133720,-0.16754406042572656,0.9389181353475244,0.25812161440451664
1539732507149720,-0.1727931639581901,0.9379415579461359,0.25592431525139236
1539732507165721,-0.17291523613336368,0.9378194857709623,0.25690089265278093
1539732507181721,-0.17486839093614082,0.9384298466468302,0.25897611963073164
1539732507197692,-0.1782864118410008,0.9383077744716566,0.2592202639810788
1539732507213693,-0.17816433966582723,0.9394064240482187,0.2583657587548638
1539732507229693,-0.18048371099412508,0.9386739909971773,0.25799954222934307
1539732507245693,-0.18060578316929865,0.9376974135957887,0.25848783093003735
1539732507261694,-0.18023956664377794,0.9365987640192266,0.2582436865796902
1539732507277694,-0.18280308232242293,0.936476691844053,0.2578774700541695
1539732507293694,-0.1817044327458608,0.9397726405737394,0.25970855268177306
1539732507309694,-0.18219272144655507,0.9403830014496073,0.2586099031052109
1539732507325695,-0.18023956664377794,0.934767681391623,0.2608072022583352
1539732507341695,-0.17889677271686866,0.9342793926909287,0.26312657358663305
1539732507357695,-0.17730983443961224,0.9369649805447473,0.26276035706111234
1539732507373695,-0.17438010223544653,0.9391622796978716,0.2649576562142366
1539732507389696,-0.17425803006027296,0.9396505683985659,0.2667887388418402
1539732507405696,-0.17096208133058655,0.9384298466468302,0.26556801709010447
1539732507421696,-0.16791027695124727,0.9375753414206152,0.26569008926527804
1539732507437697,-0.16644541084916442,0.9363546196688795,0.2616617074845502
1539732507453697,-0.165712977798123,0.9357442587930116,0.2609292744335088
1539732507469697,-0.16437018387121372,0.9379415579461359,0.26105134660868234
1539732507485697,-0.16498054474708157,0.9376974135957887,0.26141756313420306
1539732507501698,-0.16668955519951156,0.937331197070268,0.25812161440451664
1539732507517730,-0.16644541084916442,0.9387960631723509,0.2594644083314259
1539732507533731,-0.16705577172503228,0.9396505683985659,0.2616617074845502
1539732507549731,-0.16791027695124727,0.9396505683985659,0.26190585183489734
1539732507565731,-0.1690089265278094,0.9387960631723509,0.2590981918059052
1539732507581731,-0.16876478217746227,0.9392843518730452,0.2600747692072938
1539732507597732,-0.17145037003128083,0.9367208361944002,0.25677882047760736
1539732507613732,-0.1724269474326694,0.9346456092164495,0.26068513008316163
1539732507629732,-0.17145037003128083,0.9335469596398873,0.26056305790798806
1539732507645733,-0.17474631876096725,0.9344014648661023,0.2582436865796902
1539732507661733,-0.1677882047760737,0.9380636301213094,0.25690089265278093
1539732507677733,-0.16827649347676799,0.940749217975128,0.2590981918059052
1539732507693733,-0.16937514305333012,0.9386739909971773,0.25506981002517737
1539732507709734,-0.16852063782711513,0.9378194857709623,0.25641260395208665
1539732507725734,-0.1694972152285037,0.9402609292744337,0.25934233615625235
1539732507741734,-0.17230487525749583,0.9431906614785994,0.2603189135576409
1539732507757734,-0.17096208133058655,0.9419699397268637,0.26153963530937663
1539732507773735,-0.17132829785610726,0.9352559700923173,0.2609292744335088
1539732507789735,-0.17462424658579367,0.9345235370412759,0.26178377965972377
1539732507805735,-0.17767605096513295,0.9333028152895402,0.26227206836041805
1539732507821735,-0.17682154573891795,0.935622186617838,0.2632486457618066
1539732507837738,-0.17730983443961224,0.9365987640192266,0.26263828488593877
1539732507853738,-0.17511253528648796,0.9389181353475244,0.2625162127107652
1539732507869738,-0.1732814526588844,0.9397726405737394,0.26019684138246735
1539732507885738,-0.16937514305333012,0.9408712901503016,0.25726710917830165
1539732507901739,-0.16815442130159441,0.941603723201343,0.26178377965972377
1539732507917739,-0.16754406042572656,0.9386739909971773,0.26141756313420306
1539732507933739,-0.16668955519951156,0.936476691844053,0.2600747692072938
1539732507949740,-0.16534676127260228,0.9367208361944002,0.25677882047760736
1539732507965740,-0.16412603952086657,0.9378194857709623,0.25763332570382236
1539732507981740,-0.16546883344777585,0.9387960631723509,0.25775539787899593
1539732507997740,-0.16681162737468513,0.9383077744716566,0.25775539787899593
1539732508013741,-0.16937514305333012,0.939040207522698,0.25812161440451664
1539732508029741,-0.16974135957885084,0.939040207522698,0.25775539787899593
1539732508045741,-0.17206073090714868,0.9389181353475244,0.25799954222934307
1539732508061741,-0.1707179369802394,0.9372091248950944,0.25641260395208665
1539732508077742,-0.1724269474326694,0.939040207522698,0.2599526970321202
1539732508093742,-0.1727931639581901,0.9409933623254751,0.2611734187838559
1539732508109742,-0.17511253528648796,0.942458228427558,0.2608072022583352
1539732508125743,-0.17560082398718224,0.9380636301213094,0.2592202639810788
1539732508141743,-0.17718776226443866,0.9375753414206152,0.25690089265278093
1539732508157714,-0.17584496833752938,0.9365987640192266,0.2586099031052109
1539732508173715,-0.17730983443961224,0.935622186617838,0.2600747692072938
1539732508189715,-0.17755397878995938,0.9380636301213094,0.25885404745555807
1539732508205715,-0.17633325703822367,0.9336690318150609,0.2587319752803845
1539732508221716,-0.1770656900892651,0.9346456092164495,0.2586099031052109
1539732508237716,-0.17962920576791008,0.9384298466468302,0.2583657587548638
1539732508253716,-0.18023956664377794,0.9420920119020373,0.2583657587548638
1539732508269716,-0.1774319066147858,0.9414816510261694,0.2594644083314259
1539732508285717,-0.17718776226443866,0.9374532692454416,0.25799954222934307
1539732508301717,-0.1703517204547187,0.9378194857709623,0.25726710917830165
1539732508317717,-0.16681162737468513,0.9402609292744337,0.25262836652170595
1539732508333717,-0.1636377508201723,0.9418478675516901,0.2549477378500038
1539732508349718,-0.16253910124361015,0.9400167849240866,0.25885404745555807
1539732508365718,-0.16351567864499872,0.9389181353475244,0.26312657358663305
1539732508381718,-0.163149462119478,0.9386739909971773,0.26276035706111234
1539732508397719,-0.16424811169604014,0.940749217975128,0.26227206836041805
1539732508413719,-0.16632333867399085,0.942458228427558,0.26227206836041805
1539732508429719,-0.1669336995498587,0.9425803006027316,0.26361486228732733
1539732508445719,-0.16754406042572656,0.9430685893034259,0.26190585183489734
1539732508461720,-0.1669336995498587,0.9423361562523844,0.2586099031052109
1539732508477722,-0.16888685435263584,0.9401388570992602,0.2553139543755245
1539732508493722,-0.1694972152285037,0.9370870527199209,0.2609292744335088
1539732508509722,-0.1719386587319751,0.9334248874647137,0.2587319752803845
1539732508525723,-0.1732814526588844,0.936476691844053,0.2566567483024338
1539732508541723,-0.17181658655680154,0.9369649805447473,0.2586099031052109
1539732508557723,-0.1732814526588844,0.9385519188220037,0.25726710917830165
1539732508573723,-0.1749904631113144,0.938185702296483,0.25970855268177306
1539732508589724,-0.17254901960784297,0.9375753414206152,0.2554360265506981
1539732508605724,-0.17730983443961224,0.9400167849240866,0.25604638742656594
1539732508621724,-0.17755397878995938,0.9389181353475244,0.25763332570382236
1539732508637725,-0.17694361791409152,0.9331807431143666,0.2573891813534752
1539732508653725,-0.18023956664377794,0.9307392996108952,0.2586099031052109
1539732508669725,-0.17962920576791008,0.9308613717860688,0.25763332570382236
1539732508685725,-0.1791409170672158,0.9363546196688795,0.2558022430762188
1539732508701726,-0.17804226749065366,0.9420920119020373,0.2575112535286488
1539732508717726,-0.17682154573891795,0.9438010223544673,0.25604638742656594
1539732508733726,-0.17486839093614082,0.945021744106203,0.25555809872587165
1539732508749726,-0.17218280308232226,0.9422140840772109,0.25433737697413594
1539732508765727,-0.17084000915541298,0.9380636301213094,0.2537270160982681
1539732508781727,-0.16974135957885084,0.9334248874647137,0.2553139543755245
1539732508797729,-0.17010757610437155,0.9335469596398873,0.2562905317769131
1539732508813729,-0.1690089265278094,0.934767681391623,0.25690089265278093
1539732508829730,-0.16815442130159441,0.9370870527199209,0.2548256656748302
1539732508845730,-0.16839856565194156,0.9406271457999544,0.2556801709010452
1539732508861730,-0.16681162737468513,0.9396505683985659,0.2558022430762188
1539732508877730,-0.16668955519951156,0.9400167849240866,0.2561684596017395
1539732508893731,-0.165712977798123,0.9403830014496073,0.2590981918059052
1539732508909731,-0.16717784390020585,0.940749217975128,0.2573891813534752
1539732508925731,-0.167421988250553,0.9385519188220037,0.2590981918059052
1539732508941732,-0.17108415350576012,0.9389181353475244,0.26056305790798806
1539732508957732,-0.1703517204547187,0.9403830014496073,0.2632486457618066
1539732508973732,-0.16827649347676799,0.9409933623254751,0.2621499961852445
1539732508989732,-0.17084000915541298,0.9401388570992602,0.2637369344625009
1539732509005733,-0.17108415350576012,0.9394064240482187,0.2620279240100709
1539732509021733,-0.17145037003128083,0.937331197070268,0.26178377965972377
1539732509037733,-0.17303730830853725,0.9363546196688795,0.2616617074845502
1539732509053733,-0.17755397878995938,0.9405050736247809,0.26349279011215376
1539732509069734,-0.1795071335927365,0.941603723201343,0.2666666666666666
1539732509085734,-0.18146028839551365,0.9380636301213094,0.2661783779659723
1539732509101734,-0.18097199969481936,0.9352559700923173,0.2641031509880216
1539732509117706,-0.18353551537346435,0.933058670939193,0.26178377965972377
1539732509133706,-0.18402380407415864,0.9350118257419702,0.2632486457618066
1539732509149706,-0.18268101014724936,0.9378194857709623,0.2654459449149309
1539732509165707,-0.18072785534447222,0.9386739909971773,0.2594644083314259
1539732509181707,-0.17853055619134794,0.9369649805447473,0.2558022430762188
1539732509197707,-0.1745021744106201,0.937331197070268,0.25726710917830165
1539732509213708,-0.17145037003128083,0.9367208361944002,0.2549477378500038
1539732509229708,-0.16913099870298298,0.9367208361944002,0.2532387273975738
1539732509245708,-0.1660791943236437,0.9391622796978716,0.25128557259479667
1539732509261708,-0.16412603952086657,0.9379415579461359,0.2516517891203174
1539732509277709,-0.16510261692225514,0.9376974135957887,0.2510414282444495
1539732509293709,-0.16388189517051943,0.9394064240482187,0.25262836652170595
1539732509309709,-0.1644922560463873,0.9387960631723509,0.2532387273975738
1539732509325709,-0.16351567864499872,0.9391622796978716,0.2511635004196231
1539732509341710,-0.16351567864499872,0.9384298466468302,0.25226214999618524
1539732509357710,-0.16424811169604014,0.9409933623254751,0.25470359349965666
1539732509373710,-0.167421988250553,0.9397726405737394,0.2558022430762188
1539732509389711,-0.16705577172503228,0.9395284962233923,0.2586099031052109
1539732509405711,-0.16925307087815655,0.9384298466468302,0.25934233615625235
1539732509421711,-0.17547875181200867,0.9397726405737394,0.25934233615625235
1539732509437744,-0.17608911268787653,0.9392843518730452,0.25897611963073164
1539732509453744,-0.17694361791409152,0.9387960631723509,0.2612954909590295
1539732509469744,-0.17474631876096725,0.9357442587930116,0.26276035706111234
1539732509485745,-0.17669947356374438,0.934767681391623,0.26190585183489734
1539732509501745,-0.17840848401617437,0.9396505683985659,0.26605630579079875
1539732509517745,-0.17975127794308365,0.9403830014496073,0.2670328831921873
1539732509533745,-0.17865262836652152,0.937331197070268,0.2637369344625009
1539732509549746,-0.1782864118410008,0.9329365987640195,0.26776531624322875
1539732509565746,-0.17901884489204223,0.9352559700923173,0.2666666666666666
1539732509581746,-0.17901884489204223,0.9374532692454416,0.26947432669565874
1539732509597746,-0.17584496833752938,0.9391622796978716,0.26691081101701375
1539732509613747,-0.1749904631113144,0.9414816510261694,0.2633707179369802
1539732509629747,-0.1724269474326694,0.9430685893034259,0.2625162127107652
1539732509645747,-0.16925307087815655,0.9413595788509959,0.26019684138246735
1539732509661748,-0.1677882047760737,0.9394064240482187,0.2595864805065995
1539732509677748,-0.16620126649881728,0.9376974135957887,0.2590981918059052
1539732509693748,-0.16632333867399085,0.9362325474937059,0.2571450370031281
1539732509709748,-0.16510261692225514,0.9379415579461359,0.25677882047760736
1539732509725749,-0.16583504997329657,0.9391622796978716,0.25421530479896237
1539732509741749,-0.16510261692225514,0.9370870527199209,0.2540932326237888
1539732509757751,-0.1677882047760737,0.9370870527199209,0.25592431525139236
1539732509773751,-0.16644541084916442,0.9384298466468302,0.25604638742656594
1539732509789752,-0.1686427100022887,0.9385519188220037,0.25433737697413594
1539732509805752,-0.17096208133058655,0.9395284962233923,0.2549477378500038
1539732509821752,-0.17169451438162797,0.9389181353475244,0.2558022430762188
1539732509837752,-0.17096208133058655,0.938185702296483,0.2583657587548638
1539732509853753,-0.1732814526588844,0.9384298466468302,0.2578774700541695
1539732509869753,-0.17474631876096725,0.9384298466468302,0.2583657587548638
1539732509885753,-0.17608911268787653,0.938185702296483,0.25555809872587165
1539732509901754,-0.1765774013885708,0.937331197070268,0.2570229648279545
1539732509917754,-0.1757228961623558,0.9341573205157552,0.25885404745555807
1539732509933754,-0.17547875181200867,0.9350118257419702,0.2558022430762188
1539732509949754,-0.17523460746166153,0.9400167849240866,0.25885404745555807
1539732509965755,-0.17474631876096725,0.9412375066758223,0.2608072022583352
1539732509981755,-0.17462424658579367,0.9357442587930116,0.2612954909590295
1539732509997755,-0.1741359578850994,0.9335469596398873,0.26446936751354233
1539732510013755,-0.1732814526588844,0.933913176165408,0.2645914396887159
1539732510029756,-0.1732814526588844,0.9367208361944002,0.2675211718928816
1539732510045756,-0.17315938048371082,0.9384298466468302,0.2695963988708323
1539732510061756,-0.17315938048371082,0.9413595788509959,0.26727702754253446
1539732510077728,-0.16888685435263584,0.941603723201343,0.2663004501411459
1539732510093728,-0.16791027695124727,0.9387960631723509,0.26446936751354233
1539732510109728,-0.16668955519951156,0.9370870527199209,0.26434729533836876
1539732510125729,-0.16534676127260228,0.9351338979171437,0.26056305790798806
1539732510141729,-0.16668955519951156,0.934767681391623,0.26227206836041805
1539732510157729,-0.16546883344777585,0.9365987640192266,0.2594644083314259
1539732510173730,-0.166567483024338,0.9387960631723509,0.25983062485694663
1539732510189730,-0.16510261692225514,0.9386739909971773,0.25690089265278093
1539732510205730,-0.16766613260090013,0.9376974135957887,0.2562905317769131
1539732510221730,-0.16815442130159441,0.9383077744716566,0.2587319752803845
1539732510237731,-0.1698634317540244,0.9394064240482187,0.25506981002517737
1539732510253731,-0.16961928740367727,0.9396505683985659,0.25604638742656594
1539732510269731,-0.17291523613336368,0.9397726405737394,0.2562905317769131
1539732510285731,-0.17401388570992582,0.9385519188220037,0.25775539787899593
1539732510301732,-0.17474631876096725,0.9403830014496073,0.2570229648279545
1539732510317732,-0.1745021744106201,0.9409933623254751,0.25348287174792095
1539732510333732,-0.1745021744106201,0.9396505683985659,0.2583657587548638
1539732510349733,-0.17608911268787653,0.9387960631723509,0.2573891813534752
1539732510365733,-0.17560082398718224,0.935622186617838,0.25885404745555807
1539732510381733,-0.17462424658579367,0.934767681391623,0.2575112535286488
1539732510397735,-0.17584496833752938,0.9361104753185323,0.25934233615625235
1539732510413735,-0.17376974135957868,0.9405050736247809,0.26068513008316163
1539732510429736,-0.17315938048371082,0.9395284962233923,0.25983062485694663
1539732510445736,-0.17291523613336368,0.9318379491874573,0.2612954909590295
1539732510461736,-0.17206073090714868,0.9282978561074238,0.26312657358663305
1539732510477737,-0.1736476691844051,0.9324483100633252,0.2633707179369802
1539732510493737,-0.17096208133058655,0.938185702296483,0.2659342336156252
1539732510509737,-0.17181658655680154,0.9422140840772109,0.2666666666666666
1539732510525737,-0.17145037003128083,0.9431906614785994,0.2649576562142366
1539732510541738,-0.16791027695124727,0.9436789501792937,0.26141756313420306
1539732510557738,-0.16668955519951156,0.9408712901503016,0.26178377965972377
1539732510573738,-0.165712977798123,0.936476691844053,0.2616617074845502
1539732510589738,-0.16388189517051943,0.933913176165408,0.2633707179369802
1539732510605739,-0.1636377508201723,0.9329365987640195,0.2599526970321202
1539732510621739,-0.16534676127260228,0.9361104753185323,0.25812161440451664
1539732510637739,-0.16559090562294942,0.9384298466468302,0.2570229648279545
1539732510653740,-0.16583504997329657,0.940749217975128,0.25641260395208665
1539732510669740,-0.1694972152285037,0.9412375066758223,0.2571450370031281
1539732510685740,-0.16998550392919798,0.9394064240482187,0.2570229648279545
1539732510701740,-0.1690089265278094,0.9391622796978716,0.2562905317769131
1539732510717743,-0.17169451438162797,0.9355001144426645,0.2556801709010452
1539732510733743,-0.17315938048371082,0.9350118257419702,0.2533607995727474
1539732510749743,-0.17340352483405796,0.9363546196688795,0.25677882047760736
1539732510765743,-0.1749904631113144,0.9389181353475244,0.2582436865796902
1539732510781744,-0.1762111848630501,0.9376974135957887,0.2561684596017395
1539732510797744,-0.17608911268787653,0.936476691844053,0.2592202639810788
1539732510813744,-0.1782864118410008,0.9357442587930116,0.2599526970321202
1539732510829744,-0.17694361791409152,0.937331197070268,0.25799954222934307
1539732510845745,-0.17425803006027296,0.9385519188220037,0.2594644083314259
1539732510861745,-0.17560082398718224,0.9418478675516901,0.2628824292362859
1539732510877745,-0.1762111848630501,0.9445334554055087,0.2630045014114595
1539732510893746,-0.17438010223544653,0.9383077744716566,0.26398107881284805
1539732510909746,-0.1741359578850994,0.9320820935378045,0.2649576562142366
1539732510925746,-0.17438010223544653,0.9320820935378045,0.2637369344625009
1539732510941746,-0.1741359578850994,0.9341573205157552,0.26398107881284805
1539732510957747,-0.17206073090714868,0.9386739909971773,0.26813153276874946
1539732510973747,-0.17315938048371082,0.9405050736247809,0.2663004501411459
1539732510989747,-0.16925307087815655,0.9430685893034259,0.2650797283894102
1539732511005747,-0.16681162737468513,0.9431906614785994,0.2628824292362859
1539732511021748,-0.16644541084916442,0.9411154345006487,0.2603189135576409
1539732511037780,-0.16437018387121372,0.9379415579461359,0.26153963530937663
1539732511053781,-0.164003967345693,0.933058670939193,0.2599526970321202
1539732511069781,-0.1610742351415273,0.934767681391623,0.2600747692072938
1539732511085781,-0.16290531776913086,0.9351338979171437,0.25726710917830165
1539732511101781,-0.16351567864499872,0.9378194857709623,0.2582436865796902
1539732511117782,-0.1652246890974287,0.9397726405737394,0.26019684138246735
1539732511133782,-0.16620126649881728,0.9414816510261694,0.2586099031052109
1539732511149782,-0.16559090562294942,0.9418478675516901,0.25677882047760736
1539732511165783,-0.16620126649881728,0.9411154345006487,0.2553139543755245
1539732511181783,-0.16766613260090013,0.9365987640192266,0.25934233615625235
1539732511197783,-0.16888685435263584,0.9363546196688795,0.25897611963073164
1539732511213783,-0.17084000915541298,0.9362325474937059,0.25897611963073164
1539732511229784,-0.1724269474326694,0.9365987640192266,0.25897611963073164
1539732511245784,-0.17389181353475225,0.9368429083695737,0.2594644083314259
1539732511261784,-0.17486839093614082,0.9384298466468302,0.2630045014114595
1539732511277784,-0.1757228961623558,0.9376974135957887,0.26105134660868234
1539732511293785,-0.17596704051270295,0.9376974135957887,0.26056305790798806
1539732511309785,-0.17608911268787653,0.9418478675516901,0.2586099031052109
1539732511325785,-0.1753566796368351,0.9419699397268637,0.26056305790798806
1539732511341786,-0.17694361791409152,0.9351338979171437,0.26483558403906304
1539732511357757,-0.1765774013885708,0.9307392996108952,0.2666666666666666
1539732511373757,-0.1765774013885708,0.9315938048371102,0.2625162127107652
1539732511389758,-0.17511253528648796,0.9353780422674909,0.26398107881284805
1539732511405758,-0.1715724422064544,0.9389181353475244,0.26312657358663305
1539732511421758,-0.1703517204547187,0.9396505683985659,0.2630045014114595
1539732511437759,-0.16534676127260228,0.941603723201343,0.2623941405355916
1539732511453759,-0.16339360646982515,0.9409933623254751,0.25934233615625235
1539732511469759,-0.16119630731670087,0.938185702296483,0.2586099031052109
1539732511485759,-0.1619287403677423,0.934767681391623,0.25885404745555807
1539732511501760,-0.16156252384222158,0.936476691844053,0.2592202639810788
1539732511517760,-0.16217288471808944,0.939040207522698,0.25848783093003735
1539732511533760,-0.16217288471808944,0.9411154345006487,0.25897611963073164
1539732511549760,-0.16583504997329657,0.9414816510261694,0.2621499961852445
1539732511565761,-0.1652246890974287,0.9414816510261694,0.25848783093003735
1539732511581761,-0.16729991607537942,0.9385519188220037,0.2578774700541695
1539732511597761,-0.16925307087815655,0.9361104753185323,0.2565346761272602
1539732511613762,-0.17108415350576012,0.934767681391623,0.25848783093003735
1539732511629762,-0.17315938048371082,0.9342793926909287,0.25934233615625235
1539732511645762,-0.17730983443961224,0.9363546196688795,0.2603189135576409
1539732511661762,-0.1770656900892651,0.9376974135957887,0.2594644083314259
1539732511677765,-0.17718776226443866,0.937331197070268,0.26276035706111234
1539732511693765,-0.17962920576791008,0.9380636301213094,0.26349279011215376
1539732511709765,-0.17816433966582723,0.9378194857709623,0.2632486457618066
1539732511725765,-0.17755397878995938,0.9380636301213094,0.26190585183489734
1539732511741766,-0.1782864118410008,0.9411154345006487,0.26398107881284805
1539732511757766,-0.17645532921339724,0.9427023727779051,0.26141756313420306
1539732511773766,-0.1762111848630501,0.9384298466468302,0.2630045014114595
1539732511789766,-0.17523460746166153,0.9314717326619366,0.2637369344625009
1539732511805767,-0.17511253528648796,0.9314717326619366,0.2649576562142366
1539732511821767,-0.17230487525749583,0.9335469596398873,0.26312657358663305
1539732511837767,-0.1686427100022887,0.9394064240482187,0.26434729533836876
1539732511853767,-0.16815442130159441,0.9401388570992602,0.2654459449149309
1539732511869768,-0.1660791943236437,0.9400167849240866,0.2638590066376745
1539732511885768,-0.1607080186160066,0.9409933623254751,0.2654459449149309
1539732511901768,-0.15997558556496516,0.9409933623254751,0.2620279240100709
1539732511917769,-0.1610742351415273,0.9387960631723509,0.2611734187838559
1539732511933769,-0.16083009079118016,0.9367208361944002,0.2620279240100709
1539732511949769,-0.16217288471808944,0.9342793926909287,0.25812161440451664
1539732511965769,-0.164003967345693,0.9363546196688795,0.26056305790798806
1539732511981770,-0.164858472571908,0.9359884031433587,0.2575112535286488
1539732511997772,-0.16668955519951156,0.9357442587930116,0.2604409857328145
1539732512013772,-0.16766613260090013,0.9369649805447473,0.2561684596017395
1539732512029772,-0.16913099870298298,0.9365987640192266,0.2556801709010452
1539732512045773,-0.17022964827954512,0.9374532692454416,0.2566567483024338
1539732512061773,-0.17438010223544653,0.9376974135957887,0.2575112535286488
1539732512077773,-0.1757228961623558,0.9379415579461359,0.26019684138246735
1539732512093773,-0.1782864118410008,0.9387960631723509,0.2595864805065995
1539732512109774,-0.17596704051270295,0.940749217975128,0.26312657358663305
1539732512125774,-0.17596704051270295,0.939040207522698,0.2616617074845502
1539732512141774,-0.17523460746166153,0.9363546196688795,0.2623941405355916
1539732512157775,-0.17755397878995938,0.9357442587930116,0.26446936751354233
1539732512173775,-0.1757228961623558,0.9403830014496073,0.26556801709010447
1539732512189775,-0.1757228961623558,0.9430685893034259,0.26776531624322875
1539732512205775,-0.17425803006027296,0.9365987640192266,0.26825360494392303
1539732512221776,-0.17376974135957868,0.931349660486763,0.26642252231631947
1539732512237776,-0.1741359578850994,0.9309834439612423,0.2666666666666666
1539732512253776,-0.1727931639581901,0.933058670939193,0.26642252231631947
1539732512269776,-0.16888685435263584,0.9362325474937059,0.2637369344625009
1539732512285777,-0.16766613260090013,0.9368429083695737,0.2637369344625009
1539732512301777,-0.166567483024338,0.9391622796978716,0.26361486228732733
1539732512317749,-0.1644922560463873,0.9434348058289466,0.26446936751354233
1539732512333749,-0.16375982299534586,0.9442893110551616,0.2609292744335088
1539732512349749,-0.1652246890974287,0.9405050736247809,0.2603189135576409
1539732512365749,-0.164003967345693,0.9385519188220037,0.26263828488593877
1539732512381750,-0.164858472571908,0.9358663309681852,0.2604409857328145
1539732512397750,-0.16510261692225514,0.9353780422674909,0.25885404745555807
1539732512413750,-0.16717784390020585,0.9331807431143666,0.2586099031052109
1539732512429751,-0.16803234912642084,0.9335469596398873,0.2561684596017395
1539732512445751,-0.16961928740367727,0.9370870527199209,0.2536049439230945
1539732512461751,-0.17022964827954512,0.9361104753185323,0.2527504386968795
1539732512477751,-0.1712062256809337,0.9344014648661023,0.2528725108720531
1539732512493752,-0.17303730830853725,0.9353780422674909,0.25506981002517737
1539732512509752,-0.1732814526588844,0.9340352483405816,0.2553139543755245
1539732512525752,-0.17169451438162797,0.9378194857709623,0.25397116044861523
1539732512541752,-0.17169451438162797,0.9408712901503016,0.2566567483024338
1539732512557753,-0.17059586480506583,0.9420920119020373,0.25763332570382236
1539732512573753,-0.17108415350576012,0.9419699397268637,0.2600747692072938
1539732512589753,-0.17096208133058655,0.9423361562523844,0.2621499961852445
1539732512605754,-0.17108415350576012,0.9478294041351951,0.2659342336156252
1539732512621754,-0.17254901960784297,0.9448996719310294,0.26642252231631947
1539732512637756,-0.17523460746166153,0.9357442587930116,0.2671549553673609
1539732512653756,-0.1774319066147858,0.9291523613336388,0.26947432669565874
1539732512669757,-0.17938506141756294,0.9269550621805145,0.269108110170138
1539732512685757,-0.1787747005416951,0.9298847943846802,0.2658121614404516
1539732512701757,-0.17962920576791008,0.935622186617838,0.26483558403906304
1539732512717757,-0.1803616388189515,0.9422140840772109,0.2688639658197909
1539732512733758,-0.17804226749065366,0.945021744106203,0.271671625848783
1539732512749758,-0.17584496833752938,0.9440451667048144,0.26739909971770803
1539732512765758,-0.17511253528648796,0.9408712901503016,0.26654459449149304
1539732512781758,-0.17181658655680154,0.9363546196688795,0.26691081101701375
1539732512797759,-0.16827649347676799,0.9331807431143666,0.26556801709010447
1539732512813759,-0.165712977798123,0.934767681391623,0.26434729533836876
1539732512829759,-0.16339360646982515,0.9363546196688795,0.2637369344625009
1539732512845759,-0.1602197299153123,0.9375753414206152,0.25799954222934307
1539732512861760,-0.15912108033875016,0.9367208361944002,0.2583657587548638
1539732512877760,-0.15826657511253517,0.9358663309681852,0.2565346761272602
1539732512893760,-0.15777828641184088,0.9345235370412759,0.2533607995727474
1539732512909761,-0.15875486381322945,0.9350118257419702,0.2549477378500038
1539732512925761,-0.16009765774013873,0.9346456092164495,0.2527504386968795
1539732512941761,-0.16046387426565945,0.9352559700923173,0.2545815213244831
1539732512957794,-0.16046387426565945,0.9384298466468302,0.25348287174792095
1539732512973794,-0.16009765774013873,0.9402609292744337,0.2548256656748302
1539732512989794,-0.1619287403677423,0.9419699397268637,0.2527504386968795
1539732513005795,-0.16461432822156086,0.9439230945296408,0.25433737697413594
1539732513021795,-0.16827649347676799,0.9438010223544673,0.25519188220035094
1539732513037795,-0.17096208133058655,0.9464866102082858,0.2571450370031281
1539732513053795,-0.17401388570992582,0.9425803006027316,0.25812161440451664
1539732513069796,-0.1787747005416951,0.9359884031433587,0.26141756313420306
1539732513085796,-0.1829251544975965,0.9312275883115895,0.2649576562142366
1539732513101796,-0.18524452582589435,0.930495155260548,0.26654459449149304
1539732513117797,-0.18841840238040763,0.9346456092164495,0.2661783779659723
1539732513133797,-0.1881742580300605,0.9389181353475244,0.26984054322117945
1539732513149797,-0.18841840238040763,0.9395284962233923,0.2658121614404516
1539732513165797,-0.1850003814755472,0.939040207522698,0.2661783779659723
1539732513181798,-0.18304722667277007,0.9370870527199209,0.2658121614404516
1539732513197798,-0.1787747005416951,0.9351338979171437,0.26361486228732733
1539732513213798,-0.17596704051270295,0.9369649805447473,0.2645914396887159
1539732513229798,-0.1727931639581901,0.936476691844053,0.2638590066376745
1539732513245799,-0.16961928740367727,0.9363546196688795,0.2621499961852445
1539732513261799,-0.16583504997329657,0.9378194857709623,0.2623941405355916
1539732513277771,-0.16253910124361015,0.9383077744716566,0.26190585183489734
1539732513293771,-0.16241702906843658,0.9405050736247809,0.2603189135576409
1539732513309771,-0.16083009079118016,0.941603723201343,0.2611734187838559
1539732513325771,-0.16058594644083302,0.941603723201343,0.25934233615625235
1539732513341772,-0.16119630731670087,0.9403830014496073,0.25885404745555807
1539732513357772,-0.1610742351415273,0.9391622796978716,0.2578774700541695
1539732513373772,-0.16168459601739515,0.9387960631723509,0.2583657587548638
1539732513389773,-0.1644922560463873,0.9375753414206152,0.2573891813534752
1539732513405773,-0.16339360646982515,0.938185702296483,0.2566567483024338
1539732513421773,-0.16632333867399085,0.9397726405737394,0.25677882047760736
1539732513437773,-0.16839856565194156,0.9394064240482187,0.2594644083314259
1539732513453774,-0.17022964827954512,0.9401388570992602,0.2583657587548638
1539732513469774,-0.17303730830853725,0.9401388570992602,0.25970855268177306
1539732513485774,-0.17389181353475225,0.9418478675516901,0.26141756313420306
1539732513501774,-0.1745021744106201,0.9414816510261694,0.2623941405355916
1539732513517775,-0.17608911268787653,0.9333028152895402,0.26398107881284805
1539732513533775,-0.17669947356374438,0.9308613717860688,0.26190585183489734
1539732513549775,-0.1779201953154801,0.9306172274357216,0.2638590066376745
1539732513565775,-0.17718776226443866,0.9320820935378045,0.2630045014114595
1539732513581776,-0.1757228961623558,0.9361104753185323,0.2661783779659723
1539732513597778,-0.1741359578850994,0.9391622796978716,0.2637369344625009
1539732513613778,-0.1724269474326694,0.940749217975128,0.2609292744335088
1539732513629778,-0.16791027695124727,0.940749217975128,0.2592202639810788
1539732513645779,-0.1660791943236437,0.9391622796978716,0.2592202639810788
1539732513661779,-0.1644922560463873,0.935622186617838,0.2592202639810788
1539732513677779,-0.16339360646982515,0.9357442587930116,0.25897611963073164
1539732513693780,-0.16534676127260228,0.9385519188220037,0.2587319752803845
1539732513709780,-0.16681162737468513,0.9419699397268637,0.25848783093003735
1539732513725780,-0.16559090562294942,0.9430685893034259,0.26263828488593877
1539732513741780,-0.16595712214847014,0.942458228427558,0.2595864805065995
1539732513757781,-0.16998550392919798,0.9411154345006487,0.2595864805065995
1539732513773781,-0.1698634317540244,0.9409933623254751,0.25983062485694663
1539732513789781,-0.16998550392919798,0.9395284962233923,0.26068513008316163
1539732513805781,-0.1712062256809337,0.9369649805447473,0.2594644083314259
1539732513821782,-0.17303730830853725,0.9342793926909287,0.25934233615625235
1539732513837782,-0.17206073090714868,0.9340352483405816,0.2611734187838559
1539732513853782,-0.16913099870298298,0.9379415579461359,0.2632486457618066
1539732513869783,-0.17059586480506583,0.9385519188220037,0.26153963530937663
1539732513885783,-0.17254901960784297,0.9400167849240866,0.2645914396887159
1539732513901783,-0.16961928740367727,0.9395284962233923,0.2663004501411459
1539732513917785,-0.1732814526588844,0.9378194857709623,0.26349279011215376
1539732513933786,-0.17145037003128083,0.9409933623254751,0.26691081101701375
1539732513949786,-0.17010757610437155,0.9401388570992602,0.2663004501411459
1539732513965786,-0.16998550392919798,0.935622186617838,0.26483558403906304
1539732513981786,-0.16998550392919798,0.9346456092164495,0.26605630579079875
1539732513997787,-0.1703517204547187,0.9333028152895402,0.26569008926527804
1539732514013787,-0.16852063782711513,0.9361104753185323,0.26398107881284805
1539732514029787,-0.16705577172503228,0.9392843518730452,0.2647135118638895
1539732514045787,-0.16925307087815655,0.9374532692454416,0.2633707179369802
1539732514061788,-0.17096208133058655,0.936476691844053,0.2595864805065995
1539732514077788,-0.162294956893263,0.9401388570992602,0.26263828488593877
1539732514093788,-0.162294956893263,0.9403830014496073,0.2604409857328145
1539732514109789,-0.16510261692225514,0.9342793926909287,0.25677882047760736
1539732514125789,-0.16546883344777585,0.9325703822384988,0.2570229648279545
1539732514141789,-0.16473640039673443,0.9334248874647137,0.25775539787899593
1539732514157789,-0.16632333867399085,0.9348897535667966,0.25433737697413594
1539732514173790,-0.1686427100022887,0.9385519188220037,0.2527504386968795
1539732514189790,-0.16937514305333012,0.9387960631723509,0.25555809872587165
1539732514205790,-0.1703517204547187,0.9412375066758223,0.25506981002517737
1539732514221790,-0.17181658655680154,0.941603723201343,0.25604638742656594
1539732514237762,-0.17462424658579367,0.9419699397268637,0.2595864805065995
1539732514253762,-0.1749904631113144,0.9422140840772109,0.25812161440451664
1539732514269763,-0.1774319066147858,0.9411154345006487,0.2612954909590295
1539732514285763,-0.17608911268787653,0.9394064240482187,0.2654459449149309
1539732514301763,-0.17560082398718224,0.9367208361944002,0.2632486457618066
1539732514317763,-0.1753566796368351,0.9353780422674909,0.26190585183489734
1539732514333764,-0.17560082398718224,0.9335469596398873,0.25983062485694663
1539732514349764,-0.17254901960784297,0.9306172274357216,0.26263828488593877
1539732514365764,-0.17523460746166153,0.9324483100633252,0.26483558403906304
1539732514381765,-0.17486839093614082,0.939894712748913,0.26556801709010447
1539732514397765,-0.1703517204547187,0.9417257953765166,0.2659342336156252
1539732514413765,-0.16888685435263584,0.9375753414206152,0.2688639658197909
1539732514429765,-0.16937514305333012,0.9333028152895402,0.27020675974670016
1539732514445766,-0.16961928740367727,0.9337911039902345,0.271671625848783
1539732514461766,-0.16644541084916442,0.9362325474937059,0.269962615396353
1539732514477766,-0.16473640039673443,0.9385519188220037,0.2700846875715266
1539732514493766,-0.16437018387121372,0.939894712748913,0.26483558403906304
1539732514509767,-0.162294956893263,0.9397726405737394,0.2641031509880216
1539732514525767,-0.1619287403677423,0.9402609292744337,0.26276035706111234
1539732514541767,-0.16437018387121372,0.9408712901503016,0.2632486457618066
1539732514557769,-0.16644541084916442,0.938185702296483,0.2650797283894102
1539732514573770,-0.165712977798123,0.936476691844053,0.26141756313420306
1539732514589770,-0.1652246890974287,0.9361104753185323,0.26141756313420306
1539732514605770,-0.16668955519951156,0.9351338979171437,0.25763332570382236
1539732514621770,-0.1669336995498587,0.9350118257419702,0.2586099031052109
1539732514637771,-0.166567483024338,0.9383077744716566,0.2570229648279545
1539732514653771,-0.16852063782711513,0.9376974135957887,0.25677882047760736
1539732514669771,-0.17059586480506583,0.9374532692454416,0.25311665522240023
1539732514685772,-0.1715724422064544,0.9362325474937059,0.2562905317769131
1539732514701772,-0.17401388570992582,0.9370870527199209,0.2571450370031281
1539732514717772,-0.17511253528648796,0.9386739909971773,0.25897611963073164
1539732514733772,-0.17303730830853725,0.9406271457999544,0.2553139543755245
1539732514749773,-0.17376974135957868,0.9401388570992602,0.2565346761272602
1539732514765773,-0.17425803006027296,0.9394064240482187,0.2582436865796902
1539732514781773,-0.17474631876096725,0.9387960631723509,0.2594644083314259
1539732514797773,-0.17389181353475225,0.934767681391623,0.26105134660868234
1539732514813774,-0.16632333867399085,0.9337911039902345,0.2666666666666666
1539732514829774,-0.17181658655680154,0.9389181353475244,0.2675211718928816
1539732514845774,-0.17218280308232226,0.938185702296483,0.27069504844739445
1539732514861775,-0.16815442130159441,0.9351338979171437,0.27240405889982444
1539732514877807,-0.17254901960784297,0.9368429083695737,0.26984054322117945
1539732514893808,-0.17669947356374438,0.9333028152895402,0.269108110170138
1539732514909808,-0.17230487525749583,0.9345235370412759,0.2688639658197909
1539732514925808,-0.1749904631113144,0.9342793926909287,0.2687418936446173
1539732514941808,-0.17547875181200867,0.9367208361944002,0.26776531624322875
1539732514957809,-0.17022964827954512,0.9411154345006487,0.2654459449149309
1539732514973809,-0.16998550392919798,0.9414816510261694,0.26556801709010447
1539732514989809,-0.16974135957885084,0.9408712901503016,0.26483558403906304
1539732515005809,-0.16974135957885084,0.9376974135957887,0.2608072022583352
1539732515021810,-0.16913099870298298,0.9358663309681852,0.25812161440451664
1539732515037810,-0.16729991607537942,0.9367208361944002,0.2575112535286488
1539732515053810,-0.16705577172503228,0.9375753414206152,0.2549477378500038
1539732515069810,-0.1690089265278094,0.9367208361944002,0.25397116044861523
1539732515085811,-0.16705577172503228,0.938185702296483,0.2561684596017395
1539732515101811,-0.16412603952086657,0.9400167849240866,0.2549477378500038
1539732515117811,-0.16729991607537942,0.9413595788509959,0.25555809872587165
1539732515133812,-0.16754406042572656,0.9402609292744337,0.2578774700541695
1539732515149812,-0.1677882047760737,0.9379415579461359,0.2586099031052109
1539732515165812,-0.1694972152285037,0.9369649805447473,0.26068513008316163
1539732515181812,-0.16925307087815655,0.9361104753185323,0.2578774700541695
1539732515197815,-0.17169451438162797,0.9351338979171437,0.25897611963073164
1539732515213815,-0.17108415350576012,0.9370870527199209,0.2608072022583352
1539732515229815,-0.17230487525749583,0.9342793926909287,0.2609292744335088
1539732515245815,-0.1727931639581901,0.934767681391623,0.26190585183489734
1539732515261816,-0.1732814526588844,0.9348897535667966,0.2641031509880216
1539732515277816,-0.17169451438162797,0.9389181353475244,0.2633707179369802
1539732515293816,-0.17181658655680154,0.9429465171282523,0.26434729533836876
1539732515309816,-0.17181658655680154,0.9394064240482187,0.26691081101701375
1539732515325817,-0.17315938048371082,0.9372091248950944,0.27069504844739445
1539732515341817,-0.17401388570992582,0.9374532692454416,0.27032883192187374
1539732515357817,-0.17267109178301654,0.9375753414206152,0.27154955367360945
1539732515373818,-0.1727931639581901,0.939040207522698,0.270817120622568
1539732515389818,-0.1727931639581901,0.939040207522698,0.27191577019913016
1539732515405818,-0.16974135957885084,0.9396505683985659,0.2705729762722209
1539732515421818,-0.16534676127260228,0.9409933623254751,0.2678873884184023
1539732515437819,-0.16510261692225514,0.9369649805447473,0.2658121614404516
1539732515453819,-0.16754406042572656,0.9341573205157552,0.26556801709010447
1539732515469819,-0.16754406042572656,0.934767681391623,0.26556801709010447
1539732515485819,-0.16681162737468513,0.9359884031433587,0.2621499961852445
1539732515501820,-0.16681162737468513,0.9391622796978716,0.26178377965972377
1539732515517791,-0.166567483024338,0.939040207522698,0.2583657587548638
1539732515533792,-0.1669336995498587,0.9379415579461359,0.25519188220035094
1539732515549792,-0.1669336995498587,0.9378194857709623,0.2527504386968795
1539732515565792,-0.1669336995498587,0.9367208361944002,0.25055313954375524
1539732515581792,-0.16839856565194156,0.9369649805447473,0.25226214999618524
1539732515597793,-0.16937514305333012,0.9376974135957887,0.2499427786678874
1539732515613793,-0.1707179369802394,0.9369649805447473,0.2515297169451438
1539732515629793,-0.17010757610437155,0.9386739909971773,0.2515297169451438
1539732515645794,-0.16876478217746227,0.9417257953765166,0.2527504386968795
1539732515661794,-0.16888685435263584,0.9428244449530787,0.2540932326237888
1539732515677794,-0.16839856565194156,0.9422140840772109,0.25897611963073164
1539732515693794,-0.17132829785610726,0.9429465171282523,0.26068513008316163
1539732515709795,-0.17145037003128083,0.9376974135957887,0.26105134660868234
1539732515725795,-0.17059586480506583,0.9312275883115895,0.2604409857328145
1539732515741795,-0.17230487525749583,0.9325703822384988,0.2595864805065995
1539732515757795,-0.17303730830853725,0.938185702296483,0.2632486457618066
1539732515773796,-0.1707179369802394,0.9401388570992602,0.26434729533836876
1539732515789796,-0.17181658655680154,0.938185702296483,0.26861982146944374
1539732515805796,-0.17230487525749583,0.9378194857709623,0.27106126497291516
1539732515821797,-0.1736476691844051,0.9359884031433587,0.2726482032501716
1539732515837799,-0.17230487525749583,0.9355001144426645,0.27154955367360945
1539732515853799,-0.17291523613336368,0.9362325474937059,0.27240405889982444
1539732515869799,-0.17206073090714868,0.9368429083695737,0.27069504844739445
1539732515885800,-0.16974135957885084,0.936476691844053,0.2697184710460059
1539732515901800,-0.16815442130159441,0.9395284962233923,0.2653238727397573
1539732515917800,-0.16668955519951156,0.9367208361944002,0.2661783779659723
1539732515933800,-0.16791027695124727,0.9352559700923173,0.26483558403906304
1539732515949801,-0.16705577172503228,0.9350118257419702,0.26056305790798806
1539732515965801,-0.16839856565194156,0.9363546196688795,0.2608072022583352
1539732515981801,-0.16876478217746227,0.9352559700923173,0.2594644083314259
1539732515997801,-0.16815442130159441,0.9363546196688795,0.2586099031052109
1539732516013802,-0.16668955519951156,0.9379415579461359,0.2587319752803845
1539732516029802,-0.16876478217746227,0.939040207522698,0.2562905317769131
1539732516045802,-0.16839856565194156,0.9397726405737394,0.25262836652170595
1539732516061802,-0.16925307087815655,0.9392843518730452,0.2549477378500038
1539732516077803,-0.17254901960784297,0.9389181353475244,0.25506981002517737
1539732516093803,-0.17425803006027296,0.9406271457999544,0.2548256656748302
1539732516109803,-0.17315938048371082,0.9402609292744337,0.2518959334706645
1539732516125804,-0.17462424658579367,0.9392843518730452,0.25433737697413594
1539732516141804,-0.17352559700923154,0.9412375066758223,0.25421530479896237
1539732516157806,-0.1732814526588844,0.9430685893034259,0.2548256656748302
1539732516173806,-0.1732814526588844,0.940749217975128,0.25677882047760736
1539732516189807,-0.1690089265278094,0.9397726405737394,0.2590981918059052
1539732516205807,-0.17022964827954512,0.9355001144426645,0.25690089265278093
1539732516221807,-0.17230487525749583,0.9333028152895402,0.25897611963073164
1539732516237807,-0.16424811169604014,0.9300068665598538,0.2609292744335088
1539732516253808,-0.16424811169604014,0.929640650034333,0.26361486228732733
1539732516269808,-0.16375982299534586,0.9315938048371102,0.2647135118638895
1539732516285808,-0.16559090562294942,0.9361104753185323,0.26935225452048517
1539732516301808,-0.16559090562294942,0.9406271457999544,0.27032883192187374
1539732516317809,-0.16644541084916442,0.9438010223544673,0.2735027084763866
1539732516333809,-0.16705577172503228,0.9457541771572444,0.27325856412603944
1539732516349809,-0.16791027695124727,0.9434348058289466,0.26849774929427017
1539732516365810,-0.16632333867399085,0.9392843518730452,0.2676432440680552
1539732516381810,-0.16754406042572656,0.9352559700923173,0.2663004501411459
1539732516397810,-0.16766613260090013,0.9345235370412759,0.2678873884184023
1539732516413810,-0.1694972152285037,0.9340352483405816,0.2653238727397573
1539732516429811,-0.17010757610437155,0.9357442587930116,0.2586099031052109
1539732516445811,-0.1703517204547187,0.9376974135957887,0.2603189135576409
1539732516461811,-0.17059586480506583,0.9372091248950944,0.2575112535286488
1539732516477813,-0.1724269474326694,0.9357442587930116,0.25763332570382236
1539732516493814,-0.17425803006027296,0.9378194857709623,0.25555809872587165
1539732516509814,-0.17132829785610726,0.9392843518730452,0.2556801709010452
1539732516525814,-0.17169451438162797,0.9389181353475244,0.2525062943465324
1539732516541814,-0.17389181353475225,0.9386739909971773,0.2548256656748302
1539732516557815,-0.17291523613336368,0.939040207522698,0.25763332570382236
1539732516573815,-0.17254901960784297,0.9402609292744337,0.25470359349965666
1539732516589815,-0.16913099870298298,0.9414816510261694,0.25677882047760736
1539732516605816,-0.16803234912642084,0.9402609292744337,0.2573891813534752
1539732516621816,-0.1677882047760737,0.9391622796978716,0.25799954222934307
1539732516637816,-0.16815442130159441,0.9372091248950944,0.2586099031052109
1539732516653816,-0.17047379262989226,0.9333028152895402,0.25604638742656594
1539732516669817,-0.1703517204547187,0.9340352483405816,0.26019684138246735
1539732516685817,-0.17315938048371082,0.938185702296483,0.2590981918059052
1539732516701817,-0.1712062256809337,0.9351338979171437,0.26153963530937663
1539732516717817,-0.17352559700923154,0.9342793926909287,0.2628824292362859
1539732516733818,-0.17401388570992582,0.9323262378881516,0.26642252231631947
1539732516749818,-0.1741359578850994,0.9353780422674909,0.2680094605935759
1539732516765818,-0.17145037003128083,0.9405050736247809,0.26813153276874946
1539732516781818,-0.1698634317540244,0.9428244449530787,0.27154955367360945
1539732516797821,-0.16791027695124727,0.9418478675516901,0.269108110170138
1539732516813821,-0.16510261692225514,0.939894712748913,0.2661783779659723
1539732516829821,-0.1644922560463873,0.9380636301213094,0.26605630579079875
1539732516845821,-0.16473640039673443,0.934767681391623,0.2637369344625009
1539732516861822,-0.16461432822156086,0.9341573205157552,0.26190585183489734
1539732516877822,-0.1636377508201723,0.9350118257419702,0.2611734187838559
1539732516893822,-0.16510261692225514,0.9358663309681852,0.2603189135576409
1539732516909823,-0.16498054474708157,0.9350118257419702,0.25799954222934307
1539732516925823,-0.164858472571908,0.937331197070268,0.2609292744335088
1539732516941823,-0.1660791943236437,0.937331197070268,0.2594644083314259
1539732516957823,-0.16705577172503228,0.9385519188220037,0.25897611963073164
1539732516973824,-0.16498054474708157,0.9418478675516901,0.2595864805065995
1539732516989824,-0.16766613260090013,0.9403830014496073,0.2575112535286488
1539732517005824,-0.17084000915541298,0.9408712901503016,0.25983062485694663
1539732517021824,-0.16937514305333012,0.9436789501792937,0.26227206836041805
1539732517037825,-0.17169451438162797,0.9444113832303351,0.26068513008316163
1539732517053825,-0.17389181353475225,0.944167238879988,0.2611734187838559
1539732517069825,-0.17315938048371082,0.9430685893034259,0.2587319752803845
1539732517085826,-0.17596704051270295,0.9379415579461359,0.2592202639810788
1539732517101826,-0.1741359578850994,0.9315938048371102,0.2573891813534752
1539732517117828,-0.17291523613336368,0.9311055161364159,0.25934233615625235
1539732517133828,-0.17291523613336368,0.9344014648661023,0.2609292744335088
1539732517149829,-0.17145037003128083,0.934767681391623,0.2628824292362859
1539732517165829,-0.17096208133058655,0.9352559700923173,0.2666666666666666
1539732517181829,-0.17145037003128083,0.9348897535667966,0.26569008926527804
1539732517197829,-0.1703517204547187,0.9378194857709623,0.2659342336156252
1539732517213830,-0.17047379262989226,0.939894712748913,0.2663004501411459
1539732517229830,-0.1690089265278094,0.9391622796978716,0.2667887388418402
1539732517245830,-0.16766613260090013,0.9362325474937059,0.2661783779659723
1539732517261830,-0.16546883344777585,0.9352559700923173,0.2649576562142366
1539732517277831,-0.16559090562294942,0.9367208361944002,0.2609292744335088
1539732517293831,-0.16412603952086657,0.9376974135957887,0.26178377965972377
1539732517309831,-0.16473640039673443,0.9383077744716566,0.2609292744335088
1539732517325832,-0.16546883344777585,0.9392843518730452,0.26019684138246735
1539732517341832,-0.1636377508201723,0.9361104753185323,0.2582436865796902
1539732517357832,-0.164003967345693,0.9362325474937059,0.25848783093003735
1539732517373832,-0.165712977798123,0.9361104753185323,0.2578774700541695
1539732517389833,-0.16412603952086657,0.9352559700923173,0.2587319752803845
1539732517405833,-0.16644541084916442,0.9355001144426645,0.25690089265278093
1539732517421833,-0.16827649347676799,0.9386739909971773,0.25506981002517737
1539732517437805,-0.1698634317540244,0.937331197070268,0.25555809872587165
1539732517453805,-0.17022964827954512,0.9394064240482187,0.2558022430762188
1539732517469805,-0.1741359578850994,0.9391622796978716,0.2590981918059052
1539732517485806,-0.17608911268787653,0.9403830014496073,0.25519188220035094
1539732517501806,-0.17633325703822367,0.9384298466468302,0.25812161440451664
1539732517517806,-0.17767605096513295,0.938185702296483,0.2575112535286488
1539732517533806,-0.17755397878995938,0.9361104753185323,0.2595864805065995
1539732517549807,-0.17523460746166153,0.9372091248950944,0.26227206836041805
1539732517565807,-0.17486839093614082,0.9384298466468302,0.26227206836041805
1539732517581807,-0.1745021744106201,0.9429465171282523,0.2621499961852445
1539732517597808,-0.1749904631113144,0.9392843518730452,0.2642252231631952
1539732517613808,-0.17230487525749583,0.9363546196688795,0.26642252231631947
1539732517629808,-0.17291523613336368,0.9328145265888459,0.26861982146944374
1539732517645808,-0.17145037003128083,0.9308613717860688,0.2670328831921873
1539732517661809,-0.16937514305333012,0.9350118257419702,0.2671549553673609
1539732517677809,-0.1690089265278094,0.9365987640192266,0.2675211718928816
1539732517693809,-0.16595712214847014,0.9395284962233923,0.2667887388418402
1539732517709809,-0.16339360646982515,0.9409933623254751,0.2658121614404516
1539732517725810,-0.16168459601739515,0.9392843518730452,0.26654459449149304
1539732517741810,-0.161440451667048,0.9396505683985659,0.26642252231631947
1539732517757812,-0.16156252384222158,0.9368429083695737,0.26556801709010447
1539732517773812,-0.16131837949187444,0.9372091248950944,0.2638590066376745
1539732517789813,-0.16156252384222158,0.9378194857709623,0.2600747692072938
1539732517805813,-0.16351567864499872,0.937331197070268,0.25848783093003735
1539732517821813,-0.16351567864499872,0.9368429083695737,0.26178377965972377
1539732517837813,-0.16632333867399085,0.9384298466468302,0.25848783093003735
1539732517853814,-0.16766613260090013,0.938185702296483,0.2548256656748302
1539732517869814,-0.16937514305333012,0.9389181353475244,0.25177386129549095
1539732517885814,-0.17303730830853725,0.939040207522698,0.25690089265278093
1539732517901815,-0.1745021744106201,0.9387960631723509,0.25506981002517737
1539732517917815,-0.17560082398718224,0.9380636301213094,0.2540932326237888
1539732517933815,-0.17682154573891795,0.9376974135957887,0.2545815213244831
1539732517949815,-0.17633325703822367,0.9362325474937059,0.25641260395208665
1539732517965816,-0.17645532921339724,0.9357442587930116,0.25726710917830165
1539732517981816,-0.1757228961623558,0.936476691844053,0.25970855268177306
1539732517997816,-0.1757228961623558,0.9375753414206152,0.26190585183489734
1539732518013816,-0.1741359578850994,0.936476691844053,0.26056305790798806
1539732518029817,-0.17462424658579367,0.9412375066758223,0.2632486457618066
1539732518045817,-0.17291523613336368,0.9445334554055087,0.26361486228732733
1539732518061817,-0.17108415350576012,0.9379415579461359,0.26446936751354233
1539732518077819,-0.16961928740367727,0.9334248874647137,0.2653238727397573
1539732518093820,-0.17047379262989226,0.9336690318150609,0.26361486228732733
1539732518109820,-0.16937514305333012,0.9348897535667966,0.2667887388418402
1539732518125820,-0.1686427100022887,0.9378194857709623,0.2645914396887159
1539732518141821,-0.16729991607537942,0.9394064240482187,0.2663004501411459
1539732518157821,-0.16546883344777585,0.9394064240482187,0.26727702754253446
1539732518173821,-0.16290531776913086,0.9394064240482187,0.26520180056458376
1539732518189821,-0.1619287403677423,0.9383077744716566,0.26349279011215376
1539732518205822,-0.16156252384222158,0.9358663309681852,0.2642252231631952
1539732518221822,-0.1627832455939573,0.9370870527199209,0.2630045014114595
1539732518237822,-0.16351567864499872,0.9376974135957887,0.2633707179369802
1539732518253822,-0.16375982299534586,0.9376974135957887,0.2625162127107652
1539732518269823,-0.1636377508201723,0.939040207522698,0.26019684138246735
1539732518285823,-0.16632333867399085,0.9368429083695737,0.26019684138246735
1539732518301823,-0.16717784390020585,0.9378194857709623,0.2583657587548638
1539732518317824,-0.1686427100022887,0.9375753414206152,0.2562905317769131
1539732518333824,-0.16998550392919798,0.9376974135957887,0.2571450370031281
1539732518349824,-0.17230487525749583,0.9386739909971773,0.25519188220035094
1539732518365824,-0.1736476691844051,0.9369649805447473,0.25677882047760736
1539732518381825,-0.17462424658579367,0.9380636301213094,0.2599526970321202
1539732518397827,-0.17523460746166153,0.938185702296483,0.25690089265278093
1539732518413827,-0.17560082398718224,0.9384298466468302,0.26068513008316163
1539732518429827,-0.17511253528648796,0.937331197070268,0.2566567483024338
1539732518445828,-0.17303730830853725,0.9383077744716566,0.2603189135576409
1539732518461828,-0.17315938048371082,0.9384298466468302,0.26105134660868234
1539732518477828,-0.1732814526588844,0.9370870527199209,0.2583657587548638
1539732518493828,-0.17291523613336368,0.9357442587930116,0.25812161440451664
1539732518509829,-0.17254901960784297,0.9396505683985659,0.26398107881284805
1539732518525829,-0.17145037003128083,0.9385519188220037,0.26398107881284805
1539732518541829,-0.04901197833218873,0.6649881742580304,0.026184481574730967
1539732518557829,-0.13067826352330814,1.1020065613794152,0.47736324101625094
1539732518573830,-0.16644541084916442,0.9711451895933472,0.2150301365682461
1539732518589830,-0.17352559700923154,0.8852063782711532,0.2091706721599147
1539732518605830,-0.1791409170672158,0.8980239566643782,0.26349279011215376
1539732518621831,-0.13116655222400242,0.9167009994659345,0.2926680399786372
1539732518637831,-0.1998931868467233,0.9263447013046466,0.2582436865796902
1539732518653831,-0.18426794842450578,0.9236591134508281,0.27313649195086587
1539732518669831,-0.16156252384222158,0.9473411154345008,0.28790722514686795
1539732518685832,-0.17669947356374438,0.9612573434042879,0.2763103685053787
1539732518701832,-0.1547264820325016,0.9627222095063708,0.2792401007095444
1539732518717834,-0.15582513160906375,0.9473411154345008,0.2735027084763866
1539732518733834,-0.16754406042572656,0.9348897535667966,0.26556801709010447
1539732518749835,-0.1564354924849316,0.9309834439612423,0.26361486228732733
1539732518765835,-0.15753414206149374,0.9243915465018695,0.2653238727397573
1539732518781835,-0.16827649347676799,0.9251239795529109,0.2570229648279545
1539732518797835,-0.1698634317540244,0.933058670939193,0.2506752117189288
1539732518813836,-0.16937514305333012,0.9434348058289466,0.2511635004196231
1539732518829836,-0.1690089265278094,0.9420920119020373,0.2573891813534752
1539732518845836,-0.16827649347676799,0.9391622796978716,0.2578774700541695
1539732518861837,-0.1636377508201723,0.9402609292744337,0.25299458304722666
1539732518877837,-0.16375982299534586,0.9397726405737394,0.2473792629892424
1539732518893837,-0.1660791943236437,0.939040207522698,0.25214007782101167
1539732518909837,-0.17059586480506583,0.9368429083695737,0.2554360265506981
1539732518925838,-0.17389181353475225,0.939040207522698,0.25348287174792095
1539732518941838,-0.1727931639581901,0.9380636301213094,0.2528725108720531
1539732518957838,-0.17303730830853725,0.9379415579461359,0.25226214999618524
1539732518973838,-0.17389181353475225,0.9400167849240866,0.25262836652170595
1539732518989839,-0.1749904631113144,0.9387960631723509,0.2536049439230945
1539732519005839,-0.17596704051270295,0.9331807431143666,0.25983062485694663
1539732519021839,-0.17840848401617437,0.9318379491874573,0.2603189135576409
1539732519037841,-0.18158236057068722,0.9336690318150609,0.25934233615625235
1539732519053842,-0.1795071335927365,0.9363546196688795,0.2647135118638895
1539732519069842,-0.17633325703822367,0.9357442587930116,0.2654459449149309
1539732519085842,-0.1736476691844051,0.937331197070268,0.2714274814984359
1539732519101843,-0.17059586480506583,0.9380636301213094,0.27325856412603944
1539732519117843,-0.1669336995498587,0.9395284962233923,0.270817120622568
1539732519133843,-0.1652246890974287,0.9392843518730452,0.27069504844739445
1539732519149843,-0.16595712214847014,0.9376974135957887,0.27240405889982444
1539732519165844,-0.166567483024338,0.9368429083695737,0.274235141527428
1539732519181844,-0.166567483024338,0.9353780422674909,0.27106126497291516
1539732519197844,-0.16498054474708157,0.9372091248950944,0.2687418936446173
1539732519213844,-0.164858472571908,0.9365987640192266,0.2683756771190966
1539732519229845,-0.16375982299534586,0.9359884031433587,0.2676432440680552
1539732519245845,-0.16424811169604014,0.9376974135957887,0.26691081101701375
1539732519261845,-0.16375982299534586,0.9383077744716566,0.2658121614404516
1539732519277845,-0.164858472571908,0.937331197070268,0.2647135118638895
1539732519293846,-0.16791027695124727,0.9374532692454416,0.26153963530937663
1539732519309846,-0.16888685435263584,0.9361104753185323,0.26483558403906304
1539732519325846,-0.16961928740367727,0.939040207522698,0.2604409857328145
1539732519341847,-0.1715724422064544,0.9394064240482187,0.25775539787899593
1539732519357849,-0.17010757610437155,0.9405050736247809,0.25726710917830165
1539732519373849,-0.1712062256809337,0.9385519188220037,0.25775539787899593
1539732519389849,-0.17303730830853725,0.9379415579461359,0.2565346761272602
1539732519405850,-0.1707179369802394,0.937331197070268,0.2553139543755245
1539732519421850,-0.1736476691844051,0.9372091248950944,0.2556801709010452
1539732519437850,-0.17425803006027296,0.9402609292744337,0.25519188220035094
1539732519453850,-0.1727931639581901,0.9412375066758223,0.2556801709010452
1539732519469851,-0.1719386587319751,0.9363546196688795,0.2590981918059052
1539732519485851,-0.17206073090714868,0.9359884031433587,0.2590981918059052
1539732519501851,-0.1741359578850994,0.9323262378881516,0.2587319752803845
1539732519517851,-0.17669947356374438,0.933058670939193,0.2620279240100709
1539732519533852,-0.1727931639581901,0.9367208361944002,0.2645914396887159
1539732519549852,-0.1732814526588844,0.9401388570992602,0.2637369344625009
1539732519565852,-0.17303730830853725,0.9392843518730452,0.2649576562142366
1539732519581853,-0.16925307087815655,0.9396505683985659,0.26398107881284805
1539732519597853,-0.16852063782711513,0.9365987640192266,0.26861982146944374
1539732519613853,-0.16681162737468513,0.9344014648661023,0.26935225452048517
1539732519629853,-0.16510261692225514,0.9353780422674909,0.26739909971770803
1539732519645854,-0.16461432822156086,0.9375753414206152,0.2688639658197909
1539732519661854,-0.165712977798123,0.9389181353475244,0.2695963988708323
1539732519677826,-0.16461432822156086,0.9395284962233923,0.2671549553673609
1539732519693826,-0.1660791943236437,0.9378194857709623,0.2658121614404516
1539732519709826,-0.16620126649881728,0.9357442587930116,0.2628824292362859
1539732519725826,-0.16681162737468513,0.9353780422674909,0.26068513008316163
1539732519741827,-0.16876478217746227,0.9351338979171437,0.26178377965972377
1539732519757827,-0.16998550392919798,0.9355001144426645,0.2592202639810788
1539732519773827,-0.16974135957885084,0.9375753414206152,0.25970855268177306
1539732519789827,-0.17096208133058655,0.9397726405737394,0.2575112535286488
1539732519805828,-0.16961928740367727,0.9391622796978716,0.25799954222934307
1539732519821828,-0.1707179369802394,0.9375753414206152,0.25885404745555807
1539732519837828,-0.1703517204547187,0.9351338979171437,0.2594644083314259
1539732519853829,-0.1703517204547187,0.9380636301213094,0.2583657587548638
1539732519869829,-0.1698634317540244,0.9400167849240866,0.25384908827344166
1539732519885829,-0.16888685435263584,0.9401388570992602,0.25983062485694663
1539732519901829,-0.16791027695124727,0.9384298466468302,0.2583657587548638
1539732519917830,-0.17084000915541298,0.9392843518730452,0.25934233615625235
1539732519933830,-0.16961928740367727,0.9405050736247809,0.25885404745555807
1539732519949830,-0.16913099870298298,0.9383077744716566,0.26276035706111234
1539732519965830,-0.17084000915541298,0.9340352483405816,0.2658121614404516
1539732519981831,-0.17474631876096725,0.9336690318150609,0.26569008926527804
1539732519997863,-0.17645532921339724,0.9352559700923173,0.26569008926527804
1539732520013864,-0.17584496833752938,0.9394064240482187,0.2654459449149309
1539732520029864,-0.17669947356374438,0.9389181353475244,0.26935225452048517
1539732520045864,-0.1762111848630501,0.940749217975128,0.2676432440680552
1539732520061864,-0.17352559700923154,0.939894712748913,0.2688639658197909
1539732520077865,-0.17145037003128083,0.937331197070268,0.2661783779659723
1539732520093865,-0.17096208133058655,0.9352559700923173,0.2642252231631952
1539732520109865,-0.16961928740367727,0.9340352483405816,0.2637369344625009
1539732520125866,-0.16791027695124727,0.9328145265888459,0.2638590066376745
1539732520141866,-0.1660791943236437,0.9353780422674909,0.2625162127107652
1539732520157866,-0.16205081254291587,0.9369649805447473,0.2612954909590295
1539732520173866,-0.16058594644083302,0.939040207522698,0.26178377965972377
1539732520189867,-0.1619287403677423,0.9394064240482187,0.26141756313420306
1539732520205867,-0.16217288471808944,0.9392843518730452,0.26019684138246735
1539732520221867,-0.16339360646982515,0.9375753414206152,0.25970855268177306
1539732520237867,-0.16437018387121372,0.9361104753185323,0.2571450370031281
1539732520253868,-0.16595712214847014,0.9351338979171437,0.2586099031052109
1539732520269868,-0.16388189517051943,0.9362325474937059,0.25848783093003735
1539732520285868,-0.1660791943236437,0.937331197070268,0.25897611963073164
1539732520301869,-0.1669336995498587,0.9392843518730452,0.25885404745555807
1539732520317871,-0.16791027695124727,0.9391622796978716,0.25885404745555807
1539732520333871,-0.17169451438162797,0.939040207522698,0.2582436865796902
1539732520349871,-0.17230487525749583,0.9392843518730452,0.2604409857328145
1539732520365872,-0.1749904631113144,0.9389181353475244,0.2578774700541695
1539732520381872,-0.1762111848630501,0.9389181353475244,0.2611734187838559
1539732520397872,-0.17486839093614082,0.9353780422674909,0.2620279240100709
1539732520413872,-0.17608911268787653,0.937331197070268,0.26398107881284805
1539732520429873,-0.17376974135957868,0.9394064240482187,0.2649576562142366
1539732520445873,-0.17425803006027296,0.9395284962233923,0.26739909971770803
1539732520461873,-0.17352559700923154,0.9353780422674909,0.2680094605935759
1539732520477873,-0.17608911268787653,0.9361104753185323,0.26776531624322875
1539732520493874,-0.1779201953154801,0.9357442587930116,0.26935225452048517
1539732520509874,-0.1757228961623558,0.9362325474937059,0.269108110170138
1539732520525874,-0.17096208133058655,0.9384298466468302,0.27118333714808873
1539732520541875,-0.17267109178301654,0.9376974135957887,0.2695963988708323
1539732520557875,-0.1694972152285037,0.9374532692454416,0.2692301823453116
1539732520573875,-0.16461432822156086,0.9386739909971773,0.26935225452048517
1539732520589875,-0.16388189517051943,0.937331197070268,0.2658121614404516
1539732520605876,-0.16351567864499872,0.9369649805447473,0.2658121614404516
1539732520621876,-0.162294956893263,0.9363546196688795,0.26312657358663305
1539732520637848,-0.16241702906843658,0.9340352483405816,0.25775539787899593
1539732520653848,-0.15924315251392374,0.9362325474937059,0.2575112535286488
1539732520669848,-0.15838864728770874,0.9341573205157552,0.25641260395208665
1539732520685848,-0.1589990081635766,0.937331197070268,0.25421530479896237
1539732520701849,-0.1598535133897916,0.9395284962233923,0.2544594491493095
1539732520717849,-0.16241702906843658,0.939040207522698,0.25641260395208665
1539732520733849,-0.16461432822156086,0.9406271457999544,0.2578774700541695
1539732520749849,-0.16839856565194156,0.9402609292744337,0.25775539787899593
1539732520765850,-0.17096208133058655,0.9396505683985659,0.25641260395208665
1539732520781850,-0.17181658655680154,0.9394064240482187,0.2561684596017395
1539732520797850,-0.17376974135957868,0.9367208361944002,0.2582436865796902
1539732520813851,-0.17669947356374438,0.9378194857709623,0.26141756313420306
1539732520829851,-0.17804226749065366,0.9370870527199209,0.26105134660868234
1539732520845851,-0.17889677271686866,0.936476691844053,0.26056305790798806
1539732520861851,-0.1795071335927365,0.9352559700923173,0.2620279240100709
1539732520877852,-0.1795071335927365,0.933913176165408,0.26056305790798806
1539732520893852,-0.17682154573891795,0.9369649805447473,0.26227206836041805
1539732520909852,-0.17608911268787653,0.9401388570992602,0.2645914396887159
