Timestamp (microseconds),Gyro X (°/s),Gyro Y (°/s),Gyro Z (°/s)
1539732495677642,1.4953841458761872,-0.5798428320745188,1.0070954451819034
1539732495693642,1.5564202334630863,-0.5798428320745188,1.2512397955290453
1539732495709642,1.4953841458761872,-0.2746623941404778,1.4953841458761872
1539732495725642,1.2512397955290453,-0.03051804379333589,1.5564202334630863
1539732495741642,0.8239871824216607,-0.09155413138023505,1.4343480582895154
1539732495757641,0.5798428320745188,-0.33569848172737693,1.0681315327688026
1539732495773641,0.3967345693140487,-0.7019150072480898,0.7019150072480898
1539732495789641,0.213626306553806,-0.8239871824216607,0.3967345693140487
1539732495805641,0.03051804379333589,-0.8239871824216607,0.33569848172737693
1539732495821641,-0.15259021896690683,-0.8850232700083325,0.2746623941404778
1539732495837640,-0.213626306553806,-1.1291676203554744,0.33569848172737693
1539732495853640,-0.15259021896690683,-1.0070954451819034,0.2746623941404778
1539732495869640,-0.09155413138023505,-0.7629510948347615,0.15259021896690683
1539732495885640,0.09155413138023505,-0.6408789196611906,-0.03051804379333589
1539732495901640,0.2746623941404778,-0.45777065690094787,-0.09155413138023505
1539732495917639,0.5188067444876197,-0.09155413138023505,-0.03051804379333589
1539732495933639,0.8850232700083325,0.45777065690094787,0.03051804379333589
1539732495949639,1.0681315327688026,0.8850232700083325,0.09155413138023505
1539732495965639,1.1291676203554744,0.7629510948347615,0.09155413138023505
1539732495981639,1.2512397955290453,0.7019150072480898,0.15259021896690683
1539732495997650,1.2512397955290453,0.7019150072480898,0.09155413138023505
1539732496013650,1.3122758831159445,0.45777065690094787,0.213626306553806
1539732496029649,1.1291676203554744,-0.09155413138023505,0.33569848172737693
1539732496045649,1.1291676203554744,-0.7019150072480898,0.45777065690094787
1539732496061649,1.1902037079423735,-1.0070954451819034,0.7629510948347615
1539732496077649,1.3733119707026162,-1.0681315327688026,1.1902037079423735
1539732496093649,1.5564202334630863,-0.8239871824216607,1.4953841458761872
1539732496109648,1.8005645838102282,-0.5798428320745188,1.8005645838102282
1539732496125648,1.8005645838102282,-0.15259021896690683,1.9226367589837992
1539732496141648,1.6784924086366573,0.03051804379333589,1.739528496223329
1539732496157648,1.4343480582895154,-0.33569848172737693,1.3122758831159445
1539732496173648,1.3122758831159445,-0.8850232700083325,0.7629510948347615
1539732496189647,1.3122758831159445,-1.1291676203554744,0.33569848172737693
1539732496205647,1.2512397955290453,-1.0681315327688026,0.09155413138023505
1539732496221647,1.0070954451819034,-0.5798428320745188,0.03051804379333589
1539732496237647,0.7019150072480898,-0.33569848172737693,0.09155413138023505
1539732496253646,0.45777065690094787,-0.3967345693140487,0.09155413138023505
1539732496269646,0.2746623941404778,-0.7019150072480898,0.213626306553806
1539732496285646,0.2746623941404778,-0.9460593575952316,0.15259021896690683
1539732496301646,0.15259021896690683,-1.1291676203554744,0.03051804379333589
1539732496317627,0.09155413138023505,-1.2512397955290453,-0.03051804379333589
1539732496333626,0.09155413138023505,-1.1902037079423735,0.15259021896690683
1539732496349626,0.15259021896690683,-0.8850232700083325,0.33569848172737693
1539732496365626,0.15259021896690683,-0.7019150072480898,0.5188067444876197
1539732496381626,0.15259021896690683,-0.6408789196611906,0.5798428320745188
1539732496397626,0.09155413138023505,-0.45777065690094787,0.45777065690094787
1539732496413625,0.2746623941404778,-0.3967345693140487,0.5188067444876197
1539732496429625,0.45777065690094787,-0.5188067444876197,0.45777065690094787
1539732496445625,0.5188067444876197,-0.7629510948347615,0.3967345693140487
1539732496461625,0.5188067444876197,-0.8850232700083325,0.45777065690094787
1539732496477625,0.7019150072480898,-0.7629510948347615,0.7629510948347615
1539732496493624,0.8239871824216607,-0.6408789196611906,1.0070954451819034
1539732496509624,1.2512397955290453,-0.6408789196611906,1.3122758831159445
1539732496525624,1.6174563210497581,-0.6408789196611906,1.6174563210497581
1539732496541624,1.8005645838102282,-0.33569848172737693,1.739528496223329
1539732496557623,1.4953841458761872,-0.03051804379333589,1.6784924086366573
1539732496573623,1.1291676203554744,-0.2746623941404778,1.5564202334630863
1539732496589623,0.8850232700083325,-0.6408789196611906,1.3122758831159445
1539732496605623,0.8239871824216607,-0.8850232700083325,0.9460593575952316
1539732496621623,0.9460593575952316,-0.7019150072480898,0.6408789196611906
1539732496637603,0.8850232700083325,-0.33569848172737693,0.45777065690094787
1539732496653603,0.7019150072480898,-0.33569848172737693,0.33569848172737693
1539732496669603,0.5188067444876197,-0.7019150072480898,0.2746623941404778
1539732496685603,0.3967345693140487,-1.0070954451819034,0.2746623941404778
1539732496701603,0.3967345693140487,-1.1291676203554744,0.2746623941404778
1539732496717602,0.213626306553806,-1.2512397955290453,0.213626306553806
1539732496733602,0.15259021896690683,-1.3733119707026162,0.15259021896690683
1539732496749602,0.213626306553806,-1.3122758831159445,0.09155413138023505
1539732496765602,0.33569848172737693,-0.9460593575952316,0.213626306553806
1539732496781602,0.33569848172737693,-0.5798428320745188,0.3967345693140487
1539732496797601,0.45777065690094787,-0.213626306553806,0.6408789196611906
1539732496813601,0.45777065690094787,0.03051804379333589,0.8850232700083325
1539732496829601,0.45777065690094787,-0.03051804379333589,1.0070954451819034
1539732496845601,0.5188067444876197,-0.33569848172737693,0.9460593575952316
1539732496861601,0.6408789196611906,-0.7629510948347615,0.8239871824216607
1539732496877600,0.7019150072480898,-1.2512397955290453,0.8239871824216607
1539732496893600,0.8239871824216607,-1.4953841458761872,0.9460593575952316
1539732496909600,0.8850232700083325,-1.4343480582895154,1.1291676203554744
1539732496925600,1.1291676203554744,-1.0070954451819034,1.3122758831159445
1539732496941599,1.3122758831159445,-0.7629510948347615,1.4343480582895154
1539732496957641,1.4343480582895154,-0.45777065690094787,1.4343480582895154
1539732496973641,1.4343480582895154,0.09155413138023505,1.3733119707026162
1539732496989641,1.3122758831159445,0.2746623941404778,1.0070954451819034
1539732497005641,1.1291676203554744,0.09155413138023505,0.6408789196611906
1539732497021640,1.1291676203554744,-0.213626306553806,0.213626306553806
1539732497037640,1.0681315327688026,-0.6408789196611906,-0.03051804379333589
1539732497053640,0.9460593575952316,-0.7019150072480898,-0.03051804379333589
1539732497069640,0.7019150072480898,-0.5798428320745188,-0.09155413138023505
1539732497085640,0.45777065690094787,-0.6408789196611906,-0.09155413138023505
1539732497101639,0.2746623941404778,-1.0070954451819034,-0.03051804379333589
1539732497117639,0.213626306553806,-1.2512397955290453,-0.03051804379333589
1539732497133639,0.213626306553806,-1.3733119707026162,0.03051804379333589
1539732497149639,0.213626306553806,-1.3733119707026162,0.213626306553806
1539732497165639,0.2746623941404778,-1.0681315327688026,0.3967345693140487
1539732497181638,0.45777065690094787,-0.5798428320745188,0.6408789196611906
1539732497197638,0.5798428320745188,-0.33569848172737693,0.7629510948347615
1539732497213638,0.7019150072480898,-0.09155413138023505,0.8239871824216607
1539732497229638,0.8239871824216607,-0.15259021896690683,0.8239871824216607
1539732497245638,0.8239871824216607,-0.5798428320745188,0.8239871824216607
1539732497261637,0.9460593575952316,-1.0070954451819034,0.8850232700083325
1539732497277649,1.0070954451819034,-0.8850232700083325,0.7629510948347615
1539732497293648,1.0070954451819034,-1.3733119707026162,0.7629510948347615
1539732497309648,0.9460593575952316,-1.1902037079423735,0.7629510948347615
1539732497325648,1.0681315327688026,-0.5798428320745188,0.8239871824216607
1539732497341648,1.1291676203554744,-0.213626306553806,0.9460593575952316
1539732497357648,1.3122758831159445,-0.09155413138023505,0.9460593575952316
1539732497373647,1.4343480582895154,-0.09155413138023505,1.0070954451819034
1539732497389647,1.3733119707026162,-0.15259021896690683,1.0070954451819034
1539732497405647,1.2512397955290453,-0.2746623941404778,0.8850232700083325
1539732497421647,1.0681315327688026,-0.45777065690094787,0.6408789196611906
1539732497437646,0.8239871824216607,-0.6408789196611906,0.33569848172737693
1539732497453646,0.7629510948347615,-0.9460593575952316,0.09155413138023505
1539732497469646,0.7019150072480898,-0.9460593575952316,0.03051804379333589
1539732497485646,0.5188067444876197,-0.6408789196611906,-0.09155413138023505
1539732497501646,0.2746623941404778,-0.3967345693140487,-0.03051804379333589
1539732497517645,0.03051804379333589,-0.6408789196611906,0.03051804379333589
1539732497533645,0.03051804379333589,-0.8850232700083325,0.09155413138023505
1539732497549645,0.03051804379333589,-0.8850232700083325,0.213626306553806
1539732497565645,0.03051804379333589,-0.8850232700083325,0.3967345693140487
1539732497581645,0.09155413138023505,-0.8239871824216607,0.6408789196611906
1539732497597625,0.33569848172737693,-0.5188067444876197,0.8239871824216607
1539732497613625,0.45777065690094787,-0.3967345693140487,1.0070954451819034
1539732497629625,0.6408789196611906,-0.45777065690094787,1.1291676203554744
1539732497645625,0.7629510948347615,-0.5188067444876197,1.2512397955290453
1539732497661625,0.8850232700083325,-0.6408789196611906,1.3122758831159445
1539732497677624,1.0070954451819034,-0.7629510948347615,1.4343480582895154
1539732497693624,1.2512397955290453,-0.6408789196611906,1.4343480582895154
1539732497709624,1.1902037079423735,-0.6408789196611906,1.3122758831159445
1539732497725624,1.2512397955290453,-0.6408789196611906,1.2512397955290453
1539732497741624,1.3122758831159445,-0.5188067444876197,1.1902037079423735
1539732497757623,1.3733119707026162,-0.3967345693140487,1.0681315327688026
1539732497773623,1.3733119707026162,-0.7629510948347615,1.1291676203554744
1539732497789623,1.4343480582895154,-0.9460593575952316,1.2512397955290453
1539732497805623,1.4953841458761872,-0.2746623941404778,1.2512397955290453
1539732497821622,1.1902037079423735,-0.03051804379333589,1.2512397955290453
1539732497837622,0.9460593575952316,-0.5188067444876197,1.1291676203554744
1539732497853622,0.8239871824216607,-0.8850232700083325,0.7019150072480898
1539732497869622,0.8239871824216607,-1.1902037079423735,0.33569848172737693
1539732497885622,0.6408789196611906,-1.3733119707026162,0.09155413138023505
1539732497901621,0.5798428320745188,-1.1902037079423735,-0.03051804379333589
1539732497917633,0.3967345693140487,-0.7019150072480898,-0.03051804379333589
1539732497933632,0.15259021896690683,-0.45777065690094787,0.03051804379333589
1539732497949632,0.15259021896690683,-0.5188067444876197,0.03051804379333589
1539732497965632,0.03051804379333589,-0.7019150072480898,0.15259021896690683
1539732497981632,0.03051804379333589,-1.0070954451819034,0.15259021896690683
1539732497997632,-0.03051804379333589,-1.2512397955290453,0.33569848172737693
1539732498013631,0.15259021896690683,-1.2512397955290453,0.5798428320745188
1539732498029631,0.213626306553806,-1.1902037079423735,0.7629510948347615
1539732498045631,0.33569848172737693,-0.8850232700083325,0.8850232700083325
1539732498061631,0.5188067444876197,-0.7629510948347615,1.0070954451819034
1539732498077631,0.6408789196611906,-0.6408789196611906,1.0681315327688026
1539732498093630,0.7629510948347615,-0.45777065690094787,1.0681315327688026
1539732498109630,0.9460593575952316,-0.3967345693140487,1.0681315327688026
1539732498125630,0.9460593575952316,-0.45777065690094787,1.0681315327688026
1539732498141630,1.0681315327688026,-0.45777065690094787,1.1291676203554744
1539732498157630,1.0681315327688026,-0.5188067444876197,1.1291676203554744
1539732498173629,1.0070954451819034,-0.5188067444876197,1.1902037079423735
1539732498189629,1.0681315327688026,-0.5798428320745188,1.3733119707026162
1539732498205629,1.1291676203554744,-0.7019150072480898,1.4953841458761872
1539732498221629,1.2512397955290453,-0.9460593575952316,1.5564202334630863
1539732498237640,1.2512397955290453,-0.8850232700083325,1.5564202334630863
1539732498253640,1.0681315327688026,-0.5798428320745188,1.3122758831159445
1539732498269640,0.8239871824216607,-0.5798428320745188,0.9460593575952316
1539732498285639,0.6408789196611906,-0.7629510948347615,0.45777065690094787
1539732498301639,0.6408789196611906,-0.8850232700083325,0.03051804379333589
1539732498317639,0.6408789196611906,-0.8239871824216607,-0.213626306553806
1539732498333639,0.5798428320745188,-0.6408789196611906,-0.2746623941404778
1539732498349639,0.3967345693140487,-0.7629510948347615,-0.213626306553806
1539732498365638,0.2746623941404778,-0.7629510948347615,-0.09155413138023505
1539732498381638,0.2746623941404778,-0.8850232700083325,0.03051804379333589
1539732498397638,0.2746623941404778,-1.0070954451819034,0.09155413138023505
1539732498413638,0.33569848172737693,-1.0681315327688026,0.15259021896690683
1539732498429638,0.6408789196611906,-0.9460593575952316,0.33569848172737693
1539732498445637,1.2512397955290453,-0.9460593575952316,0.5798428320745188
1539732498461637,1.8616006713969,-0.8850232700083325,0.8850232700083325
1539732498477637,2.105745021744042,-0.5798428320745188,1.1291676203554744
1539732498493637,1.9226367589837992,-0.2746623941404778,1.2512397955290453
1539732498509637,1.5564202334630863,-0.09155413138023505,1.1902037079423735
1539732498525636,1.2512397955290453,-0.09155413138023505,1.1291676203554744
1539732498541636,0.9460593575952316,-0.33569848172737693,0.9460593575952316
1539732498557647,0.7019150072480898,-0.7629510948347615,0.7019150072480898
1539732498573647,0.33569848172737693,-1.3122758831159445,0.5798428320745188
1539732498589647,-0.03051804379333589,-1.5564202334630863,0.5798428320745188
1539732498605647,-0.03051804379333589,-1.3122758831159445,0.8239871824216607
1539732498621647,0.15259021896690683,-0.7019150072480898,1.1291676203554744
1539732498637646,0.5798428320745188,-0.2746623941404778,1.3122758831159445
1539732498653646,1.0681315327688026,-0.213626306553806,1.4343480582895154
1539732498669646,1.4953841458761872,-0.5798428320745188,1.4953841458761872
1539732498685646,1.6174563210497581,-0.6408789196611906,1.4953841458761872
1539732498701645,1.4343480582895154,-0.7019150072480898,1.4953841458761872
1539732498717645,1.0681315327688026,-0.9460593575952316,1.3733119707026162
1539732498733645,0.7629510948347615,-0.8850232700083325,1.3122758831159445
1539732498749645,0.5188067444876197,-0.8239871824216607,1.1902037079423735
1539732498765645,0.2746623941404778,-0.6408789196611906,1.1291676203554744
1539732498781644,-0.15259021896690683,-0.7019150072480898,1.1291676203554744
1539732498797644,-0.5798428320745188,-0.9460593575952316,1.0681315327688026
1539732498813644,-0.7629510948347615,-1.2512397955290453,0.8850232700083325
1539732498829644,-0.8850232700083325,-1.3733119707026162,0.7019150072480898
1539732498845644,-0.8239871824216607,-1.3733119707026162,0.33569848172737693
1539732498861643,-0.8239871824216607,-1.6784924086366573,-0.03051804379333589
1539732498877655,-0.7019150072480898,-1.8005645838102282,-0.33569848172737693
1539732498893654,-0.45777065690094787,-1.5564202334630863,-0.6408789196611906
1539732498909654,-0.213626306553806,-1.1902037079423735,-0.7019150072480898
1539732498925654,0.09155413138023505,-0.6408789196611906,-0.7019150072480898
1539732498941654,0.5188067444876197,-0.15259021896690683,-0.5188067444876197
1539732498957654,0.9460593575952316,0.09155413138023505,-0.33569848172737693
1539732498973653,1.3733119707026162,0.15259021896690683,-0.03051804379333589
1539732498989653,1.739528496223329,0.03051804379333589,0.33569848172737693
1539732499005653,1.8005645838102282,-0.09155413138023505,0.7019150072480898
1539732499021653,1.6784924086366573,-0.45777065690094787,1.0070954451819034
1539732499037653,1.5564202334630863,-0.8239871824216607,1.4953841458761872
1539732499053652,1.4953841458761872,-1.0681315327688026,1.6784924086366573
1539732499069652,1.6174563210497581,-1.0681315327688026,1.8005645838102282
1539732499085652,1.8616006713969,-0.9460593575952316,1.8005645838102282
1539732499101652,2.04470893415737,-0.7629510948347615,1.8005645838102282
1539732499117652,2.04470893415737,-0.09155413138023505,1.6174563210497581
1539732499133651,1.8616006713969,0.3967345693140487,1.4343480582895154
1539732499149651,1.739528496223329,0.45777065690094787,1.0070954451819034
1539732499165651,1.739528496223329,0.2746623941404778,0.5798428320745188
1539732499181651,1.739528496223329,-0.03051804379333589,0.09155413138023505
1539732499197662,1.5564202334630863,-0.33569848172737693,-0.09155413138023505
1539732499213662,1.2512397955290453,-0.45777065690094787,-0.2746623941404778
1539732499229663,0.8850232700083325,-0.5798428320745188,-0.2746623941404778
1539732499245663,0.6408789196611906,-0.8850232700083325,-0.09155413138023505
1539732499261663,0.3967345693140487,-1.0681315327688026,-0.03051804379333589
1539732499277663,0.213626306553806,-1.0070954451819034,0.09155413138023505
1539732499293664,-0.03051804379333589,-0.8850232700083325,0.15259021896690683
1539732499309664,-0.15259021896690683,-0.8850232700083325,0.213626306553806
1539732499325664,-0.09155413138023505,-0.8850232700083325,0.213626306553806
1539732499341664,-0.03051804379333589,-0.6408789196611906,0.33569848172737693
1539732499357665,0.09155413138023505,-0.45777065690094787,0.45777065690094787
1539732499373665,0.213626306553806,-0.45777065690094787,0.5188067444876197
1539732499389665,0.2746623941404778,-0.45777065690094787,0.7019150072480898
1539732499405665,0.45777065690094787,-0.45777065690094787,0.8239871824216607
1539732499421666,0.45777065690094787,-0.5798428320745188,0.8850232700083325
1539732499437666,0.33569848172737693,-0.8850232700083325,0.9460593575952316
1539732499453666,0.213626306553806,-1.1902037079423735,1.0070954451819034
1539732499469667,0.213626306553806,-1.2512397955290453,1.2512397955290453
1539732499485667,0.2746623941404778,-1.0070954451819034,1.4343480582895154
1539732499501667,0.2746623941404778,-0.6408789196611906,1.4953841458761872
1539732499517639,0.3967345693140487,-0.5188067444876197,1.4343480582895154
1539732499533639,0.5798428320745188,-0.45777065690094787,1.3733119707026162
1539732499549638,0.7629510948347615,-0.33569848172737693,1.1902037079423735
1539732499565638,1.0070954451819034,-0.33569848172737693,0.8850232700083325
1539732499581638,1.2512397955290453,-0.5188067444876197,0.3967345693140487
1539732499597638,1.5564202334630863,-0.6408789196611906,-0.09155413138023505
1539732499613638,1.4953841458761872,-1.1291676203554744,-0.2746623941404778
1539732499629637,1.3733119707026162,-1.1291676203554744,-0.09155413138023505
1539732499645637,1.3122758831159445,-0.45777065690094787,0.09155413138023505
1539732499661637,1.1291676203554744,-0.213626306553806,0.213626306553806
1539732499677637,1.0681315327688026,-0.45777065690094787,0.33569848172737693
1539732499693637,1.1291676203554744,-0.7629510948347615,0.2746623941404778
1539732499709636,1.3122758831159445,-1.0070954451819034,0.2746623941404778
1539732499725636,1.4343480582895154,-0.9460593575952316,0.2746623941404778
1539732499741636,1.6784924086366573,-0.5798428320745188,0.45777065690094787
1539732499757636,1.8616006713969,0.03051804379333589,0.5188067444876197
1539732499773635,1.8616006713969,0.3967345693140487,0.5188067444876197
1539732499789635,1.739528496223329,0.3967345693140487,0.45777065690094787
1539732499805635,1.6784924086366573,0.213626306553806,0.3967345693140487
1539732499821635,1.6784924086366573,-0.03051804379333589,0.33569848172737693
1539732499837646,1.6174563210497581,-0.3967345693140487,0.3967345693140487
1539732499853646,1.5564202334630863,-0.5798428320745188,0.5188067444876197
1539732499869646,1.5564202334630863,-0.45777065690094787,0.8239871824216607
1539732499885645,1.6174563210497581,0.03051804379333589,1.2512397955290453
1539732499901645,1.4953841458761872,0.45777065690094787,1.5564202334630863
1539732499917645,1.1902037079423735,0.3967345693140487,1.739528496223329
1539732499933645,0.7629510948347615,-0.09155413138023505,1.6784924086366573
1539732499949645,0.5798428320745188,-0.8850232700083325,1.5564202334630863
1539732499965644,0.6408789196611906,-1.6784924086366573,1.4343480582895154
1539732499981644,0.5798428320745188,-1.983672846570471,1.2512397955290453
1539732499997644,0.5188067444876197,-1.8616006713969,1.1291676203554744
1539732500013644,0.2746623941404778,-1.4343480582895154,1.0070954451819034
1539732500029644,0.15259021896690683,-0.7019150072480898,0.8850232700083325
1539732500045643,0.03051804379333589,-0.213626306553806,0.5798428320745188
1539732500061643,0.15259021896690683,-0.09155413138023505,0.33569848172737693
1539732500077643,0.15259021896690683,-0.03051804379333589,0.03051804379333589
1539732500093643,0.15259021896690683,-0.09155413138023505,-0.33569848172737693
1539732500109643,0.213626306553806,-0.3967345693140487,-0.5188067444876197
1539732500125642,0.3967345693140487,-0.7019150072480898,-0.45777065690094787
1539732500141642,0.6408789196611906,-0.8239871824216607,-0.213626306553806
1539732500157653,0.8239871824216607,-0.7019150072480898,0.213626306553806
1539732500173653,0.9460593575952316,-0.5188067444876197,0.5188067444876197
1539732500189653,1.1291676203554744,-0.33569848172737693,0.7629510948347615
1539732500205653,1.1902037079423735,-0.213626306553806,0.9460593575952316
1539732500221653,1.0681315327688026,-0.2746623941404778,1.0070954451819034
1539732500237652,0.9460593575952316,-0.3967345693140487,1.0070954451819034
1539732500253652,0.9460593575952316,-0.45777065690094787,1.0070954451819034
1539732500269652,0.8850232700083325,-0.7629510948347615,1.1291676203554744
1539732500285652,0.9460593575952316,-1.1291676203554744,1.2512397955290453
1539732500301652,1.1291676203554744,-1.3122758831159445,1.3122758831159445
1539732500317651,1.1902037079423735,-1.4953841458761872,1.3733119707026162
1539732500333651,1.2512397955290453,-1.1291676203554744,1.3733119707026162
1539732500349651,1.1291676203554744,-0.6408789196611906,1.2512397955290453
1539732500365651,0.9460593575952316,-0.5188067444876197,1.0681315327688026
1539732500381651,0.8239871824216607,-0.5798428320745188,0.8850232700083325
1539732500397650,0.8239871824216607,-0.7629510948347615,0.7019150072480898
1539732500413650,0.7019150072480898,-0.5188067444876197,0.5188067444876197
1539732500429650,0.45777065690094787,-0.33569848172737693,0.33569848172737693
1539732500445650,0.09155413138023505,-0.3967345693140487,0.15259021896690683
1539732500461650,-0.03051804379333589,-0.3967345693140487,-0.09155413138023505
1539732500477661,-0.03051804379333589,-0.2746623941404778,-0.15259021896690683
1539732500493661,-0.2746623941404778,-0.213626306553806,-0.15259021896690683
1539732500509661,-0.5188067444876197,-0.09155413138023505,-0.15259021896690683
1539732500525662,-0.7629510948347615,-0.15259021896690683,-0.09155413138023505
1539732500541662,-0.8850232700083325,-0.7019150072480898,0.03051804379333589
1539732500557662,-0.8239871824216607,-1.3733119707026162,0.15259021896690683
1539732500573662,-0.5798428320745188,-1.6784924086366573,0.45777065690094787
1539732500589663,-0.33569848172737693,-1.6784924086366573,0.7629510948347615
1539732500605663,-0.15259021896690683,-1.2512397955290453,1.1291676203554744
1539732500621663,0.03051804379333589,-0.8239871824216607,1.3733119707026162
1539732500637663,0.213626306553806,-0.7019150072480898,1.5564202334630863
1539732500653664,0.3967345693140487,-0.9460593575952316,1.5564202334630863
1539732500669664,0.6408789196611906,-1.1291676203554744,1.3733119707026162
1539732500685664,0.7629510948347615,-1.1291676203554744,1.2512397955290453
1539732500701665,1.0070954451819034,-1.1291676203554744,1.0681315327688026
1539732500717665,1.3122758831159445,-1.1902037079423735,1.0070954451819034
1539732500733665,1.4953841458761872,-0.9460593575952316,0.8850232700083325
1539732500749665,1.6784924086366573,-0.5188067444876197,0.7629510948347615
1539732500765666,1.8616006713969,-0.15259021896690683,0.6408789196611906
1539732500781666,1.983672846570471,-0.03051804379333589,0.5798428320745188
1539732500797668,2.166781109330941,-0.15259021896690683,0.5188067444876197
1539732500813668,2.3498893720911838,-0.3967345693140487,0.5188067444876197
1539732500829669,2.4719615472647547,-0.45777065690094787,0.7629510948347615
1539732500845669,2.288853284504512,-0.15259021896690683,0.8850232700083325
1539732500861669,1.739528496223329,0.09155413138023505,0.8239871824216607
1539732500877669,1.2512397955290453,0.09155413138023505,0.7629510948347615
1539732500893670,0.8850232700083325,-0.2746623941404778,0.3967345693140487
1539732500909670,0.5798428320745188,-0.7629510948347615,0.09155413138023505
1539732500925670,0.45777065690094787,-1.1291676203554744,-0.09155413138023505
1539732500941671,0.33569848172737693,-1.1291676203554744,-0.15259021896690683
1539732500957671,0.213626306553806,-0.9460593575952316,-0.03051804379333589
1539732500973671,0.09155413138023505,-0.8239871824216607,0.213626306553806
1539732500989671,-0.03051804379333589,-0.6408789196611906,0.3967345693140487
1539732501005672,-0.2746623941404778,-0.7019150072480898,0.5188067444876197
1539732501021672,-0.45777065690094787,-1.0681315327688026,0.5798428320745188
1539732501037672,-0.3967345693140487,-1.3733119707026162,0.5798428320745188
1539732501053672,-0.2746623941404778,-1.4343480582895154,0.6408789196611906
1539732501069673,-0.213626306553806,-1.3733119707026162,0.8239871824216607
1539732501085673,-0.09155413138023505,-1.1902037079423735,1.1291676203554744
1539732501101673,-0.15259021896690683,-0.8850232700083325,1.3122758831159445
1539732501117675,-0.213626306553806,-0.45777065690094787,1.3733119707026162
1539732501133676,0.03051804379333589,-0.33569848172737693,1.3122758831159445
1539732501149676,0.2746623941404778,-0.45777065690094787,1.1902037079423735
1539732501165676,0.5188067444876197,-0.8239871824216607,0.8850232700083325
1539732501181676,0.7019150072480898,-1.0681315327688026,0.7629510948347615
1539732501197677,0.8239871824216607,-1.2512397955290453,0.7019150072480898
1539732501213677,0.9460593575952316,-1.1291676203554744,0.8850232700083325
1539732501229677,1.1291676203554744,-0.6408789196611906,1.0681315327688026
1539732501245678,1.3733119707026162,-0.213626306553806,1.1902037079423735
1539732501261678,1.739528496223329,-0.15259021896690683,1.2512397955290453
1539732501277678,1.8005645838102282,-0.33569848172737693,1.3122758831159445
1539732501293678,1.6174563210497581,-0.33569848172737693,1.2512397955290453
1539732501309679,1.2512397955290453,-0.45777065690094787,1.1291676203554744
1539732501325679,1.0681315327688026,-0.5188067444876197,1.0681315327688026
1539732501341679,0.8850232700083325,-0.3967345693140487,0.8239871824216607
1539732501357679,0.8850232700083325,-0.3967345693140487,0.5798428320745188
1539732501373680,0.6408789196611906,-0.45777065690094787,0.3967345693140487
1539732501389680,0.45777065690094787,-0.7019150072480898,0.213626306553806
1539732501405680,0.213626306553806,-1.1291676203554744,0.213626306553806
1539732501421681,0.2746623941404778,-1.5564202334630863,0.15259021896690683
1539732501437652,0.45777065690094787,-1.739528496223329,0.213626306553806
1539732501453652,0.6408789196611906,-1.4953841458761872,0.2746623941404778
1539732501469653,0.7019150072480898,-1.0070954451819034,0.2746623941404778
1539732501485653,0.7019150072480898,-0.6408789196611906,0.2746623941404778
1539732501501653,0.7019150072480898,-0.2746623941404778,0.33569848172737693
1539732501517654,0.7629510948347615,-0.213626306553806,0.5188067444876197
1539732501533654,0.8239871824216607,-0.213626306553806,0.5798428320745188
1539732501549654,0.8239871824216607,-0.5798428320745188,0.6408789196611906
1539732501565654,0.9460593575952316,-0.6408789196611906,0.5798428320745188
1539732501581655,1.1291676203554744,-0.7019150072480898,0.5798428320745188
1539732501597655,1.1291676203554744,-0.8239871824216607,0.7019150072480898
1539732501613655,1.0681315327688026,-0.8239871824216607,0.7629510948347615
1539732501629655,0.9460593575952316,-0.5798428320745188,0.8239871824216607
1539732501645656,0.9460593575952316,-0.3967345693140487,0.8850232700083325
1539732501661656,0.8850232700083325,-0.15259021896690683,0.8239871824216607
1539732501677656,1.0070954451819034,-0.09155413138023505,0.7019150072480898
1539732501693657,1.2512397955290453,-0.213626306553806,0.8239871824216607
1539732501709657,1.3733119707026162,-0.2746623941404778,1.1291676203554744
1539732501725657,1.1291676203554744,-0.213626306553806,1.3122758831159445
1539732501741657,0.7629510948347615,-0.33569848172737693,1.4343480582895154
1539732501757660,0.5798428320745188,-0.5188067444876197,1.3122758831159445
1539732501773660,0.45777065690094787,-0.45777065690094787,1.0070954451819034
1539732501789660,0.213626306553806,-0.6408789196611906,0.7019150072480898
1539732501805660,-0.15259021896690683,-0.9460593575952316,0.45777065690094787
1539732501821661,-0.5188067444876197,-1.1902037079423735,0.33569848172737693
1539732501837661,-0.5798428320745188,-1.3733119707026162,0.213626306553806
1539732501853661,-0.45777065690094787,-1.3733119707026162,0.15259021896690683
1539732501869661,-0.15259021896690683,-1.1902037079423735,-0.03051804379333589
1539732501885662,-0.15259021896690683,-1.0681315327688026,-0.09155413138023505
1539732501901662,-0.15259021896690683,-1.0070954451819034,-0.213626306553806
1539732501917662,-0.09155413138023505,-0.7019150072480898,-0.2746623941404778
1539732501933663,0.213626306553806,-0.33569848172737693,-0.2746623941404778
1539732501949663,0.45777065690094787,-0.45777065690094787,-0.15259021896690683
1539732501965663,0.5798428320745188,-0.7629510948347615,-0.03051804379333589
1539732501981663,0.6408789196611906,-0.8850232700083325,0.2746623941404778
1539732501997664,0.8239871824216607,-0.7019150072480898,0.5798428320745188
1539732502013664,0.9460593575952316,-0.45777065690094787,0.9460593575952316
1539732502029664,1.0070954451819034,-0.33569848172737693,1.1902037079423735
1539732502045664,0.9460593575952316,-0.33569848172737693,1.2512397955290453
1539732502061665,0.9460593575952316,-0.6408789196611906,1.3122758831159445
1539732502077697,1.0681315327688026,-0.8239871824216607,1.2512397955290453
1539732502093698,1.2512397955290453,-0.7019150072480898,1.3122758831159445
1539732502109698,1.4343480582895154,-0.45777065690094787,1.3122758831159445
1539732502125698,1.8005645838102282,-0.2746623941404778,1.3122758831159445
1539732502141698,1.9226367589837992,-0.03051804379333589,1.3733119707026162
1539732502157699,1.739528496223329,0.213626306553806,1.3733119707026162
1539732502173699,1.5564202334630863,0.09155413138023505,1.2512397955290453
1539732502189699,1.3122758831159445,-0.2746623941404778,1.0070954451819034
1539732502205700,1.1902037079423735,-0.7019150072480898,0.7019150072480898
1539732502221700,1.0070954451819034,-1.0681315327688026,0.3967345693140487
1539732502237700,0.7629510948347615,-1.0070954451819034,0.2746623941404778
1539732502253700,0.33569848172737693,-0.7629510948347615,0.2746623941404778
1539732502269701,0.09155413138023505,-0.7629510948347615,0.2746623941404778
1539732502285701,0.09155413138023505,-0.8239871824216607,0.09155413138023505
1539732502301701,0.15259021896690683,-0.7019150072480898,-0.09155413138023505
1539732502317701,0.213626306553806,-0.7019150072480898,-0.2746623941404778
1539732502333702,0.213626306553806,-0.7019150072480898,-0.33569848172737693
1539732502349702,0.2746623941404778,-0.6408789196611906,-0.15259021896690683
1539732502365702,0.45777065690094787,-0.6408789196611906,0.09155413138023505
1539732502381703,0.5188067444876197,-0.7019150072480898,0.3967345693140487
1539732502397674,0.6408789196611906,-0.7629510948347615,0.6408789196611906
1539732502413674,0.6408789196611906,-0.7019150072480898,0.8850232700083325
1539732502429675,0.7019150072480898,-0.7019150072480898,1.0681315327688026
1539732502445675,0.7629510948347615,-0.5188067444876197,1.2512397955290453
1539732502461675,0.6408789196611906,-0.5188067444876197,1.3733119707026162
1539732502477676,0.5798428320745188,-0.7629510948347615,1.4343480582895154
1539732502493676,0.6408789196611906,-0.8850232700083325,1.4343480582895154
1539732502509676,0.8850232700083325,-0.7019150072480898,1.4953841458761872
1539732502525676,1.0681315327688026,-0.5188067444876197,1.4953841458761872
1539732502541677,1.1291676203554744,-0.6408789196611906,1.4953841458761872
1539732502557677,1.2512397955290453,-0.9460593575952316,1.3733119707026162
1539732502573677,1.3122758831159445,-0.9460593575952316,1.3122758831159445
1539732502589677,1.3122758831159445,-0.7019150072480898,1.1902037079423735
1539732502605678,1.2512397955290453,-0.7019150072480898,0.8239871824216607
1539732502621678,1.1291676203554744,-0.7019150072480898,0.33569848172737693
1539732502637678,1.0070954451819034,-0.7019150072480898,-0.09155413138023505
1539732502653679,0.8239871824216607,-0.6408789196611906,-0.2746623941404778
1539732502669679,0.7019150072480898,-0.33569848172737693,-0.45777065690094787
1539732502685679,0.45777065690094787,-0.33569848172737693,-0.6408789196611906
1539732502701679,0.213626306553806,-0.5188067444876197,-0.7019150072480898
1539732502717682,0.2746623941404778,-0.8239871824216607,-0.8850232700083325
1539732502733682,0.2746623941404778,-1.0681315327688026,-0.8850232700083325
1539732502749682,0.213626306553806,-1.1902037079423735,-0.7019150072480898
1539732502765682,0.213626306553806,-1.0681315327688026,-0.3967345693140487
1539732502781683,0.2746623941404778,-0.6408789196611906,-0.03051804379333589
1539732502797683,0.5798428320745188,-0.2746623941404778,0.45777065690094787
1539732502813683,0.7019150072480898,-0.15259021896690683,0.9460593575952316
1539732502829683,0.7629510948347615,-0.213626306553806,1.4343480582895154
1539732502845684,0.8239871824216607,-0.213626306553806,1.8005645838102282
1539732502861684,0.9460593575952316,-0.33569848172737693,2.105745021744042
1539732502877684,0.9460593575952316,-0.45777065690094787,2.288853284504512
1539732502893684,1.0681315327688026,-0.6408789196611906,2.288853284504512
1539732502909685,1.1902037079423735,-0.7629510948347615,2.166781109330941
1539732502925685,1.0681315327688026,-0.7629510948347615,2.105745021744042
1539732502941685,1.0070954451819034,-0.5798428320745188,2.04470893415737
1539732502957686,0.9460593575952316,-0.45777065690094787,1.8616006713969
1539732502973686,1.0681315327688026,-0.33569848172737693,1.6174563210497581
1539732502989686,1.1291676203554744,-0.213626306553806,1.3733119707026162
1539732503005686,1.0070954451819034,-0.15259021896690683,1.0070954451819034
1539732503021687,0.8239871824216607,-0.5188067444876197,0.5798428320745188
1539732503037689,0.5798428320745188,-1.2512397955290453,0.2746623941404778
1539732503053689,0.45777065690094787,-1.8616006713969,-0.03051804379333589
1539732503069689,0.45777065690094787,-1.8616006713969,-0.213626306553806
1539732503085690,0.45777065690094787,-1.3733119707026162,-0.33569848172737693
1539732503101690,0.45777065690094787,-0.8239871824216607,-0.3967345693140487
1539732503117690,0.45777065690094787,-0.33569848172737693,-0.45777065690094787
1539732503133690,0.6408789196611906,-0.15259021896690683,-0.6408789196611906
1539732503149691,0.7629510948347615,-0.213626306553806,-0.7019150072480898
1539732503165691,0.8239871824216607,-0.2746623941404778,-0.6408789196611906
1539732503181691,0.8239871824216607,-0.213626306553806,-0.5798428320745188
1539732503197692,0.9460593575952316,-0.15259021896690683,-0.3967345693140487
1539732503213692,1.1291676203554744,-0.15259021896690683,-0.15259021896690683
1539732503229692,1.1291676203554744,-0.3967345693140487,0.15259021896690683
1539732503245692,0.9460593575952316,-0.8239871824216607,0.7019150072480898
1539732503261693,0.8239871824216607,-1.1902037079423735,0.9460593575952316
1539732503277693,1.0070954451819034,-1.4343480582895154,1.1291676203554744
1539732503293693,1.1902037079423735,-1.4343480582895154,1.3122758831159445
1539732503309693,1.1291676203554744,-1.0681315327688026,1.5564202334630863
1539732503325694,1.0070954451819034,-0.5798428320745188,1.6784924086366573
1539732503341694,0.8850232700083325,-0.2746623941404778,1.6784924086366573
1539732503357666,1.0681315327688026,-0.213626306553806,1.739528496223329
1539732503373666,1.2512397955290453,-0.15259021896690683,1.6784924086366573
1539732503389666,1.4953841458761872,-0.213626306553806,1.6174563210497581
1539732503405666,1.6784924086366573,-0.33569848172737693,1.6784924086366573
1539732503421667,1.739528496223329,-0.15259021896690683,1.6784924086366573
1539732503437667,1.6174563210497581,0.09155413138023505,1.6174563210497581
1539732503453667,1.3122758831159445,0.213626306553806,1.4953841458761872
1539732503469668,0.9460593575952316,0.03051804379333589,1.1291676203554744
1539732503485668,0.7629510948347615,-0.45777065690094787,0.6408789196611906
1539732503501668,0.5798428320745188,-0.9460593575952316,0.33569848172737693
1539732503517668,0.5188067444876197,-0.8850232700083325,0.03051804379333589
1539732503533669,0.213626306553806,-0.6408789196611906,-0.15259021896690683
1539732503549669,-0.09155413138023505,-0.7629510948347615,-0.15259021896690683
1539732503565669,-0.15259021896690683,-0.8850232700083325,-0.213626306553806
1539732503581669,-0.15259021896690683,-1.0070954451819034,-0.33569848172737693
1539732503597670,-0.213626306553806,-1.1291676203554744,-0.3967345693140487
1539732503613670,-0.03051804379333589,-1.4343480582895154,-0.3967345693140487
1539732503629670,0.15259021896690683,-1.4953841458761872,-0.33569848172737693
1539732503645671,0.3967345693140487,-1.3733119707026162,-0.15259021896690683
1539732503661671,0.5188067444876197,-1.0070954451819034,0.03051804379333589
1539732503677673,0.5188067444876197,-0.5798428320745188,0.2746623941404778
1539732503693673,0.45777065690094787,-0.33569848172737693,0.45777065690094787
1539732503709674,0.5798428320745188,-0.33569848172737693,0.5188067444876197
1539732503725674,0.7629510948347615,-0.5188067444876197,0.6408789196611906
1539732503741674,0.9460593575952316,-0.8239871824216607,0.7019150072480898
1539732503757674,1.1291676203554744,-1.0070954451819034,0.7019150072480898
1539732503773675,1.2512397955290453,-0.9460593575952316,0.8850232700083325
1539732503789675,1.4343480582895154,-0.5188067444876197,1.1291676203554744
1539732503805675,1.739528496223329,-0.03051804379333589,1.3122758831159445
1539732503821675,1.983672846570471,0.2746623941404778,1.5564202334630863
1539732503837676,2.166781109330941,-0.15259021896690683,1.8005645838102282
1539732503853676,2.105745021744042,-0.45777065690094787,1.8005645838102282
1539732503869676,1.739528496223329,-0.5798428320745188,1.739528496223329
1539732503885676,1.3122758831159445,-0.7019150072480898,1.4953841458761872
1539732503901677,0.9460593575952316,-0.7019150072480898,1.1902037079423735
1539732503917677,0.7629510948347615,-0.7629510948347615,0.8850232700083325
1539732503933677,0.5798428320745188,-0.5188067444876197,0.6408789196611906
1539732503949678,0.3967345693140487,-0.33569848172737693,0.3967345693140487
1539732503965678,0.03051804379333589,-0.2746623941404778,0.213626306553806
1539732503981678,-0.15259021896690683,-0.5188067444876197,0.03051804379333589
1539732503997711,-0.15259021896690683,-0.8239871824216607,-0.09155413138023505
1539732504013711,-0.09155413138023505,-0.8239871824216607,-0.2746623941404778
1539732504029711,-0.03051804379333589,-0.9460593575952316,-0.3967345693140487
1539732504045712,-0.03051804379333589,-1.1291676203554744,-0.5188067444876197
1539732504061712,0.03051804379333589,-1.3122758831159445,-0.5188067444876197
1539732504077712,0.09155413138023505,-1.1902037079423735,-0.2746623941404778
1539732504093712,0.09155413138023505,-0.8850232700083325,0.03051804379333589
1539732504109713,0.03051804379333589,-0.7629510948347615,0.33569848172737693
1539732504125713,0.09155413138023505,-0.5188067444876197,0.6408789196611906
1539732504141713,0.213626306553806,-0.3967345693140487,0.8239871824216607
1539732504157714,0.3967345693140487,-0.33569848172737693,0.9460593575952316
1539732504173714,0.6408789196611906,-0.2746623941404778,1.1291676203554744
1539732504189714,1.0681315327688026,0.6408789196611906,1.5564202334630863
1539732504205714,2.04470893415737,2.166781109330941,2.8381780727854675
1539732504221715,3.692683299000464,3.0823224231326094,5.523765926604028
1539732504237715,5.706874189364498,5.3406576638437855,7.4158846417944915
1539732504253715,6.134126802471883,4.669260700389032,8.270389868009488
1539732504269715,6.500343327992596,2.7771419851987957,8.392462043183059
1539732504285716,6.317235065232353,-0.33569848172737693,7.965209430075447
1539732504301716,5.584802014190927,-1.5564202334630863,6.500343327992596
1539732504317688,4.791332875562603,-1.6174563210497581,4.669260700389032
1539732504333688,3.692683299000464,-2.3498893720911838,2.8992141603723667
1539732504349688,2.166781109330941,-3.2654306858930795,1.0681315327688026
1539732504365688,1.1291676203554744,-3.875791561760934,-0.7019150072480898
1539732504381689,0.33569848172737693,-4.42511635004189,-1.8005645838102282
1539732504397689,-0.33569848172737693,-5.2185854886702145,-2.227817196917613
1539732504413689,-0.5188067444876197,-5.157549401083315,-2.166781109330941
1539732504429690,-0.3967345693140487,-3.936827649347606,-1.9226367589837992
1539732504445690,-0.2746623941404778,-2.532997634851654,-1.4953841458761872
1539732504461690,-0.33569848172737693,-1.5564202334630863,-1.1291676203554744
1539732504477690,-0.5798428320745188,-1.1902037079423735,-0.7629510948347615
1539732504493691,-0.8850232700083325,-1.1291676203554744,-0.5188067444876197
1539732504509691,-1.1902037079423735,-0.8850232700083325,-0.45777065690094787
1539732504525691,-1.3733119707026162,-0.8239871824216607,-0.5188067444876197
1539732504541691,-1.4343480582895154,-0.9460593575952316,-0.5798428320745188
1539732504557692,-1.3733119707026162,-1.1902037079423735,-0.6408789196611906
1539732504573692,-1.1902037079423735,-1.2512397955290453,-0.7019150072480898
1539732504589692,-1.1291676203554744,-1.3122758831159445,-0.7629510948347615
1539732504605692,-1.1902037079423735,-1.739528496223329,-0.7019150072480898
1539732504621693,-1.1902037079423735,-1.983672846570471,-0.6408789196611906
1539732504637695,-0.8850232700083325,-1.6784924086366573,-0.3967345693140487
1539732504653695,-0.6408789196611906,-1.1902037079423735,-0.15259021896690683
1539732504669695,-0.2746623941404778,-0.8239871824216607,0.213626306553806
1539732504685696,0.15259021896690683,-0.8850232700083325,0.5798428320745188
1539732504701696,0.5188067444876197,-0.7629510948347615,0.8239871824216607
1539732504717696,0.6408789196611906,-0.45777065690094787,1.0070954451819034
1539732504733697,0.8239871824216607,-0.2746623941404778,1.0070954451819034
1539732504749697,1.0681315327688026,-0.2746623941404778,1.0070954451819034
1539732504765697,1.4343480582895154,-0.45777065690094787,0.8850232700083325
1539732504781697,1.6784924086366573,-0.5798428320745188,0.7629510948347615
1539732504797698,1.983672846570471,-0.6408789196611906,0.7629510948347615
1539732504813698,1.983672846570471,-0.5188067444876197,0.5798428320745188
1539732504829698,1.983672846570471,-0.45777065690094787,0.5798428320745188
1539732504845698,1.9226367589837992,-0.7629510948347615,0.7019150072480898
1539732504861699,1.9226367589837992,-0.8850232700083325,0.8239871824216607
1539732504877699,1.9226367589837992,-0.6408789196611906,0.9460593575952316
1539732504893699,1.8616006713969,-0.5188067444876197,1.0681315327688026
1539732504909700,1.739528496223329,-0.3967345693140487,1.0681315327688026
1539732504925700,1.6784924086366573,-0.213626306553806,1.1291676203554744
1539732504941700,1.5564202334630863,-0.213626306553806,1.1291676203554744
1539732504957702,1.4343480582895154,-0.33569848172737693,1.1291676203554744
1539732504973703,1.3733119707026162,-0.45777065690094787,0.9460593575952316
1539732504989703,1.1291676203554744,-0.6408789196611906,0.8850232700083325
1539732505005703,0.9460593575952316,-0.7019150072480898,0.7629510948347615
1539732505021703,0.7629510948347615,-0.8239871824216607,0.6408789196611906
1539732505037704,0.6408789196611906,-0.8850232700083325,0.5798428320745188
1539732505053704,0.45777065690094787,-0.9460593575952316,0.5188067444876197
1539732505069704,0.33569848172737693,-0.8239871824216607,0.5798428320745188
1539732505085704,0.33569848172737693,-0.7629510948347615,0.5798428320745188
1539732505101705,0.45777065690094787,-0.7019150072480898,0.6408789196611906
1539732505117705,0.5798428320745188,-0.6408789196611906,0.8850232700083325
1539732505133705,0.8850232700083325,-2.9602502479590385,1.0681315327688026
1539732505149706,-4.180971999694748,3.692683299000464,0.8850232700083325
1539732505165706,-1.2512397955290453,-16.2050812542916,0.5798428320745188
1539732505181706,4.730296787975931,2.04470893415737,-0.5188067444876197
1539732505197706,3.3264667734797513,2.8381780727854675,0.09155413138023505
1539732505213707,-0.2746623941404778,-3.5095750362402214,1.0070954451819034
1539732505229707,-0.3967345693140487,0.03051804379333589,1.0070954451819034
1539732505245707,-0.03051804379333589,3.0212863355459376,0.8850232700083325
1539732505261707,-0.2746623941404778,1.4343480582895154,-0.45777065690094787
1539732505277679,0.5188067444876197,-0.7019150072480898,-1.1902037079423735
1539732505293679,0.5798428320745188,-2.5940337224383256,-1.4953841458761872
1539732505309680,0.09155413138023505,-2.227817196917613,-1.1902037079423735
1539732505325680,-0.5798428320745188,-1.1902037079423735,0.213626306553806
1539732505341680,-1.3733119707026162,-1.6174563210497581,1.2512397955290453
1539732505357680,-1.1902037079423735,-1.8616006713969,1.2512397955290453
1539732505373681,-0.213626306553806,-0.6408789196611906,0.9460593575952316
1539732505389681,0.45777065690094787,0.45777065690094787,1.1291676203554744
1539732505405681,0.33569848172737693,0.2746623941404778,1.2512397955290453
1539732505421682,0.15259021896690683,-0.7629510948347615,0.8850232700083325
1539732505437682,0.3967345693140487,-1.739528496223329,0.213626306553806
1539732505453682,0.9460593575952316,-1.9226367589837992,0.03051804379333589
1539732505469682,1.3733119707026162,-1.1291676203554744,0.33569848172737693
1539732505485683,1.4343480582895154,-0.5188067444876197,0.8850232700083325
1539732505501683,1.3733119707026162,-0.09155413138023505,1.3733119707026162
1539732505517683,1.4953841458761872,-0.03051804379333589,1.4343480582895154
1539732505533683,1.8616006713969,-0.3967345693140487,1.3122758831159445
1539732505549684,2.288853284504512,-0.8850232700083325,1.3733119707026162
1539732505565684,2.3498893720911838,-0.9460593575952316,1.6174563210497581
1539732505581684,2.166781109330941,-0.5798428320745188,1.8005645838102282
1539732505597686,1.739528496223329,-0.2746623941404778,1.739528496223329
1539732505613687,1.5564202334630863,-0.09155413138023505,1.3733119707026162
1539732505629687,1.6174563210497581,-0.09155413138023505,1.0070954451819034
1539732505645687,1.739528496223329,-0.45777065690094787,0.7629510948347615
1539732505661687,1.6174563210497581,-0.5188067444876197,0.6408789196611906
1539732505677688,1.3122758831159445,-0.5798428320745188,0.45777065690094787
1539732505693688,1.0070954451819034,-0.7019150072480898,0.3967345693140487
1539732505709688,0.9460593575952316,-1.0070954451819034,0.33569848172737693
1539732505725689,1.0070954451819034,-1.1291676203554744,0.45777065690094787
1539732505741689,0.8850232700083325,-1.0681315327688026,0.5188067444876197
1539732505757689,0.7019150072480898,-1.0070954451819034,0.5188067444876197
1539732505773689,0.5798428320745188,-0.7019150072480898,0.5188067444876197
1539732505789690,0.5188067444876197,-0.45777065690094787,0.5188067444876197
1539732505805690,0.45777065690094787,-0.33569848172737693,0.45777065690094787
1539732505821690,0.2746623941404778,-0.5188067444876197,0.33569848172737693
1539732505837690,0.15259021896690683,-0.7019150072480898,0.2746623941404778
1539732505853691,0.15259021896690683,-0.6408789196611906,0.213626306553806
1539732505869691,0.09155413138023505,-0.5798428320745188,0.2746623941404778
1539732505885691,0.09155413138023505,-0.5798428320745188,0.3967345693140487
1539732505901692,0.15259021896690683,-0.5798428320745188,0.5188067444876197
1539732505917724,0.15259021896690683,-0.7019150072480898,0.5798428320745188
1539732505933725,0.2746623941404778,-0.8239871824216607,0.6408789196611906
1539732505949725,0.33569848172737693,-0.8239871824216607,0.7629510948347615
1539732505965725,0.6408789196611906,-0.8239871824216607,0.8850232700083325
1539732505981725,0.8850232700083325,-0.8239871824216607,0.9460593575952316
1539732505997726,1.1291676203554744,-0.7019150072480898,1.0681315327688026
1539732506013726,1.1291676203554744,-0.33569848172737693,1.0681315327688026
1539732506029726,1.0070954451819034,-0.15259021896690683,1.0070954451819034
1539732506045726,0.9460593575952316,-0.2746623941404778,0.8239871824216607
1539732506061727,1.0681315327688026,-0.33569848172737693,0.5188067444876197
1539732506077727,1.0070954451819034,-0.3967345693140487,0.2746623941404778
1539732506093727,0.8850232700083325,-0.45777065690094787,0.213626306553806
1539732506109727,0.7629510948347615,-0.3967345693140487,0.15259021896690683
1539732506125728,0.7019150072480898,-0.5188067444876197,0.213626306553806
1539732506141728,0.6408789196611906,-0.5798428320745188,0.33569848172737693
1539732506157728,0.6408789196611906,-0.7019150072480898,0.5188067444876197
1539732506173729,0.6408789196611906,-0.8239871824216607,0.5798428320745188
1539732506189729,0.5798428320745188,-0.9460593575952316,0.6408789196611906
1539732506205729,0.5188067444876197,-0.8850232700083325,0.6408789196611906
1539732506221729,0.6408789196611906,-0.7019150072480898,0.8239871824216607
1539732506237701,0.7019150072480898,-0.6408789196611906,1.0070954451819034
1539732506253701,0.7629510948347615,-0.6408789196611906,1.0681315327688026
1539732506269702,0.8239871824216607,-0.45777065690094787,1.0681315327688026
1539732506285702,0.8239871824216607,-0.3967345693140487,1.1291676203554744
1539732506301702,0.9460593575952316,-0.45777065690094787,1.1291676203554744
1539732506317702,1.1291676203554744,-0.3967345693140487,1.0070954451819034
1539732506333703,1.1902037079423735,-0.3967345693140487,0.9460593575952316
1539732506349703,1.1902037079423735,-0.5798428320745188,0.8850232700083325
1539732506365703,1.3122758831159445,-0.3967345693140487,0.8850232700083325
1539732506381703,1.3733119707026162,-0.2746623941404778,0.9460593575952316
1539732506397704,1.1902037079423735,-0.5188067444876197,1.0070954451819034
1539732506413704,1.2512397955290453,-0.7019150072480898,1.1291676203554744
1539732506429704,1.1291676203554744,-0.9460593575952316,1.1902037079423735
1539732506445705,1.0070954451819034,-0.7019150072480898,1.1291676203554744
1539732506461705,0.7019150072480898,-0.9460593575952316,1.0070954451819034
1539732506477705,0.33569848172737693,-1.3733119707026162,0.7629510948347615
1539732506493705,0.45777065690094787,-0.5798428320745188,0.15259021896690683
1539732506509706,0.6408789196611906,0.33569848172737693,-0.3967345693140487
1539732506525706,0.5798428320745188,0.3967345693140487,-0.5798428320745188
1539732506541706,0.5188067444876197,0.45777065690094787,-0.7019150072480898
1539732506557708,0.45777065690094787,0.6408789196611906,-0.7629510948347615
1539732506573709,0.33569848172737693,0.213626306553806,-0.5798428320745188
1539732506589709,0.3967345693140487,-0.15259021896690683,-0.2746623941404778
1539732506605709,0.45777065690094787,-1.0681315327688026,0.15259021896690683
1539732506621709,0.2746623941404778,-2.105745021744042,0.5798428320745188
1539732506637710,0.15259021896690683,-2.532997634851654,1.0681315327688026
1539732506653710,0.213626306553806,-1.983672846570471,1.4343480582895154
1539732506669710,0.45777065690094787,-1.0681315327688026,1.6784924086366573
1539732506685711,0.6408789196611906,-0.3967345693140487,1.8616006713969
1539732506701711,0.8239871824216607,-0.09155413138023505,1.983672846570471
1539732506717711,0.9460593575952316,0.15259021896690683,2.04470893415737
1539732506733711,1.0681315327688026,0.6408789196611906,1.9226367589837992
1539732506749712,1.0070954451819034,0.15259021896690683,1.6784924086366573
1539732506765712,1.0681315327688026,-0.8239871824216607,1.3122758831159445
1539732506781712,1.3122758831159445,-1.3122758831159445,0.8850232700083325
1539732506797712,1.4343480582895154,-1.6174563210497581,0.5798428320745188
1539732506813713,1.2512397955290453,-1.6174563210497581,0.33569848172737693
1539732506829713,1.0681315327688026,-1.3122758831159445,0.2746623941404778
1539732506845713,0.9460593575952316,-1.2512397955290453,0.213626306553806
1539732506861714,1.0070954451819034,-1.0681315327688026,0.213626306553806
1539732506877716,1.1902037079423735,-0.5188067444876197,0.33569848172737693
1539732506893716,1.1902037079423735,0.09155413138023505,0.3967345693140487
1539732506909716,1.0070954451819034,0.213626306553806,0.2746623941404778
1539732506925717,0.8239871824216607,0.03051804379333589,-0.03051804379333589
1539732506941717,0.9460593575952316,-0.2746623941404778,-0.33569848172737693
1539732506957717,0.9460593575952316,-0.7629510948347615,-0.5188067444876197
1539732506973717,0.8239871824216607,-1.3122758831159445,-0.5798428320745188
1539732506989718,0.7629510948347615,-1.3733119707026162,-0.45777065690094787
1539732507005718,0.6408789196611906,-1.1902037079423735,-0.33569848172737693
1539732507021718,0.7019150072480898,-1.1902037079423735,-0.03051804379333589
1539732507037718,0.6408789196611906,-0.7019150072480898,0.2746623941404778
1539732507053719,0.5798428320745188,-0.15259021896690683,0.5798428320745188
1539732507069719,0.45777065690094787,0.03051804379333589,0.9460593575952316
1539732507085719,0.45777065690094787,0.2746623941404778,1.2512397955290453
1539732507101719,0.5188067444876197,0.2746623941404778,1.4953841458761872
1539732507117720,0.6408789196611906,-0.15259021896690683,1.8005645838102282
1539732507133720,0.7019150072480898,-0.2746623941404778,1.8616006713969
1539732507149720,0.7629510948347615,-0.3967345693140487,1.9226367589837992
1539732507165721,0.7629510948347615,-0.6408789196611906,1.983672846570471
1539732507181721,0.8850232700083325,-0.7019150072480898,1.9226367589837992
1539732507197692,1.0070954451819034,-0.7019150072480898,1.8005645838102282
1539732507213693,1.0070954451819034,-0.6408789196611906,1.6174563210497581
1539732507229693,0.9460593575952316,-0.5798428320745188,1.4343480582895154
1539732507245693,0.8239871824216607,-0.3967345693140487,1.3122758831159445
1539732507261694,0.8850232700083325,-0.09155413138023505,1.1291676203554744
1539732507277694,0.8850232700083325,0.09155413138023505,1.0070954451819034
1539732507293694,1.1291676203554744,-0.15259021896690683,0.8239871824216607
1539732507309694,1.4343480582895154,-0.5188067444876197,0.7019150072480898
1539732507325695,1.6784924086366573,-0.7629510948347615,0.6408789196611906
1539732507341695,1.6174563210497581,-0.5798428320745188,0.45777065690094787
1539732507357695,1.3733119707026162,-0.2746623941404778,0.213626306553806
1539732507373695,1.0070954451819034,-0.213626306553806,-0.09155413138023505
1539732507389696,0.8850232700083325,-0.6408789196611906,-0.3967345693140487
1539732507405696,0.7629510948347615,-0.8239871824216607,-0.5188067444876197
1539732507421696,0.5798428320745188,-0.8850232700083325,-0.5188067444876197
1539732507437697,0.33569848172737693,-0.7629510948347615,-0.33569848172737693
1539732507453697,0.15259021896690683,-0.7019150072480898,-0.09155413138023505
1539732507469697,0.09155413138023505,-1.0681315327688026,0.15259021896690683
1539732507485697,0.213626306553806,-1.3122758831159445,0.45777065690094787
1539732507501698,0.33569848172737693,-1.3122758831159445,0.6408789196611906
1539732507517730,0.3967345693140487,-1.4343480582895154,0.7629510948347615
1539732507533731,0.5188067444876197,-1.4953841458761872,0.8850232700083325
1539732507549731,0.5798428320745188,-1.3122758831159445,1.0681315327688026
1539732507565731,0.6408789196611906,-1.0070954451819034,1.1291676203554744
1539732507581731,0.5798428320745188,-0.5798428320745188,1.2512397955290453
1539732507597732,0.45777065690094787,-0.09155413138023505,1.1902037079423735
1539732507613732,0.45777065690094787,-0.03051804379333589,1.0681315327688026
1539732507629732,0.7019150072480898,-0.03051804379333589,0.8850232700083325
1539732507645733,0.9460593575952316,-0.45777065690094787,0.7019150072480898
1539732507661733,0.8850232700083325,-1.1902037079423735,0.6408789196611906
1539732507677733,0.7629510948347615,-1.1902037079423735,0.7019150072480898
1539732507693733,0.8239871824216607,-0.7629510948347615,0.7629510948347615
1539732507709734,0.8850232700083325,-0.7019150072480898,1.0070954451819034
1539732507725734,1.1291676203554744,-0.6408789196611906,1.1291676203554744
1539732507741734,1.4953841458761872,-0.6408789196611906,1.2512397955290453
1539732507757734,1.6784924086366573,-0.7629510948347615,1.4343480582895154
1539732507773735,1.739528496223329,-0.33569848172737693,1.5564202334630863
1539732507789735,1.5564202334630863,0.213626306553806,1.5564202334630863
1539732507805735,1.1902037079423735,0.45777065690094787,1.3122758831159445
1539732507821735,0.8850232700083325,0.33569848172737693,1.0070954451819034
1539732507837738,0.8239871824216607,0.09155413138023505,0.5798428320745188
1539732507853738,0.7019150072480898,-0.33569848172737693,0.15259021896690683
1539732507869738,0.7019150072480898,-0.7629510948347615,-0.213626306553806
1539732507885738,0.6408789196611906,-0.8239871824216607,-0.33569848172737693
1539732507901739,0.5188067444876197,-0.7019150072480898,-0.33569848172737693
1539732507917739,0.5188067444876197,-0.7629510948347615,-0.15259021896690683
1539732507933739,0.7019150072480898,-0.8239871824216607,0.09155413138023505
1539732507949740,0.8239871824216607,-0.7629510948347615,0.33569848172737693
1539732507965740,0.8850232700083325,-0.7019150072480898,0.5188067444876197
1539732507981740,0.8850232700083325,-0.6408789196611906,0.6408789196611906
1539732507997740,0.8850232700083325,-0.5188067444876197,0.8850232700083325
1539732508013741,1.0070954451819034,-0.3967345693140487,1.0681315327688026
1539732508029741,1.1291676203554744,-0.15259021896690683,1.1291676203554744
1539732508045741,1.1902037079423735,-0.09155413138023505,1.1291676203554744
1539732508061741,1.3122758831159445,0.03051804379333589,1.0681315327688026
1539732508077742,1.3733119707026162,-0.09155413138023505,1.0681315327688026
1539732508093742,1.4953841458761872,-0.3967345693140487,0.9460593575952316
1539732508109742,1.5564202334630863,-0.33569848172737693,0.8850232700083325
1539732508125743,1.3733119707026162,-0.09155413138023505,0.8239871824216607
1539732508141743,1.0681315327688026,0.15259021896690683,0.8239871824216607
1539732508157714,0.8239871824216607,0.5188067444876197,0.7629510948347615
1539732508173715,0.9460593575952316,0.7019150072480898,0.45777065690094787
1539732508189715,1.3122758831159445,0.45777065690094787,0.33569848172737693
1539732508205715,1.739528496223329,0.15259021896690683,0.2746623941404778
1539732508221716,1.739528496223329,0.33569848172737693,0.2746623941404778
1539732508237716,1.3122758831159445,0.7019150072480898,0.213626306553806
1539732508253716,0.8239871824216607,0.9460593575952316,0.09155413138023505
1539732508269716,0.6408789196611906,0.45777065690094787,-0.213626306553806
1539732508285717,0.8850232700083325,-0.3967345693140487,-0.7019150072480898
1539732508301717,1.2512397955290453,-1.2512397955290453,-1.0681315327688026
1539732508317717,1.4343480582895154,-1.6174563210497581,-1.1291676203554744
1539732508333717,1.3733119707026162,-1.6174563210497581,-0.9460593575952316
1539732508349718,1.2512397955290453,-1.2512397955290453,-0.3967345693140487
1539732508365718,1.1291676203554744,-0.7019150072480898,0.2746623941404778
1539732508381718,1.1291676203554744,0.03051804379333589,0.7019150072480898
1539732508397719,0.9460593575952316,0.213626306553806,0.8850232700083325
1539732508413719,0.5798428320745188,-0.09155413138023505,0.7629510948347615
1539732508429719,0.33569848172737693,-0.5798428320745188,0.7019150072480898
1539732508445719,0.33569848172737693,-1.0070954451819034,0.7629510948347615
1539732508461720,0.2746623941404778,-1.1902037079423735,0.8850232700083325
1539732508477722,0.09155413138023505,-0.9460593575952316,1.0681315327688026
1539732508493722,0.03051804379333589,-0.7629510948347615,1.1902037079423735
1539732508509722,0.09155413138023505,-0.7019150072480898,1.3122758831159445
1539732508525723,0.213626306553806,-0.6408789196611906,1.2512397955290453
1539732508541723,0.213626306553806,-0.7629510948347615,1.0681315327688026
1539732508557723,0.213626306553806,-1.1902037079423735,0.8850232700083325
1539732508573723,0.09155413138023505,-1.5564202334630863,0.8850232700083325
1539732508589724,0.15259021896690683,-1.4953841458761872,1.0070954451819034
1539732508605724,0.213626306553806,-1.1902037079423735,1.2512397955290453
1539732508621724,0.33569848172737693,-1.0681315327688026,1.4343480582895154
1539732508637725,0.5798428320745188,-0.7629510948347615,1.5564202334630863
1539732508653725,0.5798428320745188,-0.3967345693140487,1.5564202334630863
1539732508669725,0.3967345693140487,-0.2746623941404778,1.2512397955290453
1539732508685725,0.09155413138023505,-0.15259021896690683,0.8239871824216607
1539732508701726,0.03051804379333589,-0.33569848172737693,0.33569848172737693
1539732508717726,0.15259021896690683,-0.45777065690094787,-0.03051804379333589
1539732508733726,0.3967345693140487,-0.5798428320745188,-0.2746623941404778
1539732508749726,0.45777065690094787,-1.0070954451819034,-0.213626306553806
1539732508765727,0.5188067444876197,-1.4343480582895154,0.03051804379333589
1539732508781727,0.5798428320745188,-1.4343480582895154,0.213626306553806
1539732508797729,0.7629510948347615,-0.9460593575952316,0.33569848172737693
1539732508813729,0.9460593575952316,-0.6408789196611906,0.45777065690094787
1539732508829730,0.9460593575952316,-0.7019150072480898,0.3967345693140487
1539732508845730,1.0070954451819034,-0.9460593575952316,0.33569848172737693
1539732508861730,1.0681315327688026,-0.8239871824216607,0.3967345693140487
1539732508877730,1.2512397955290453,-0.5798428320745188,0.5188067444876197
1539732508893731,1.4343480582895154,-0.213626306553806,0.7629510948347615
1539732508909731,1.5564202334630863,0.15259021896690683,0.9460593575952316
1539732508925731,1.5564202334630863,0.33569848172737693,1.0070954451819034
1539732508941732,1.4343480582895154,0.213626306553806,1.0681315327688026
1539732508957732,1.3733119707026162,-0.15259021896690683,1.0070954451819034
1539732508973732,1.2512397955290453,-0.6408789196611906,1.0070954451819034
1539732508989732,1.2512397955290453,-0.7629510948347615,1.0681315327688026
1539732509005733,1.0681315327688026,-0.8239871824216607,1.1291676203554744
1539732509021733,0.8850232700083325,-0.7629510948347615,1.3733119707026162
1539732509037733,0.7019150072480898,-0.33569848172737693,1.5564202334630863
1539732509053733,0.6408789196611906,-0.213626306553806,1.5564202334630863
1539732509069734,0.8239871824216607,-0.5188067444876197,1.5564202334630863
1539732509085734,1.0070954451819034,-0.8239871824216607,1.5564202334630863
1539732509101734,0.8239871824216607,-0.8850232700083325,1.4343480582895154
1539732509117706,0.3967345693140487,-0.8239871824216607,1.1291676203554744
1539732509133706,0.03051804379333589,-0.8239871824216607,0.8239871824216607
1539732509149706,-0.213626306553806,-0.8850232700083325,0.3967345693140487
1539732509165707,-0.33569848172737693,-1.0681315327688026,-0.09155413138023505
1539732509181707,-0.45777065690094787,-1.2512397955290453,-0.45777065690094787
1539732509197707,-0.5798428320745188,-1.6174563210497581,-0.7019150072480898
1539732509213708,-0.5188067444876197,-1.4343480582895154,-0.7019150072480898
1539732509229708,-0.15259021896690683,-1.0681315327688026,-0.7019150072480898
1539732509245708,0.15259021896690683,-0.8850232700083325,-0.45777065690094787
1539732509261708,0.3967345693140487,-0.7019150072480898,-0.2746623941404778
1539732509277709,0.6408789196611906,-0.5798428320745188,-0.15259021896690683
1539732509293709,0.7629510948347615,-0.45777065690094787,0.03051804379333589
1539732509309709,1.0681315327688026,-0.45777065690094787,0.33569848172737693
1539732509325709,1.1902037079423735,-0.6408789196611906,0.5798428320745188
1539732509341710,1.3733119707026162,-0.8239871824216607,0.8239871824216607
1539732509357710,1.4343480582895154,-0.7019150072480898,1.0070954451819034
1539732509373710,1.4953841458761872,-0.2746623941404778,1.3122758831159445
1539732509389711,1.6174563210497581,-0.09155413138023505,1.4343480582895154
1539732509405711,1.6784924086366573,-0.09155413138023505,1.5564202334630863
1539732509421711,1.6784924086366573,-0.213626306553806,1.4953841458761872
1539732509437744,1.6174563210497581,-0.5798428320745188,1.4343480582895154
1539732509453744,1.4953841458761872,-1.0681315327688026,1.3122758831159445
1539732509469744,1.3733119707026162,-1.1902037079423735,1.3122758831159445
1539732509485745,1.3122758831159445,-0.8850232700083325,1.2512397955290453
1539732509501745,1.3122758831159445,-0.8239871824216607,1.2512397955290453
1539732509517745,1.3733119707026162,-0.8239871824216607,1.1291676203554744
1539732509533745,1.4343480582895154,-0.9460593575952316,1.0681315327688026
1539732509549746,1.1902037079423735,-0.7019150072480898,0.8850232700083325
1539732509565746,0.7629510948347615,-0.5798428320745188,0.6408789196611906
1539732509581746,0.33569848172737693,-0.5798428320745188,0.45777065690094787
1539732509597746,0.09155413138023505,-0.5798428320745188,0.09155413138023505
1539732509613747,-0.09155413138023505,-0.7019150072480898,-0.2746623941404778
1539732509629747,-0.2746623941404778,-0.9460593575952316,-0.45777065690094787
1539732509645747,-0.3967345693140487,-1.0681315327688026,-0.5188067444876197
1539732509661748,-0.45777065690094787,-1.1291676203554744,-0.33569848172737693
1539732509677748,-0.3967345693140487,-1.1291676203554744,-0.09155413138023505
1539732509693748,-0.15259021896690683,-0.8850232700083325,0.03051804379333589
1539732509709748,0.03051804379333589,-0.7629510948347615,0.213626306553806
1539732509725749,0.09155413138023505,-0.8850232700083325,0.33569848172737693
1539732509741749,0.15259021896690683,-1.0070954451819034,0.5188067444876197
1539732509757751,0.2746623941404778,-0.8850232700083325,0.7019150072480898
1539732509773751,0.5188067444876197,-0.5798428320745188,0.8850232700083325
1539732509789752,0.5798428320745188,-0.45777065690094787,1.0070954451819034
1539732509805752,0.6408789196611906,-0.6408789196611906,1.1902037079423735
1539732509821752,0.7019150072480898,-0.7019150072480898,1.2512397955290453
1539732509837752,0.9460593575952316,-0.7019150072480898,1.2512397955290453
1539732509853753,1.0681315327688026,-0.5798428320745188,1.2512397955290453
1539732509869753,1.0681315327688026,-0.5798428320745188,1.1902037079423735
1539732509885753,1.0070954451819034,-0.7019150072480898,1.0070954451819034
1539732509901754,1.0070954451819034,-0.8850232700083325,0.8850232700083325
1539732509917754,1.0070954451819034,-0.7629510948347615,0.8239871824216607
1539732509933754,1.1291676203554744,-0.45777065690094787,0.7629510948347615
1539732509949754,1.3733119707026162,-0.45777065690094787,0.7019150072480898
1539732509965755,1.6784924086366573,-0.5188067444876197,0.7019150072480898
1539732509981755,1.9226367589837992,-0.5798428320745188,0.7019150072480898
1539732509997755,1.9226367589837992,-0.2746623941404778,0.8850232700083325
1539732510013755,1.6174563210497581,-0.09155413138023505,0.8850232700083325
1539732510029756,1.1902037079423735,-0.09155413138023505,0.7629510948347615
1539732510045756,0.9460593575952316,-0.33569848172737693,0.3967345693140487
1539732510061756,0.7629510948347615,-0.6408789196611906,0.09155413138023505
1539732510077728,0.6408789196611906,-0.8239871824216607,-0.09155413138023505
1539732510093728,0.33569848172737693,-0.8850232700083325,-0.15259021896690683
1539732510109728,-0.03051804379333589,-0.8239871824216607,0.03051804379333589
1539732510125729,-0.15259021896690683,-0.8850232700083325,0.213626306553806
1539732510141729,0.03051804379333589,-0.8239871824216607,0.3967345693140487
1539732510157729,0.09155413138023505,-0.8239871824216607,0.45777065690094787
1539732510173730,0.213626306553806,-0.7629510948347615,0.5798428320745188
1539732510189730,0.213626306553806,-0.7629510948347615,0.6408789196611906
1539732510205730,0.3967345693140487,-0.7019150072480898,0.8239871824216607
1539732510221730,0.5188067444876197,-0.5798428320745188,1.0681315327688026
1539732510237731,0.5798428320745188,-0.5798428320745188,1.0681315327688026
1539732510253731,0.5798428320745188,-0.5188067444876197,1.1902037079423735
1539732510269731,0.7019150072480898,-0.5798428320745188,1.3122758831159445
1539732510285731,0.7629510948347615,-0.7629510948347615,1.3733119707026162
1539732510301732,0.8850232700083325,-0.7629510948347615,1.2512397955290453
1539732510317732,0.8850232700083325,-0.7629510948347615,1.1902037079423735
1539732510333732,0.8239871824216607,-0.8239871824216607,1.0070954451819034
1539732510349733,0.8239871824216607,-0.8239871824216607,0.9460593575952316
1539732510365733,0.8850232700083325,-0.8239871824216607,0.8239871824216607
1539732510381733,0.9460593575952316,-0.6408789196611906,0.7019150072480898
1539732510397735,1.0070954451819034,-0.5798428320745188,0.5798428320745188
1539732510413735,1.0681315327688026,-0.8239871824216607,0.6408789196611906
1539732510429736,1.3122758831159445,-0.8850232700083325,0.6408789196611906
1539732510445736,1.5564202334630863,-0.7019150072480898,0.7629510948347615
1539732510461736,1.4343480582895154,-0.3967345693140487,0.8239871824216607
1539732510477737,1.1291676203554744,-0.213626306553806,0.7019150072480898
1539732510493737,0.7629510948347615,-0.2746623941404778,0.45777065690094787
1539732510509737,0.5798428320745188,-0.45777065690094787,0.15259021896690683
1539732510525737,0.45777065690094787,-0.7629510948347615,-0.09155413138023505
1539732510541738,0.33569848172737693,-0.9460593575952316,-0.09155413138023505
1539732510557738,0.213626306553806,-0.8239871824216607,-0.03051804379333589
1539732510573738,0.09155413138023505,-0.7019150072480898,0.15259021896690683
1539732510589738,0.09155413138023505,-0.7019150072480898,0.33569848172737693
1539732510605739,0.213626306553806,-0.7019150072480898,0.45777065690094787
1539732510621739,0.33569848172737693,-0.5798428320745188,0.6408789196611906
1539732510637739,0.3967345693140487,-0.6408789196611906,0.7019150072480898
1539732510653740,0.45777065690094787,-0.5188067444876197,0.8850232700083325
1539732510669740,0.5798428320745188,-0.6408789196611906,1.0070954451819034
1539732510685740,0.6408789196611906,-0.9460593575952316,1.2512397955290453
1539732510701740,0.7019150072480898,-0.8850232700083325,1.2512397955290453
1539732510717743,0.7629510948347615,-0.5798428320745188,1.2512397955290453
1539732510733743,0.7629510948347615,-0.33569848172737693,1.1902037079423735
1539732510749743,0.9460593575952316,-0.2746623941404778,1.1291676203554744
1539732510765743,1.1291676203554744,-0.33569848172737693,1.0070954451819034
1539732510781744,1.3122758831159445,-0.3967345693140487,0.9460593575952316
1539732510797744,1.2512397955290453,-0.5798428320745188,0.8239871824216607
1539732510813744,1.3122758831159445,-0.8850232700083325,0.7629510948347615
1539732510829744,1.4343480582895154,-1.0681315327688026,0.6408789196611906
1539732510845745,1.4953841458761872,-0.8850232700083325,0.45777065690094787
1539732510861745,1.4953841458761872,-0.7629510948347615,0.3967345693140487
1539732510877745,1.4953841458761872,-1.0070954451819034,0.45777065690094787
1539732510893746,1.4953841458761872,-1.3733119707026162,0.5798428320745188
1539732510909746,1.4343480582895154,-1.1902037079423735,0.7019150072480898
1539732510925746,1.3122758831159445,-0.8850232700083325,0.6408789196611906
1539732510941746,0.9460593575952316,-0.7629510948347615,0.5188067444876197
1539732510957747,0.7019150072480898,-0.7019150072480898,0.2746623941404778
1539732510973747,0.5188067444876197,-0.7629510948347615,-0.03051804379333589
1539732510989747,0.33569848172737693,-0.8850232700083325,-0.213626306553806
1539732511005747,0.09155413138023505,-0.7629510948347615,-0.2746623941404778
1539732511021748,0.09155413138023505,-0.6408789196611906,-0.33569848172737693
1539732511037780,0.03051804379333589,-1.0070954451819034,-0.213626306553806
1539732511053781,0.15259021896690683,-1.3122758831159445,0.03051804379333589
1539732511069781,0.33569848172737693,-1.2512397955290453,0.213626306553806
1539732511085781,0.3967345693140487,-0.8850232700083325,0.5188067444876197
1539732511101781,0.3967345693140487,-0.45777065690094787,0.7019150072480898
1539732511117782,0.45777065690094787,-0.33569848172737693,0.8239871824216607
1539732511133782,0.5798428320745188,-0.33569848172737693,0.8850232700083325
1539732511149782,0.6408789196611906,-0.5188067444876197,1.0070954451819034
1539732511165783,0.6408789196611906,-0.6408789196611906,1.1291676203554744
1539732511181783,0.7019150072480898,-0.5188067444876197,1.3122758831159445
1539732511197783,0.8850232700083325,-0.45777065690094787,1.4343480582895154
1539732511213783,1.0070954451819034,-0.3967345693140487,1.4953841458761872
1539732511229784,1.0681315327688026,-0.33569848172737693,1.4343480582895154
1539732511245784,0.9460593575952316,-0.3967345693140487,1.4343480582895154
1539732511261784,0.8850232700083325,-0.5798428320745188,1.2512397955290453
1539732511277784,0.8239871824216607,-0.5798428320745188,1.2512397955290453
1539732511293785,0.8239871824216607,-0.7019150072480898,1.1902037079423735
1539732511309785,0.7629510948347615,-0.7019150072480898,1.0681315327688026
1539732511325785,0.8850232700083325,-0.6408789196611906,1.0070954451819034
1539732511341786,0.8850232700083325,-0.6408789196611906,1.0070954451819034
1539732511357757,0.8239871824216607,-0.2746623941404778,0.9460593575952316
1539732511373757,0.6408789196611906,-0.03051804379333589,0.7629510948347615
1539732511389758,0.33569848172737693,-0.15259021896690683,0.5188067444876197
1539732511405758,0.15259021896690683,-0.3967345693140487,0.03051804379333589
1539732511421758,0.09155413138023505,-0.5798428320745188,-0.213626306553806
1539732511437759,0.15259021896690683,-0.5798428320745188,-0.3967345693140487
1539732511453759,0.09155413138023505,-0.5188067444876197,-0.2746623941404778
1539732511469759,0.03051804379333589,-0.45777065690094787,-0.03051804379333589
1539732511485759,0.03051804379333589,-0.5188067444876197,0.2746623941404778
1539732511501760,0.15259021896690683,-0.7019150072480898,0.5798428320745188
1539732511517760,0.33569848172737693,-0.8850232700083325,0.7629510948347615
1539732511533760,0.5188067444876197,-0.7019150072480898,0.8850232700083325
1539732511549760,0.5798428320745188,-0.3967345693140487,1.0070954451819034
1539732511565761,0.5798428320745188,-0.2746623941404778,1.1291676203554744
1539732511581761,0.7019150072480898,-0.15259021896690683,1.2512397955290453
1539732511597761,0.7629510948347615,-0.03051804379333589,1.3733119707026162
1539732511613762,0.8850232700083325,-0.09155413138023505,1.4343480582895154
1539732511629762,1.0681315327688026,-0.15259021896690683,1.4953841458761872
1539732511645762,1.1902037079423735,-0.3967345693140487,1.4953841458761872
1539732511661762,1.1902037079423735,-0.5798428320745188,1.4343480582895154
1539732511677765,1.0070954451819034,-0.8850232700083325,1.2512397955290453
1539732511693765,0.7629510948347615,-1.0681315327688026,1.0681315327688026
1539732511709765,0.5798428320745188,-1.2512397955290453,0.8850232700083325
1539732511725765,0.6408789196611906,-1.0681315327688026,0.7629510948347615
1539732511741766,0.7019150072480898,-0.8850232700083325,0.6408789196611906
1539732511757766,0.7629510948347615,-0.8850232700083325,0.5188067444876197
1539732511773766,0.9460593575952316,-0.8850232700083325,0.45777065690094787
1539732511789766,1.0070954451819034,-0.5798428320745188,0.3967345693140487
1539732511805767,0.8850232700083325,-0.09155413138023505,0.213626306553806
1539732511821767,0.7019150072480898,-0.03051804379333589,-0.03051804379333589
1539732511837767,0.5188067444876197,-0.33569848172737693,-0.3967345693140487
1539732511853767,0.33569848172737693,-0.7019150072480898,-0.7019150072480898
1539732511869768,0.213626306553806,-1.0070954451819034,-0.7629510948347615
1539732511885768,0.15259021896690683,-1.0070954451819034,-0.5798428320745188
1539732511901768,0.03051804379333589,-0.6408789196611906,-0.2746623941404778
1539732511917769,-0.03051804379333589,-0.6408789196611906,0.09155413138023505
1539732511933769,-0.09155413138023505,-0.9460593575952316,0.3967345693140487
1539732511949769,0.03051804379333589,-1.0070954451819034,0.7019150072480898
1539732511965769,0.15259021896690683,-0.9460593575952316,0.8239871824216607
1539732511981770,0.15259021896690683,-0.8850232700083325,1.0681315327688026
1539732511997772,0.33569848172737693,-0.8850232700083325,1.1902037079423735
1539732512013772,0.5798428320745188,-0.7019150072480898,1.3122758831159445
1539732512029772,0.7629510948347615,-0.5798428320745188,1.4953841458761872
1539732512045773,0.9460593575952316,-0.33569848172737693,1.5564202334630863
1539732512061773,1.0681315327688026,-0.15259021896690683,1.4343480582895154
1539732512077773,1.1902037079423735,-0.15259021896690683,1.2512397955290453
1539732512093773,1.2512397955290453,-0.3967345693140487,1.0681315327688026
1539732512109774,1.3122758831159445,-0.5798428320745188,0.9460593575952316
1539732512125774,1.3122758831159445,-0.7019150072480898,0.8239871824216607
1539732512141774,1.2512397955290453,-0.7019150072480898,0.7019150072480898
1539732512157775,1.1902037079423735,-0.33569848172737693,0.7019150072480898
1539732512173775,1.0681315327688026,-0.03051804379333589,0.7019150072480898
1539732512189775,0.9460593575952316,0.15259021896690683,0.5798428320745188
1539732512205775,0.9460593575952316,-0.03051804379333589,0.45777065690094787
1539732512221776,0.8239871824216607,-0.45777065690094787,0.3967345693140487
1539732512237776,0.6408789196611906,-0.6408789196611906,0.33569848172737693
1539732512253776,0.45777065690094787,-0.7019150072480898,0.15259021896690683
1539732512269776,0.213626306553806,-0.8239871824216607,0.03051804379333589
1539732512285777,0.213626306553806,-0.8850232700083325,-0.213626306553806
1539732512301777,0.213626306553806,-0.8239871824216607,-0.213626306553806
1539732512317749,0.15259021896690683,-0.7019150072480898,-0.09155413138023505
1539732512333749,0.03051804379333589,-0.6408789196611906,0.03051804379333589
1539732512349749,0.03051804379333589,-0.7019150072480898,0.213626306553806
1539732512365749,0.09155413138023505,-0.8850232700083325,0.3967345693140487
1539732512381750,0.15259021896690683,-0.8850232700083325,0.6408789196611906
1539732512397750,0.213626306553806,-0.7629510948347615,0.8850232700083325
1539732512413750,0.33569848172737693,-0.7019150072480898,1.0070954451819034
1539732512429751,0.3967345693140487,-0.8239871824216607,1.1291676203554744
1539732512445751,0.6408789196611906,-0.8850232700083325,1.1291676203554744
1539732512461751,0.8850232700083325,-0.8239871824216607,1.1902037079423735
1539732512477751,1.0681315327688026,-0.7019150072480898,1.1291676203554744
1539732512493752,1.3733119707026162,-0.45777065690094787,1.0681315327688026
1539732512509752,1.6174563210497581,-0.2746623941404778,0.8850232700083325
1539732512525752,1.739528496223329,-0.213626306553806,0.7019150072480898
1539732512541752,1.8616006713969,-0.09155413138023505,0.7019150072480898
1539732512557753,1.9226367589837992,-0.15259021896690683,0.6408789196611906
1539732512573753,2.04470893415737,-0.3967345693140487,0.6408789196611906
1539732512589753,2.105745021744042,-0.33569848172737693,0.7629510948347615
1539732512605754,2.04470893415737,-0.2746623941404778,0.8850232700083325
1539732512621754,1.983672846570471,-0.15259021896690683,1.0681315327688026
1539732512637756,2.04470893415737,-0.213626306553806,1.3122758831159445
1539732512653756,1.8005645838102282,-0.2746623941404778,1.4343480582895154
1539732512669757,1.4953841458761872,-0.5188067444876197,1.3733119707026162
1539732512685757,1.0070954451819034,-1.0070954451819034,1.1291676203554744
1539732512701757,0.7019150072480898,-1.5564202334630863,0.7019150072480898
1539732512717757,0.6408789196611906,-1.8005645838102282,0.2746623941404778
1539732512733758,0.5798428320745188,-1.6174563210497581,-0.03051804379333589
1539732512749758,0.33569848172737693,-1.1902037079423735,-0.213626306553806
1539732512765758,0.03051804379333589,-0.9460593575952316,-0.3967345693140487
1539732512781758,-0.2746623941404778,-0.8850232700083325,-0.5188067444876197
1539732512797759,-0.5188067444876197,-0.8239871824216607,-0.7629510948347615
1539732512813759,-0.6408789196611906,-0.8239871824216607,-0.9460593575952316
1539732512829759,-0.6408789196611906,-0.7629510948347615,-0.8850232700083325
1539732512845759,-0.5798428320745188,-0.7629510948347615,-0.7019150072480898
1539732512861760,-0.45777065690094787,-0.7629510948347615,-0.3967345693140487
1539732512877760,-0.15259021896690683,-0.6408789196611906,-0.03051804379333589
1539732512893760,0.09155413138023505,-0.5188067444876197,0.45777065690094787
1539732512909761,0.33569848172737693,-0.5188067444876197,0.8239871824216607
1539732512925761,0.5798428320745188,-0.5188067444876197,1.0070954451819034
1539732512941761,0.7019150072480898,-0.45777065690094787,1.1291676203554744
1539732512957794,0.8239871824216607,-0.45777065690094787,1.3122758831159445
1539732512973794,0.9460593575952316,-0.3967345693140487,1.4343480582895154
1539732512989794,1.1291676203554744,-0.15259021896690683,1.6174563210497581
1539732513005795,1.3733119707026162,-0.03051804379333589,1.739528496223329
1539732513021795,1.6174563210497581,-0.03051804379333589,2.105745021744042
1539732513037795,1.8616006713969,0.03051804379333589,2.410925459678083
1539732513053795,2.04470893415737,0.15259021896690683,2.655069810025225
1539732513069796,2.227817196917613,-0.03051804379333589,2.7771419851987957
1539732513085796,2.166781109330941,0.03051804379333589,2.7771419851987957
1539732513101796,2.04470893415737,0.09155413138023505,2.532997634851654
1539732513117797,1.6784924086366573,-0.15259021896690683,2.04470893415737
1539732513133797,1.3733119707026162,-0.3967345693140487,1.4953841458761872
1539732513149797,1.0681315327688026,-0.7629510948347615,0.7629510948347615
1539732513165797,0.8239871824216607,-0.8850232700083325,0.213626306553806
1539732513181798,0.6408789196611906,-0.7019150072480898,-0.2746623941404778
1539732513197798,0.45777065690094787,-0.45777065690094787,-0.5798428320745188
1539732513213798,0.33569848172737693,-0.45777065690094787,-0.8239871824216607
1539732513229798,0.213626306553806,-0.6408789196611906,-0.8850232700083325
1539732513245799,0.213626306553806,-1.0070954451819034,-0.8239871824216607
1539732513261799,0.2746623941404778,-1.1291676203554744,-0.8239871824216607
1539732513277771,0.2746623941404778,-1.0681315327688026,-0.6408789196611906
1539732513293771,0.2746623941404778,-1.1291676203554744,-0.45777065690094787
1539732513309771,0.33569848172737693,-1.2512397955290453,-0.09155413138023505
1539732513325771,0.33569848172737693,-1.1902037079423735,0.213626306553806
1539732513341772,0.2746623941404778,-0.9460593575952316,0.5188067444876197
1539732513357772,0.2746623941404778,-0.8850232700083325,0.7629510948347615
1539732513373772,0.3967345693140487,-0.6408789196611906,0.8850232700083325
1539732513389773,0.6408789196611906,-0.5188067444876197,0.9460593575952316
1539732513405773,0.7019150072480898,-0.5188067444876197,1.0070954451819034
1539732513421773,0.7629510948347615,-0.5798428320745188,1.0681315327688026
1539732513437773,0.7629510948347615,-0.8239871824216607,1.1291676203554744
1539732513453774,0.7629510948347615,-0.8850232700083325,1.1291676203554744
1539732513469774,0.8239871824216607,-0.8850232700083325,1.1902037079423735
1539732513485774,0.9460593575952316,-0.9460593575952316,1.2512397955290453
1539732513501774,1.0070954451819034,-0.8850232700083325,1.2512397955290453
1539732513517775,1.1902037079423735,-0.8239871824216607,1.3122758831159445
1539732513533775,1.1902037079423735,-0.33569848172737693,1.3122758831159445
1539732513549775,1.0681315327688026,0.03051804379333589,1.1291676203554744
1539732513565775,0.7629510948347615,-0.03051804379333589,0.7629510948347615
1539732513581776,0.5798428320745188,-0.2746623941404778,0.33569848172737693
1539732513597778,0.6408789196611906,-0.5798428320745188,-0.03051804379333589
1539732513613778,0.7019150072480898,-0.7629510948347615,-0.213626306553806
1539732513629778,0.7629510948347615,-0.6408789196611906,-0.213626306553806
1539732513645779,0.5798428320745188,-0.5188067444876197,-0.15259021896690683
1539732513661779,0.5798428320745188,-0.7019150072480898,0.03051804379333589
1539732513677779,0.6408789196611906,-0.9460593575952316,0.213626306553806
1539732513693780,0.8239871824216607,-1.0681315327688026,0.45777065690094787
1539732513709780,0.9460593575952316,-1.1291676203554744,0.7629510948347615
1539732513725780,1.0070954451819034,-1.1902037079423735,0.9460593575952316
1539732513741780,1.0681315327688026,-1.0681315327688026,1.1291676203554744
1539732513757781,1.0070954451819034,-0.7629510948347615,1.1291676203554744
1539732513773781,0.8850232700083325,-0.5188067444876197,1.1291676203554744
1539732513789781,0.8239871824216607,-0.2746623941404778,0.9460593575952316
1539732513805781,0.7629510948347615,-0.213626306553806,0.7629510948347615
1539732513821782,0.8239871824216607,-0.45777065690094787,0.5798428320745188
1539732513837782,0.8850232700083325,-0.7629510948347615,0.45777065690094787
1539732513853782,1.0070954451819034,-1.0681315327688026,0.45777065690094787
1539732513869783,1.1291676203554744,-0.7019150072480898,0.5188067444876197
1539732513885783,1.0681315327688026,-0.5188067444876197,0.6408789196611906
1539732513901783,0.7629510948347615,-0.8850232700083325,0.7629510948347615
1539732513917785,0.6408789196611906,-0.7019150072480898,0.7629510948347615
1539732513933786,0.45777065690094787,-0.7629510948347615,0.6408789196611906
1539732513949786,0.5188067444876197,-0.8850232700083325,0.5188067444876197
1539732513965786,0.6408789196611906,-0.8239871824216607,0.5188067444876197
1539732513981786,0.3967345693140487,-0.7629510948347615,0.5188067444876197
1539732513997787,0.09155413138023505,-0.7019150072480898,0.5798428320745188
1539732514013787,0.03051804379333589,-0.2746623941404778,0.5798428320745188
1539732514029787,-0.09155413138023505,-0.03051804379333589,0.3967345693140487
1539732514045787,0.03051804379333589,-0.03051804379333589,0.09155413138023505
1539732514061788,-0.03051804379333589,-1.0681315327688026,0.15259021896690683
1539732514077788,-0.213626306553806,-2.227817196917613,0.2746623941404778
1539732514093788,-0.03051804379333589,-1.5564202334630863,0.33569848172737693
1539732514109789,0.09155413138023505,-0.33569848172737693,0.5188067444876197
1539732514125789,0.03051804379333589,-0.3967345693140487,0.7629510948347615
1539732514141789,0.09155413138023505,-0.8850232700083325,1.0070954451819034
1539732514157789,0.3967345693140487,-0.7629510948347615,1.1291676203554744
1539732514173790,0.7019150072480898,-0.3967345693140487,1.2512397955290453
1539732514189790,1.0070954451819034,-0.33569848172737693,1.3733119707026162
1539732514205790,1.2512397955290453,-0.5188067444876197,1.3733119707026162
1539732514221790,1.4953841458761872,-0.7019150072480898,1.1902037079423735
1539732514237762,1.4953841458761872,-0.45777065690094787,1.1291676203554744
1539732514253762,1.4343480582895154,-0.15259021896690683,1.0681315327688026
1539732514269763,1.3122758831159445,-0.5188067444876197,1.0070954451819034
1539732514285763,1.1902037079423735,-1.1291676203554744,0.7629510948347615
1539732514301763,1.3122758831159445,-1.1902037079423735,0.5798428320745188
1539732514317763,1.4343480582895154,-0.7629510948347615,0.45777065690094787
1539732514333764,1.2512397955290453,-0.5798428320745188,0.45777065690094787
1539732514349764,1.0070954451819034,-0.6408789196611906,0.33569848172737693
1539732514365764,1.0681315327688026,-0.3967345693140487,0.15259021896690683
1539732514381765,1.2512397955290453,-0.2746623941404778,0.03051804379333589
1539732514397765,1.4953841458761872,-0.5188067444876197,-0.03051804379333589
1539732514413765,1.4343480582895154,-0.7629510948347615,0.03051804379333589
1539732514429765,1.3733119707026162,-0.5188067444876197,-0.03051804379333589
1539732514445766,1.0070954451819034,-0.5188067444876197,0.09155413138023505
1539732514461766,0.5798428320745188,-0.7019150072480898,0.15259021896690683
1539732514477766,0.2746623941404778,-0.8239871824216607,0.15259021896690683
1539732514493766,0.03051804379333589,-1.0070954451819034,0.15259021896690683
1539732514509767,-0.03051804379333589,-0.8850232700083325,0.2746623941404778
1539732514525767,-0.09155413138023505,-0.5798428320745188,0.45777065690094787
1539732514541767,-0.2746623941404778,-0.3967345693140487,0.45777065690094787
1539732514557769,-0.3967345693140487,-0.2746623941404778,0.5798428320745188
1539732514573770,-0.3967345693140487,-0.3967345693140487,0.6408789196611906
1539732514589770,-0.3967345693140487,-0.6408789196611906,0.7629510948347615
1539732514605770,-0.213626306553806,-1.0070954451819034,0.8239871824216607
1539732514621770,-0.03051804379333589,-1.2512397955290453,0.8850232700083325
1539732514637771,0.2746623941404778,-1.1902037079423735,1.0681315327688026
1539732514653771,0.5188067444876197,-0.8850232700083325,1.1902037079423735
1539732514669771,0.5798428320745188,-0.6408789196611906,1.3122758831159445
1539732514685772,0.7629510948347615,-0.6408789196611906,1.3733119707026162
1539732514701772,0.8239871824216607,-0.5798428320745188,1.3122758831159445
1539732514717772,1.0681315327688026,-0.5798428320745188,1.1902037079423735
1539732514733772,1.3122758831159445,-0.7019150072480898,1.0681315327688026
1539732514749773,1.4343480582895154,-0.7629510948347615,1.0070954451819034
1539732514765773,1.4953841458761872,-0.7019150072480898,1.0070954451819034
1539732514781773,1.6174563210497581,-0.5798428320745188,1.1291676203554744
1539732514797773,1.5564202334630863,-0.6408789196611906,1.1291676203554744
1539732514813774,1.5564202334630863,-0.2746623941404778,1.0070954451819034
1539732514829774,1.739528496223329,0.9460593575952316,0.5798428320745188
1539732514845774,1.8616006713969,1.0681315327688026,0.45777065690094787
1539732514861775,1.6784924086366573,0.7019150072480898,0.5188067444876197
1539732514877807,1.4343480582895154,0.45777065690094787,0.6408789196611906
1539732514893808,0.9460593575952316,-0.3967345693140487,0.8850232700083325
1539732514909808,0.5188067444876197,-1.2512397955290453,1.0070954451819034
1539732514925808,0.3967345693140487,-1.6784924086366573,0.8239871824216607
1539732514941808,0.33569848172737693,-2.227817196917613,0.5188067444876197
1539732514957809,0.213626306553806,-2.288853284504512,0.213626306553806
1539732514973809,0.15259021896690683,-1.2512397955290453,0.03051804379333589
1539732514989809,-0.03051804379333589,-0.3967345693140487,0.09155413138023505
1539732515005809,-0.09155413138023505,-0.03051804379333589,0.09155413138023505
1539732515021810,-0.15259021896690683,-0.15259021896690683,0.03051804379333589
1539732515037810,-0.03051804379333589,-0.5188067444876197,-0.03051804379333589
1539732515053810,0.33569848172737693,-0.5798428320745188,0.09155413138023505
1539732515069810,0.6408789196611906,-0.45777065690094787,0.2746623941404778
1539732515085811,0.8850232700083325,-0.7019150072480898,0.3967345693140487
1539732515101811,1.1291676203554744,-0.7629510948347615,0.3967345693140487
1539732515117811,1.2512397955290453,-0.6408789196611906,0.3967345693140487
1539732515133812,1.2512397955290453,-0.7019150072480898,0.5188067444876197
1539732515149812,1.3122758831159445,-0.6408789196611906,0.7629510948347615
1539732515165812,1.3733119707026162,-0.5188067444876197,0.9460593575952316
1539732515181812,1.3733119707026162,-0.3967345693140487,1.0681315327688026
1539732515197815,1.4953841458761872,-0.3967345693140487,1.0070954451819034
1539732515213815,1.5564202334630863,-0.33569848172737693,0.8850232700083325
1539732515229815,1.739528496223329,-0.2746623941404778,0.7019150072480898
1539732515245815,1.8616006713969,-0.3967345693140487,0.6408789196611906
1539732515261816,1.8005645838102282,-0.7019150072480898,0.7629510948347615
1539732515277816,1.8005645838102282,-1.1291676203554744,0.8239871824216607
1539732515293816,1.9226367589837992,-1.1902037079423735,0.8239871824216607
1539732515309816,2.227817196917613,-0.8850232700083325,0.8239871824216607
1539732515325817,2.105745021744042,-0.213626306553806,0.9460593575952316
1539732515341817,1.739528496223329,0.2746623941404778,0.8239871824216607
1539732515357817,1.1902037079423735,0.5798428320745188,0.6408789196611906
1539732515373818,0.5798428320745188,0.2746623941404778,0.33569848172737693
1539732515389818,0.33569848172737693,-0.45777065690094787,-0.03051804379333589
1539732515405818,0.213626306553806,-1.0681315327688026,-0.213626306553806
1539732515421818,0.03051804379333589,-1.0070954451819034,-0.213626306553806
1539732515437819,-0.213626306553806,-0.6408789196611906,-0.09155413138023505
1539732515453819,-0.5798428320745188,-0.5798428320745188,0.15259021896690683
1539732515469819,-0.7019150072480898,-1.1291676203554744,0.33569848172737693
1539732515485819,-0.6408789196611906,-1.739528496223329,0.45777065690094787
1539732515501820,-0.5188067444876197,-1.8616006713969,0.45777065690094787
1539732515517791,-0.45777065690094787,-1.6784924086366573,0.5188067444876197
1539732515533792,-0.5188067444876197,-1.2512397955290453,0.5798428320745188
1539732515549792,-0.33569848172737693,-0.8850232700083325,0.7019150072480898
1539732515565792,-0.09155413138023505,-0.6408789196611906,0.8850232700083325
1539732515581792,0.15259021896690683,-0.213626306553806,0.9460593575952316
1539732515597793,0.45777065690094787,-0.09155413138023505,1.0070954451819034
1539732515613793,0.7629510948347615,-0.45777065690094787,1.0070954451819034
1539732515629793,1.1291676203554744,-0.8239871824216607,1.0070954451819034
1539732515645794,1.4953841458761872,-0.8850232700083325,0.9460593575952316
1539732515661794,1.6784924086366573,-0.7629510948347615,0.9460593575952316
1539732515677794,1.739528496223329,-0.5188067444876197,1.1291676203554744
1539732515693794,1.739528496223329,-0.2746623941404778,1.2512397955290453
1539732515709795,1.6174563210497581,-0.03051804379333589,1.3733119707026162
1539732515725795,1.4953841458761872,0.03051804379333589,1.3733119707026162
1539732515741795,1.5564202334630863,-0.09155413138023505,1.0681315327688026
1539732515757795,1.8005645838102282,-0.2746623941404778,0.8239871824216607
1539732515773796,2.166781109330941,-0.2746623941404778,0.8239871824216607
1539732515789796,2.3498893720911838,-0.33569848172737693,0.9460593575952316
1539732515805796,2.166781109330941,-0.213626306553806,1.1291676203554744
1539732515821797,1.5564202334630863,-0.33569848172737693,1.2512397955290453
1539732515837799,1.0681315327688026,-0.6408789196611906,1.0681315327688026
1539732515853799,0.8239871824216607,-0.8239871824216607,0.7629510948347615
1539732515869799,0.6408789196611906,-1.0681315327688026,0.33569848172737693
1539732515885800,0.33569848172737693,-1.0070954451819034,0.15259021896690683
1539732515901800,0.09155413138023505,-0.6408789196611906,0.09155413138023505
1539732515917800,-0.15259021896690683,-0.3967345693140487,0.15259021896690683
1539732515933800,-0.213626306553806,-0.33569848172737693,0.33569848172737693
1539732515949801,-0.15259021896690683,-0.33569848172737693,0.45777065690094787
1539732515965801,-0.09155413138023505,-0.2746623941404778,0.5188067444876197
1539732515981801,-0.09155413138023505,-0.5188067444876197,0.5798428320745188
1539732515997801,-0.09155413138023505,-1.1902037079423735,0.6408789196611906
1539732516013802,0.09155413138023505,-1.4953841458761872,0.6408789196611906
1539732516029802,0.2746623941404778,-1.3733119707026162,0.7629510948347615
1539732516045802,0.2746623941404778,-1.3733119707026162,0.9460593575952316
1539732516061802,0.2746623941404778,-1.2512397955290453,1.1291676203554744
1539732516077803,0.5188067444876197,-0.5188067444876197,1.1902037079423735
1539732516093803,0.6408789196611906,-0.2746623941404778,1.1902037079423735
1539732516109803,0.7629510948347615,-0.33569848172737693,1.1291676203554744
1539732516125804,0.9460593575952316,-0.3967345693140487,0.9460593575952316
1539732516141804,0.9460593575952316,-0.5798428320745188,0.7629510948347615
1539732516157806,0.9460593575952316,-0.45777065690094787,0.45777065690094787
1539732516173806,1.0070954451819034,-0.45777065690094787,0.33569848172737693
1539732516189807,1.0681315327688026,-0.45777065690094787,0.213626306553806
1539732516205807,1.2512397955290453,-0.33569848172737693,-0.03051804379333589
1539732516221807,1.4343480582895154,-1.1291676203554744,0.03051804379333589
1539732516237807,1.6174563210497581,-1.8616006713969,0.3967345693140487
1539732516253808,1.983672846570471,-1.4953841458761872,0.6408789196611906
1539732516269808,2.105745021744042,-0.3967345693140487,0.8850232700083325
1539732516285808,1.8616006713969,0.5188067444876197,1.0070954451819034
1539732516301808,1.5564202334630863,0.9460593575952316,0.9460593575952316
1539732516317809,1.1902037079423735,0.8850232700083325,0.7629510948347615
1539732516333809,0.8239871824216607,0.5188067444876197,0.5798428320745188
1539732516349809,0.45777065690094787,0.09155413138023505,0.5188067444876197
1539732516365810,0.15259021896690683,-0.7629510948347615,0.6408789196611906
1539732516381810,-0.213626306553806,-1.5564202334630863,0.7629510948347615
1539732516397810,-0.3967345693140487,-1.8616006713969,0.8239871824216607
1539732516413810,-0.33569848172737693,-1.6784924086366573,1.0070954451819034
1539732516429811,-0.3967345693140487,-1.4343480582895154,1.1291676203554744
1539732516445811,-0.45777065690094787,-1.4343480582895154,0.9460593575952316
1539732516461811,-0.3967345693140487,-1.1291676203554744,0.7629510948347615
1539732516477813,-0.213626306553806,-0.7019150072480898,0.7019150072480898
1539732516493814,0.03051804379333589,-0.2746623941404778,0.5798428320745188
1539732516509814,0.213626306553806,0.03051804379333589,0.5798428320745188
1539732516525814,0.3967345693140487,0.15259021896690683,0.45777065690094787
1539732516541814,0.7019150072480898,0.213626306553806,0.45777065690094787
1539732516557815,0.8239871824216607,-0.09155413138023505,0.45777065690094787
1539732516573815,0.8850232700083325,-0.7019150072480898,0.45777065690094787
1539732516589815,0.9460593575952316,-1.2512397955290453,0.45777065690094787
1539732516605816,0.9460593575952316,-1.4953841458761872,0.5188067444876197
1539732516621816,0.8239871824216607,-1.3122758831159445,0.7019150072480898
1539732516637816,0.8239871824216607,-0.9460593575952316,0.8239871824216607
1539732516653816,0.9460593575952316,-0.5798428320745188,0.9460593575952316
1539732516669817,1.0681315327688026,-0.2746623941404778,1.0681315327688026
1539732516685817,1.3122758831159445,-0.09155413138023505,1.0681315327688026
1539732516701817,1.6174563210497581,-0.03051804379333589,1.0070954451819034
1539732516717817,1.8616006713969,-0.09155413138023505,0.8850232700083325
1539732516733818,1.8005645838102282,-0.09155413138023505,0.7629510948347615
1539732516749818,1.6174563210497581,-0.2746623941404778,0.5798428320745188
1539732516765818,1.2512397955290453,-0.7629510948347615,0.33569848172737693
1539732516781818,1.0681315327688026,-1.2512397955290453,0.03051804379333589
1539732516797821,0.8850232700083325,-1.4343480582895154,-0.15259021896690683
1539732516813821,0.5798428320745188,-1.1902037079423735,-0.09155413138023505
1539732516829821,0.2746623941404778,-0.6408789196611906,0.09155413138023505
1539732516845821,0.09155413138023505,-0.45777065690094787,0.2746623941404778
1539732516861822,0.09155413138023505,-0.3967345693140487,0.3967345693140487
1539732516877822,0.15259021896690683,-0.33569848172737693,0.5798428320745188
1539732516893822,0.33569848172737693,-0.2746623941404778,0.5798428320745188
1539732516909823,0.3967345693140487,-0.2746623941404778,0.6408789196611906
1539732516925823,0.5798428320745188,-0.45777065690094787,0.7019150072480898
1539732516941823,0.7019150072480898,-0.7629510948347615,0.8239871824216607
1539732516957823,0.8239871824216607,-1.0070954451819034,1.0070954451819034
1539732516973824,0.7629510948347615,-1.2512397955290453,1.1902037079423735
1539732516989824,0.8239871824216607,-1.0070954451819034,1.3122758831159445
1539732517005824,0.7019150072480898,-0.7019150072480898,1.4343480582895154
1539732517021824,0.6408789196611906,-0.7019150072480898,1.4953841458761872
1539732517037825,0.5798428320745188,-0.33569848172737693,1.3122758831159445
1539732517053825,0.5188067444876197,-0.213626306553806,1.1902037079423735
1539732517069825,0.33569848172737693,-0.3967345693140487,1.0070954451819034
1539732517085826,0.33569848172737693,-0.5798428320745188,0.8239871824216607
1539732517101826,0.45777065690094787,-0.8239871824216607,0.7019150072480898
1539732517117828,0.7629510948347615,-0.5798428320745188,0.5798428320745188
1539732517133828,1.0681315327688026,-0.3967345693140487,0.5188067444876197
1539732517149829,1.3122758831159445,-0.5188067444876197,0.5798428320745188
1539732517165829,1.2512397955290453,-0.6408789196611906,0.5188067444876197
1539732517181829,1.1291676203554744,-0.3967345693140487,0.45777065690094787
1539732517197829,0.8850232700083325,-0.3967345693140487,0.3967345693140487
1539732517213830,0.5188067444876197,-0.5798428320745188,0.213626306553806
1539732517229830,0.33569848172737693,-0.7019150072480898,-0.03051804379333589
1539732517245830,0.15259021896690683,-0.8850232700083325,-0.15259021896690683
1539732517261830,0.09155413138023505,-0.7019150072480898,-0.09155413138023505
1539732517277831,0.03051804379333589,-0.33569848172737693,0.03051804379333589
1539732517293831,0.03051804379333589,-0.15259021896690683,0.09155413138023505
1539732517309831,0.15259021896690683,-0.15259021896690683,0.15259021896690683
1539732517325832,0.2746623941404778,-0.45777065690094787,0.213626306553806
1539732517341832,0.3967345693140487,-0.7019150072480898,0.33569848172737693
1539732517357832,0.45777065690094787,-0.6408789196611906,0.3967345693140487
1539732517373832,0.5188067444876197,-0.6408789196611906,0.5798428320745188
1539732517389833,0.6408789196611906,-0.7019150072480898,0.7629510948347615
1539732517405833,0.7629510948347615,-0.5188067444876197,0.9460593575952316
1539732517421833,0.9460593575952316,-0.33569848172737693,1.1902037079423735
1539732517437805,1.0070954451819034,-0.33569848172737693,1.3733119707026162
1539732517453805,1.0681315327688026,-0.45777065690094787,1.4343480582895154
1539732517469805,1.2512397955290453,-0.3967345693140487,1.4343480582895154
1539732517485806,1.3122758831159445,-0.5798428320745188,1.3733119707026162
1539732517501806,1.4343480582895154,-0.7629510948347615,1.1902037079423735
1539732517517806,1.4953841458761872,-0.7629510948347615,1.0681315327688026
1539732517533806,1.5564202334630863,-0.8239871824216607,0.8850232700083325
1539732517549807,1.6174563210497581,-0.8239871824216607,0.7019150072480898
1539732517565807,1.6174563210497581,-0.5188067444876197,0.5798428320745188
1539732517581807,1.5564202334630863,-0.45777065690094787,0.3967345693140487
1539732517597808,1.6784924086366573,-0.5188067444876197,0.213626306553806
1539732517613808,1.739528496223329,-0.3967345693140487,0.213626306553806
1539732517629808,1.5564202334630863,-0.09155413138023505,0.213626306553806
1539732517645808,1.2512397955290453,-0.03051804379333589,0.09155413138023505
1539732517661809,0.8850232700083325,-0.33569848172737693,0.03051804379333589
1539732517677809,0.6408789196611906,-0.6408789196611906,-0.15259021896690683
1539732517693809,0.5188067444876197,-0.8239871824216607,-0.2746623941404778
1539732517709809,0.45777065690094787,-0.8239871824216607,-0.2746623941404778
1539732517725810,0.2746623941404778,-0.7019150072480898,-0.15259021896690683
1539732517741810,0.15259021896690683,-0.5188067444876197,0.03051804379333589
1539732517757812,-0.03051804379333589,-0.6408789196611906,0.213626306553806
1539732517773812,-0.15259021896690683,-0.8239871824216607,0.45777065690094787
1539732517789813,-0.213626306553806,-0.9460593575952316,0.6408789196611906
1539732517805813,-0.213626306553806,-0.9460593575952316,0.8850232700083325
1539732517821813,-0.09155413138023505,-0.8850232700083325,1.0681315327688026
1539732517837813,0.03051804379333589,-0.7019150072480898,1.2512397955290453
1539732517853814,0.213626306553806,-0.6408789196611906,1.3733119707026162
1539732517869814,0.3967345693140487,-0.7019150072480898,1.4953841458761872
1539732517885814,0.5188067444876197,-0.7019150072480898,1.5564202334630863
1539732517901815,0.7629510948347615,-0.6408789196611906,1.4343480582895154
1539732517917815,1.0070954451819034,-0.5188067444876197,1.3122758831159445
1539732517933815,1.2512397955290453,-0.3967345693140487,1.1291676203554744
1539732517949815,1.2512397955290453,-0.5188067444876197,0.9460593575952316
1539732517965816,1.2512397955290453,-0.6408789196611906,0.8239871824216607
1539732517981816,1.3122758831159445,-0.5798428320745188,0.6408789196611906
1539732517997816,1.4343480582895154,-0.6408789196611906,0.5798428320745188
1539732518013816,1.4343480582895154,-0.5188067444876197,0.3967345693140487
1539732518029817,1.4343480582895154,-0.5188067444876197,0.2746623941404778
1539732518045817,1.4953841458761872,-0.6408789196611906,0.213626306553806
1539732518061817,1.6174563210497581,-0.7019150072480898,0.33569848172737693
1539732518077819,1.6174563210497581,-0.6408789196611906,0.3967345693140487
1539732518093820,1.4953841458761872,-0.3967345693140487,0.45777065690094787
1539732518109820,1.1291676203554744,-0.33569848172737693,0.33569848172737693
1539732518125820,0.8239871824216607,-0.5188067444876197,0.15259021896690683
1539732518141821,0.6408789196611906,-0.7629510948347615,-0.09155413138023505
1539732518157821,0.5798428320745188,-0.8239871824216607,-0.15259021896690683
1539732518173821,0.5798428320745188,-0.7019150072480898,-0.15259021896690683
1539732518189821,0.5188067444876197,-0.5798428320745188,-0.03051804379333589
1539732518205822,0.33569848172737693,-0.6408789196611906,0.213626306553806
1539732518221822,0.2746623941404778,-0.7629510948347615,0.5188067444876197
1539732518237822,0.2746623941404778,-0.8850232700083325,0.7629510948347615
1539732518253822,0.2746623941404778,-0.8850232700083325,0.9460593575952316
1539732518269823,0.213626306553806,-0.8850232700083325,1.0681315327688026
1539732518285823,0.2746623941404778,-0.8239871824216607,1.1291676203554744
1539732518301823,0.33569848172737693,-0.8850232700083325,1.3122758831159445
1539732518317824,0.5188067444876197,-0.8239871824216607,1.3733119707026162
1539732518333824,0.6408789196611906,-0.6408789196611906,1.3733119707026162
1539732518349824,0.7019150072480898,-0.33569848172737693,1.3733119707026162
1539732518365824,0.7019150072480898,-0.2746623941404778,1.3122758831159445
1539732518381825,0.8239871824216607,-0.3967345693140487,1.1902037079423735
1539732518397827,1.0070954451819034,-0.5188067444876197,1.0070954451819034
1539732518413827,1.0681315327688026,-0.7019150072480898,0.8239871824216607
1539732518429827,1.0681315327688026,-0.7629510948347615,0.7019150072480898
1539732518445828,1.0681315327688026,-0.7019150072480898,0.7019150072480898
1539732518461828,1.0070954451819034,-0.6408789196611906,0.5798428320745188
1539732518477828,1.0681315327688026,-0.5798428320745188,0.5188067444876197
1539732518493828,1.0681315327688026,-0.6408789196611906,0.45777065690094787
1539732518509829,1.2512397955290453,-0.5798428320745188,0.3967345693140487
1539732518525829,1.4343480582895154,-0.7019150072480898,0.45777065690094787
1539732518541829,0.8850232700083325,-0.5798428320745188,0.9460593575952316
1539732518557829,-5.3406576638437855,-10.528725108720437,0.6408789196611906
1539732518573830,4.058899824521177,-0.6408789196611906,-1.983672846570471
1539732518589830,6.561379415579495,6.805523765926637,-0.213626306553806
1539732518605830,2.5940337224383256,-0.45777065690094787,1.6784924086366573
1539732518621831,-0.5798428320745188,-3.5095750362402214,1.983672846570471
1539732518637831,0.7019150072480898,3.570611123826893,0.5798428320745188
1539732518653831,-0.45777065690094787,1.0070954451819034,0.7019150072480898
1539732518669831,0.03051804379333589,-2.166781109330941,-0.5798428320745188
1539732518685832,1.3122758831159445,-2.166781109330941,-1.8005645838102282
1539732518701832,0.6408789196611906,-3.5095750362402214,-1.8616006713969
1539732518717834,-0.5798428320745188,-1.6784924086366573,-1.2512397955290453
1539732518733834,-1.8005645838102282,0.45777065690094787,0.15259021896690683
1539732518749835,-2.3498893720911838,-0.3967345693140487,1.1902037079423735
1539732518765835,-1.6784924086366573,-1.4953841458761872,1.1291676203554744
1539732518781835,-0.5798428320745188,-0.2746623941404778,0.8850232700083325
1539732518797835,-0.45777065690094787,1.0681315327688026,1.0070954451819034
1539732518813836,-0.9460593575952316,0.5798428320745188,0.8850232700083325
1539732518829836,-0.9460593575952316,-1.3733119707026162,0.5188067444876197
1539732518845836,-0.213626306553806,-2.8992141603723667,0.2746623941404778
1539732518861837,0.6408789196611906,-2.8992141603723667,0.3967345693140487
1539732518877837,0.7019150072480898,-1.8005645838102282,0.8850232700083325
1539732518893837,0.3967345693140487,-0.5188067444876197,1.4953841458761872
1539732518909837,0.33569848172737693,0.5798428320745188,1.8005645838102282
1539732518925838,0.7629510948347615,0.7629510948347615,1.6174563210497581
1539732518941838,1.3122758831159445,0.03051804379333589,1.1902037079423735
1539732518957838,1.6174563210497581,-0.6408789196611906,0.9460593575952316
1539732518973838,1.8005645838102282,-0.8850232700083325,1.0070954451819034
1539732518989839,1.983672846570471,-0.7019150072480898,1.2512397955290453
1539732519005839,2.410925459678083,-0.33569848172737693,1.5564202334630863
1539732519021839,2.7161058976118966,0.213626306553806,1.5564202334630863
1539732519037841,2.655069810025225,0.2746623941404778,1.3733119707026162
1539732519053842,2.227817196917613,-0.213626306553806,1.0070954451819034
1539732519069842,2.04470893415737,-0.6408789196611906,0.45777065690094787
1539732519085842,2.04470893415737,-0.9460593575952316,-0.03051804379333589
1539732519101843,1.9226367589837992,-0.8850232700083325,-0.15259021896690683
1539732519117843,1.8005645838102282,-0.3967345693140487,-0.15259021896690683
1539732519133843,1.4953841458761872,0.03051804379333589,-0.03051804379333589
1539732519149843,1.1291676203554744,0.15259021896690683,0.15259021896690683
1539732519165844,0.8850232700083325,-0.15259021896690683,0.213626306553806
1539732519181844,0.7629510948347615,-0.45777065690094787,0.33569848172737693
1539732519197844,0.6408789196611906,-0.8239871824216607,0.213626306553806
1539732519213844,0.5188067444876197,-1.1902037079423735,0.213626306553806
1539732519229845,0.2746623941404778,-1.3733119707026162,0.33569848172737693
1539732519245845,0.15259021896690683,-1.1902037079423735,0.45777065690094787
1539732519261845,0.03051804379333589,-0.8239871824216607,0.6408789196611906
1539732519277845,-0.03051804379333589,-0.3967345693140487,0.9460593575952316
1539732519293846,-0.15259021896690683,-0.2746623941404778,1.0681315327688026
1539732519309846,-0.15259021896690683,-0.45777065690094787,1.1291676203554744
1539732519325846,-0.09155413138023505,-0.7019150072480898,1.0070954451819034
1539732519341847,0.09155413138023505,-0.7629510948347615,0.8850232700083325
1539732519357849,0.213626306553806,-0.8239871824216607,0.8850232700083325
1539732519373849,0.213626306553806,-0.5798428320745188,0.8850232700083325
1539732519389849,0.213626306553806,-0.3967345693140487,0.8850232700083325
1539732519405850,0.213626306553806,-0.5188067444876197,0.8850232700083325
1539732519421850,0.5188067444876197,-0.6408789196611906,0.8239871824216607
1539732519437850,0.8239871824216607,-0.8239871824216607,0.6408789196611906
1539732519453850,1.1902037079423735,-0.7629510948347615,0.5798428320745188
1539732519469851,1.3733119707026162,-0.5798428320745188,0.6408789196611906
1539732519485851,1.4953841458761872,-0.213626306553806,0.8239871824216607
1539732519501851,1.4953841458761872,0.15259021896690683,0.8239871824216607
1539732519517851,1.3122758831159445,-0.09155413138023505,0.7629510948347615
1539732519533852,1.2512397955290453,-0.7019150072480898,0.5798428320745188
1539732519549852,1.3122758831159445,-0.8239871824216607,0.2746623941404778
1539732519565852,1.3733119707026162,-0.8850232700083325,0.09155413138023505
1539732519581853,1.1902037079423735,-0.9460593575952316,0.03051804379333589
1539732519597853,1.0070954451819034,-0.5798428320745188,0.03051804379333589
1539732519613853,0.8850232700083325,-0.15259021896690683,-0.03051804379333589
1539732519629853,0.7629510948347615,-0.03051804379333589,0.03051804379333589
1539732519645854,0.7019150072480898,-0.09155413138023505,0.15259021896690683
1539732519661854,0.5798428320745188,-0.45777065690094787,0.213626306553806
1539732519677826,0.33569848172737693,-1.0681315327688026,0.45777065690094787
1539732519693826,0.2746623941404778,-1.2512397955290453,0.7629510948347615
1539732519709826,0.15259021896690683,-1.0681315327688026,1.0070954451819034
1539732519725826,0.09155413138023505,-0.8850232700083325,1.1291676203554744
1539732519741827,0.09155413138023505,-0.8239871824216607,1.1291676203554744
1539732519757827,0.15259021896690683,-0.8850232700083325,1.1291676203554744
1539732519773827,0.213626306553806,-0.9460593575952316,1.0070954451819034
1539732519789827,0.33569848172737693,-0.8239871824216607,0.9460593575952316
1539732519805828,0.45777065690094787,-0.7629510948347615,0.8850232700083325
1539732519821828,0.5188067444876197,-0.7019150072480898,0.8850232700083325
1539732519837828,0.5798428320745188,-0.7019150072480898,0.8239871824216607
1539732519853829,0.7629510948347615,-0.5188067444876197,0.7019150072480898
1539732519869829,0.8850232700083325,-0.213626306553806,0.7019150072480898
1539732519885829,0.9460593575952316,-0.213626306553806,0.6408789196611906
1539732519901829,1.1291676203554744,-0.45777065690094787,0.6408789196611906
1539732519917830,1.3733119707026162,-0.7629510948347615,0.7629510948347615
1539732519933830,1.5564202334630863,-0.6408789196611906,0.8850232700083325
1539732519949830,1.6784924086366573,-0.33569848172737693,1.0681315327688026
1539732519965830,1.739528496223329,-0.213626306553806,1.1902037079423735
1539732519981831,1.739528496223329,-0.09155413138023505,1.2512397955290453
1539732519997863,1.5564202334630863,-0.213626306553806,1.1902037079423735
1539732520013864,1.2512397955290453,-0.6408789196611906,1.0070954451819034
1539732520029864,0.9460593575952316,-1.0070954451819034,0.7019150072480898
1539732520045864,0.8239871824216607,-1.2512397955290453,0.3967345693140487
1539732520061864,0.6408789196611906,-1.1902037079423735,0.213626306553806
1539732520077865,0.45777065690094787,-0.8850232700083325,0.15259021896690683
1539732520093865,0.33569848172737693,-0.5798428320745188,0.15259021896690683
1539732520109865,0.15259021896690683,-0.5188067444876197,0.03051804379333589
1539732520125866,0.09155413138023505,-0.7019150072480898,-0.09155413138023505
1539732520141866,0.15259021896690683,-0.8850232700083325,-0.15259021896690683
1539732520157866,0.33569848172737693,-1.0070954451819034,-0.03051804379333589
1539732520173866,0.5188067444876197,-1.0681315327688026,0.15259021896690683
1539732520189867,0.5798428320745188,-0.8239871824216607,0.3967345693140487
1539732520205867,0.6408789196611906,-0.6408789196611906,0.7019150072480898
1539732520221867,0.7629510948347615,-0.5798428320745188,1.0070954451819034
1539732520237867,0.8239871824216607,-0.5798428320745188,1.0681315327688026
1539732520253868,0.8239871824216607,-0.45777065690094787,1.1291676203554744
1539732520269868,0.7629510948347615,-0.45777065690094787,1.1291676203554744
1539732520285868,0.8850232700083325,-0.5188067444876197,1.1291676203554744
1539732520301869,1.0070954451819034,-0.7629510948347615,1.1291676203554744
1539732520317871,1.0681315327688026,-0.7629510948347615,1.3122758831159445
1539732520333871,1.1902037079423735,-0.5188067444876197,1.3733119707026162
1539732520349871,1.1902037079423735,-0.3967345693140487,1.4343480582895154
1539732520365872,1.2512397955290453,-0.33569848172737693,1.4343480582895154
1539732520381872,1.3122758831159445,-0.45777065690094787,1.2512397955290453
1539732520397872,1.4343480582895154,-0.5798428320745188,0.8850232700083325
1539732520413872,1.4343480582895154,-0.6408789196611906,0.7019150072480898
1539732520429873,1.5564202334630863,-0.5798428320745188,0.6408789196611906
1539732520445873,1.6784924086366573,-0.2746623941404778,0.7019150072480898
1539732520461873,1.6174563210497581,0.03051804379333589,0.7629510948347615
1539732520477873,1.4343480582895154,0.33569848172737693,0.7019150072480898
1539732520493874,1.0070954451819034,0.09155413138023505,0.6408789196611906
1539732520509874,0.5798428320745188,-0.7629510948347615,0.45777065690094787
1539732520525874,0.33569848172737693,-1.0681315327688026,0.09155413138023505
1539732520541875,0.2746623941404778,-0.8850232700083325,-0.2746623941404778
1539732520557875,0.15259021896690683,-0.9460593575952316,-0.33569848172737693
1539732520573875,-0.15259021896690683,-0.9460593575952316,-0.2746623941404778
1539732520589875,-0.3967345693140487,-0.6408789196611906,-0.2746623941404778
1539732520605876,-0.7019150072480898,-0.45777065690094787,-0.2746623941404778
1539732520621876,-0.7019150072480898,-0.5798428320745188,-0.213626306553806
1539732520637848,-0.6408789196611906,-0.8850232700083325,-0.15259021896690683
1539732520653848,-0.33569848172737693,-1.1902037079423735,-0.09155413138023505
1539732520669848,-0.03051804379333589,-1.0681315327688026,0.15259021896690683
1539732520685848,0.2746623941404778,-0.7629510948347615,0.5188067444876197
1539732520701849,0.45777065690094787,-0.5798428320745188,1.0070954451819034
1539732520717849,0.6408789196611906,-0.6408789196611906,1.3733119707026162
1539732520733849,0.7629510948347615,-0.7019150072480898,1.6174563210497581
1539732520749849,1.0070954451819034,-0.45777065690094787,1.739528496223329
1539732520765850,1.2512397955290453,-0.5188067444876197,1.8005645838102282
1539732520781850,1.2512397955290453,-0.6408789196611906,1.739528496223329
1539732520797850,1.2512397955290453,-0.5798428320745188,1.6784924086366573
1539732520813851,1.2512397955290453,-0.45777065690094787,1.5564202334630863
1539732520829851,1.1902037079423735,-0.213626306553806,1.4343480582895154
1539732520845851,1.1902037079423735,0.03051804379333589,1.2512397955290453
1539732520861851,1.0681315327688026,-0.03051804379333589,0.8850232700083325
1539732520877852,1.1291676203554744,-0.45777065690094787,0.5798428320745188
1539732520893852,1.2512397955290453,-0.9460593575952316,0.2746623941404778
1539732520909852,1.3122758831159445,-1.1291676203554744,0.09155413138023505
1539732520925852,1.4343480582895154,-1.0070954451819034,0.15259021896690683
1539732520941853,1.4953841458761872,-0.7629510948347615,0.2746623941404778
1539732520957855,1.3122758831159445,-0.3967345693140487,0.33569848172737693
1539732520973855,1.0681315327688026,-0.15259021896690683,0.2746623941404778
1539732520989855,0.7629510948347615,-0.45777065690094787,0.2746623941404778
1539732521005856,0.45777065690094787,-0.7629510948347615,0.03051804379333589
1539732521021856,0.33569848172737693,-0.8850232700083325,-0.15259021896690683
1539732521037856,0.09155413138023505,-0.7019150072480898,-0.2746623941404778
1539732521053856,-0.09155413138023505,-0.33569848172737693,-0.2746623941404778
