Timestamp (microseconds),Accel X (g),Accel Y (g),Accel Z (g)
1539131492115753,1.004470893415732,-0.002746623941405346,-0.057190814068817986
1539131492131749,0.9938506141756314,0.002990768291752488,-0.07171740291447337
1539131492147745,0.9829861905851836,0.012146181429770309,-0.06451514457923269
1539131492163741,0.9685816739147022,0.013855191882200302,-0.05938811322194226
1539131492179737,0.9594262607766844,0.010193026626993174,-0.06182955672541368
1539131492195733,0.9568627450980394,0.001037613488975353,-0.06549172198062125
1539131492211729,0.9532005798428322,-0.013122758831158876,-0.07000839246204338
1539131492227725,0.9585717555504694,-0.01995880064087885,-0.07013046463721695
1539131492243721,0.9762722209506371,-0.02777141985198739,-0.06305027847714983
1539131492259717,0.9983672846570535,-0.03411917296101308,-0.06146334019989297
1539131492275713,1.0153353170061798,-0.037537193865873064,-0.06475928892957983
1539131492291709,1.018997482261387,-0.03424124513618665,-0.07098496986343195
1539131492307705,1.0182650492103456,-0.03155565728236809,-0.07171740291447337
1539131492323701,1.018142977035172,-0.02801556420233453,-0.059876401922636546
1539131492339697,1.0213168535896848,-0.027527275501640247,-0.050598916609445155
1539131492355692,1.0209506370641641,-0.019470511940184565,-0.045349813076981604
1539131492371688,1.0165560387579156,-0.011535820553902454,-0.04364080262455161
1539131492387684,1.0146028839551384,-0.011657892729076025,-0.04632639047837017
1539131492403680,1.0109407186999313,-0.015197985809109582,-0.03961242084382377
1539131492419676,1.0108186465247577,-0.010681315327687457,-0.028870069428549527
1539131492435669,1.0059357595178149,-0.005432211795223907,-0.02252231631952384
1539131492451665,0.9995880064087892,0.0023804074158846333,-0.018249790188448856
1539131492467661,0.9899443045700771,0.004821850919356052,-0.016906996261539575
1539131492483657,0.9851834897383078,0.0017700465400167786,-0.015197985809109582
1539131492499652,0.9835965514610514,-0.001159685664148924,-0.014343480582894585
1539131492515648,0.9816433966582743,0.0036011291676203427,-0.007385366598001042
1539131492531644,0.9810330357824064,0.0026245517662317752,-0.007385366598001042
1539131492547640,0.9774929427023729,-0.0016479743648432077,-0.01104753185320817
1539131492563636,0.9765163653009843,-0.010559243152513886,-0.017151140611886717
1539131492579632,0.978591592278935,-0.01605249103532458,-0.013488975356679589
1539131492595628,0.9823758297093157,-0.015197985809109582,-0.00982681010147246
1539131492611624,0.9831082627603571,-0.01495384145876244,-0.005065995269703194
1539131492627620,0.9831082627603571,-0.015564202334630295,-0.007995727473868897
1539131492643616,0.9927519645990692,-0.01739528496223386,-0.013244831006332447
1539131492659612,1.0083772030212863,-0.022034027618829555,-0.01641870756084529
1539131492675608,1.0185091935606927,-0.024963759822995257,-0.023010605020218122
1539131492691604,1.023270008392462,-0.023010605020218122,-0.03155565728236809
1539131492707600,1.026077668421454,-0.01495384145876244,-0.031067368581673804
1539131492723596,1.029251544975967,-0.014099336232547444,-0.02911421377889667
1539131492739592,1.0321812771801326,-0.013366903181506018,-0.03167772945754166
1539131492755523,1.0305943389028762,-0.01629663538567172,-0.0424200808728159
1539131492771519,1.033768215457389,-0.011535820553902454,-0.04571602960250232
1539131492787514,1.0321812771801326,-0.008972304875257464,-0.04840161745632088
1539131492803510,1.023514152742809,-0.005920500495918191,-0.052063782711528006
1539131492819505,1.0202182040131227,-0.00970473792629889,-0.06012054627298369
1539131492835501,1.0194857709620813,-0.00970473792629889,-0.059632257572289404
1539131492851496,1.0136263065537499,-0.007263294422827471,-0.05804531929503298
1539131492867492,1.0060578316929885,-0.005554283970397478,-0.05487144274052014
1539131492883487,1.0006866559853513,-0.008606088349736751,-0.06256198977645555
1539131492899483,0.9904325932707714,-5.493247882810692E-4,-0.06524757763027411
1539131492915478,0.9810330357824064,0.006408789196612474,-0.05865568017090084
1539131492931474,0.9665064469367515,0.01226825360494388,-0.053040360112916574
1539131492947469,0.9519798580910965,0.01617456321049815,-0.05096513313496587
1539131492963465,0.9451438162813766,0.008117799649042468,-0.05230792706187515
1539131492979460,0.9497825589379723,0.0017700465400167786,-0.05279621576256943
1539131492995456,0.9563744563973451,4.272526131074983E-4,-0.04742504005493231
1539131493011451,0.96748302433814,-0.006530861371786045,-0.04254215304798947
1539131493027447,0.9762722209506371,-0.010437170977340315,-0.03973449301899734
1539131493043442,0.9839627679865721,-0.01739528496223386,-0.03997863736934448
1539131493059438,0.9917753871976807,-0.022278171969176697,-0.04449530785076661
1539131493075164,0.9987335011825742,-0.027038986800945963,-0.042908369573510186
1539131493091159,1.0077668421454185,-0.023010605020218122,-0.04083314259555948
1539131493107154,1.0094758525978484,-0.01739528496223386,-0.04046692607003877
1539131493123148,1.007888914320592,-0.008728160524910322,-0.038879987792782345
1539131493139143,0.9990997177080949,-0.0026245517662317752,-0.037659266041046635
1539131493155137,0.9861600671396964,3.0518043793392735E-4,-0.03424124513618665
1539131493171132,0.9766384374761579,0.004821850919356052,-0.03424124513618665
1539131493187126,0.9707789730678265,0.008239871824216038,-0.028381780727855244
1539131493203121,0.9798123140306707,0.009216449225604606,-0.03338673990997165
1539131493219115,0.9911650263218128,0.008972304875257464,-0.03546196688792236
1539131493235110,1.0005645838101778,0.009582665751125319,-0.03460746166170736
1539131493251104,1.0122835126268406,-0.001037613488975353,-0.03582818341344307
1539131493267099,1.0177767605096513,-0.0023804074158846333,-0.03546196688792236
1539131493283094,1.0160677500572213,-0.0021362630655374915,-0.03924620431830306
1539131493299088,1.0098420691233692,-0.0016479743648432077,-0.053284504463263715
1539131493315083,0.9942168307011521,-0.004821850919356052,-0.06280613412680269
1539131493331077,0.9815213244831007,0.0023804074158846333,-0.05426108186465228
1539131493347072,0.9678492408636608,0.0025024795910582043,-0.045471885252155175
1539131493363066,0.955275806820783,-0.0014038300144960658,-0.04388494697489875
1539131493379061,0.9405050736247809,0.0021362630655374915,-0.04229800869764233
1539131493394775,0.9228046082246131,0.0016479743648432077,-0.04596017395284946
1539131493410769,0.9154802777141988,6.103608758678547E-5,-0.04864576180666802
1539131493426762,0.9066910811017017,0.00457770656900891,-0.04510566872663446
1539131493442756,0.9086442359044788,-3.0518043793392735E-4,-0.03802548256656735
1539131493458749,0.9385519188220037,-0.014343480582894585,-0.03961242084382377
1539131493474743,0.9522240024414437,-0.019348439765010994,-0.040222781719691625
1539131493490737,0.9623559929808501,-0.0252079041733424,-0.05157549401083372
1539131493506730,0.9762722209506371,-0.04132143129625376,-0.062317845426107965
1539131493522724,0.9886015106431678,-0.054383154039825854,-0.06903181506065481
1539131493538717,0.9997100785839628,-0.05999847409781012,-0.07415884641794479
1539131493554711,1.0171663996337834,-0.06988632028686981,-0.07733272297245763
1539131493570705,1.0331578545815212,-0.0715953307392998,-0.06854352635996053
1539131493586698,1.0404821850919355,-0.06671244373235696,-0.062439917601281536
1539131493602692,1.0464637216754404,-0.05877775234607441,-0.06378271152819126
1539131493618685,1.0504921034561683,-0.041443503471427334,-0.059632257572289404
1539131493634679,1.055985351338979,-0.017273212787060288,-0.05145342183566015
1539131493650673,1.057694361791409,0.012146181429770309,-0.03790341039139378
1539131493666666,1.0512245365072097,0.0319218738078888,-0.032410162508583085
1539131493682660,1.036942092011902,0.04644846265354374,-0.03985656519417091
1539131493698653,1.0246128023193712,0.044129091325245895,-0.04083314259555948
1539131493714386,1.0171663996337834,0.025818265049210254,-0.042786297398336615
1539131493730378,1.0045929655909056,0.012634470130464592,-0.049256122682535874
1539131493746371,0.9912870984969864,0.007751583123521755,-0.04693675135423803
1539131493762364,0.9701686121919586,0.007873655298695326,-0.04583810177767589
1539131493778356,0.9434348058289466,0.004699778744182481,-0.04827954528114731
1539131493794349,0.9273212787060352,-0.01239032578011745,-0.05389486533913157
1539131493810341,0.9340352483405816,-0.03472953383688093,-0.05267414358739586
1539131493826334,0.9522240024414437,-0.0686655985351341,-0.05108720531013944
1539131493842327,0.9588158999008165,-0.08282597085526833,-0.05096513313496587
1539131493858319,0.9621118486305029,-0.09906157015335326,-0.05535973144121442
1539131493874312,0.9635767147325858,-0.10699626153963537,-0.0657358663309684
1539131493890305,0.97944609750515,-0.11407644769970249,-0.07769893949797835
1539131493906297,1.00166323338674,-0.11981383993286032,-0.07672236209658978
1539131493922290,1.015579461356527,-0.12091248950942246,-0.062195773250934394
1539131493938283,1.0257114518959334,-0.11895933470664533,-0.058289463645380124
1539131493954275,1.0347447928587776,-0.1106584267948425,-0.06500343327992697
1539131493970268,1.0486610208285647,-0.09918364232852683,-0.06707866025787768
1539131493986261,1.048294804303044,-0.08038452735179691,-0.05902189669642155
1539131494002253,1.0401159685664148,-0.05804531929503298,-0.044129091325245895
1539131494018246,1.034622720683604,-0.04083314259555948,-0.036438544289310926
1539131494033996,1.0345006485084305,-0.03070115205615309,-0.04095521477073305
1539131494049988,1.035233081559472,-0.02252231631952384,-0.05389486533913157
1539131494065980,1.0327916380560005,-0.021057450217440987,-0.05743495841916513
1539131494081971,1.0314488441290912,-0.021911955443655984,-0.05145342183566015
1539131494097963,1.020706492713817,-0.015564202334630295,-0.04449530785076661
1539131494113955,1.005325398641947,-0.015320057984283153,-0.048035400930800165
1539131494129946,0.9918974593728542,-0.01739528496223386,-0.05401693751430514
1539131494145938,0.9804226749065386,-0.02276646066987098,-0.06158541237506654
1539131494161930,0.9761501487754636,-0.035095750362401645,-0.06427100022888554
1539131494177921,0.9749294270237279,-0.04608224612802303,-0.06158541237506654
1539131494193913,0.9711451895933472,-0.051819638361180864,-0.0567025253681237
1539131494209905,0.964919508659495,-0.06170748455024011,-0.059754329747462975
1539131494225896,0.9673609521629665,-0.0762340733958955,-0.07110704203860552
1539131494241888,0.9752956435492486,-0.08734264133669045,-0.07769893949797835
1539131494257880,0.9839627679865721,-0.09063859006637687,-0.07501335164415979
1539131494273872,0.9903105210955978,-0.08685435263599617,-0.06341649500267055
1539131494289863,0.9973907072556649,-0.08319218738078904,-0.06121919584954583
1539131494305855,1.0011749446860456,-0.0753795681696805,-0.06439307240405912
1539131494321847,1.0038605325398642,-0.07025253681239052,-0.0657358663309684
1539131494337838,1.000198367284657,-0.06524757763027411,-0.05633630884260299
1539131494353607,0.9931181811245899,-0.062439917601281536,-0.04742504005493231
1539131494369598,0.98970016021973,-0.062317845426107965,-0.04095521477073305
1539131494385588,0.9960479133287556,-0.06170748455024011,-0.040100709544518054
1539131494401579,0.9977569237811856,-0.06268406195162912,-0.04339665827420447
1539131494417570,0.9942168307011521,-0.06268406195162912,-0.041687647821774476
1539131494433560,0.9921416037232014,-0.062439917601281536,-0.03961242084382377
1539131494449551,0.9962920576791028,-0.06439307240405912,-0.03790341039139378
1539131494465542,1.0003204394598306,-0.06549172198062125,-0.037537193865873064
1539131494481533,1.0047150377660792,-0.0707408255130848,-0.044129091325245895
1539131494497523,1.009597924773022,-0.07733272297245763,-0.05023270008392444
1539131494513514,1.0050812542916,-0.07306019684138265,-0.05474937056534657
1539131494529505,0.9999542229343099,-0.06720073243305125,-0.06195162890058725
1539131494545496,1.0063019760433356,-0.05951018539711583,-0.06585793850614197
1539131494561486,0.9911650263218128,-0.04888990615701516,-0.062195773250934394
1539131494577477,0.9774929427023729,-0.04180971999694805,-0.04974441138323016
1539131494593468,0.9707789730678265,-0.0470588235294116,-0.05682459754329727
1539131494609459,0.9673609521629665,-0.05352864881361086,-0.0695201037613491
1539131494625449,0.9626001373311972,-0.05645838101777656,-0.0745250629434655
1539131494641440,0.9597924773022051,-0.05645838101777656,-0.07013046463721695
1539131494657431,0.9590600442511636,-0.053162432288090145,-0.05413900968947871
1539131494673217,0.9600366216525522,-0.051941710536354435,-0.04632639047837017
1539131494689207,0.9654077973601893,-0.051819638361180864,-0.04351873044937804
1539131494705197,0.9705348287174793,-0.05389486533913157,-0.04876783398184159
1539131494721187,0.9798123140306707,-0.054505226214999425,-0.05096513313496587
1539131494737177,0.9835965514610514,-0.04742504005493231,-0.039124132143129486
1539131494753166,0.9925078202487221,-0.0432745860990309,-0.03546196688792236
1539131494769156,0.9976348516060121,-0.04132143129625376,-0.03607232776379021
1539131494785146,0.9961699855039292,-0.04046692607003877,-0.045593957427328746
1539131494801136,0.9936064698252842,-0.04315251392385733,-0.05242999923704872
1539131494817125,1.0032501716639963,-0.05609216449225585,-0.05535973144121442
1539131494833115,1.0106965743495842,-0.06829938200961339,-0.05645838101777656
1539131494849105,1.0141145952544441,-0.07281605249103551,-0.05365072098878443
1539131494865095,1.016433966582742,-0.07928587777523477,-0.053772793163958
1539131494881085,1.0144808117799649,-0.0875867856870376,-0.06207370107576082
1539131494897074,1.013015945677882,-0.09674219882505541,-0.07342641336690336
1539131494913064,1.0114290074006256,-0.09820706492713827,-0.08148317692835905
1539131494929054,1.008743419546807,-0.09027237354085615,-0.07867551689936692
1539131494945044,0.9998321507591363,-0.07806515602349906,-0.07098496986343195
1539131494961033,0.9909208819714657,-0.0678110933089191,-0.06390478370336483
1539131494977023,0.983718623636225,-0.06158541237506654,-0.07037460898756409
1539131494992828,0.978591592278935,-0.05804531929503298,-0.07525749599450693
1539131495008817,0.9721217669947357,-0.05255207141222229,-0.07110704203860552
1539131495024806,0.9682154573891815,-0.04498359655146089,-0.06036469062333083
1539131495040794,0.9673609521629665,-0.04339665827420447,-0.05474937056534657
1539131495056783,0.9696803234912643,-0.04315251392385733,-0.053162432288090145
1539131495072772,0.9687037460898758,-0.044007019150072324,-0.05169756618600729
1539131495088761,0.9680933852140079,-0.048157473105973736,-0.04840161745632088
1539131495104750,0.9690699626153965,-0.04852368963149445,-0.04571602960250232
1539131495120739,0.9673609521629665,-0.05242999923704872,-0.04376287479972518
1539131495136727,0.9699244678416115,-0.055970092317082276,-0.042664225223163044
1539131495152716,0.9766384374761579,-0.06414892805371197,-0.040100709544518054
1539131495168705,0.9860379949645228,-0.07476920729381265,-0.04461738002594018
1539131495184694,1.0022735942626078,-0.08087281605249119,-0.04205386434729519
1539131495200683,1.0154573891813534,-0.08136110475318548,-0.037781338216220206
1539131495216672,1.023514152742809,-0.07928587777523477,-0.04364080262455161
1539131495232660,1.0276646066987105,-0.08270389868009476,-0.05389486533913157
1539131495248649,1.0330357824063476,-0.08416876478217761,-0.061097123674372256
1539131495264638,1.0314488441290912,-0.07635614557106907,-0.05487144274052014
1539131495280627,1.0259555962462805,-0.06915388723582838,-0.044251163500419466
1539131495296616,1.0139925230792706,-0.06463721675440626,-0.041687647821774476
1539131495312469,1.0075226977950713,-0.06256198977645555,-0.04583810177767589
1539131495328457,1.005325398641947,-0.06524757763027411,-0.05133134966048658
1539131495344446,1.0006866559853513,-0.060975051499198685,-0.05633630884260299
1539131495360434,0.9982452124818799,-0.0508430609597923,-0.0499885557335773
1539131495376423,0.9915312428473335,-0.04071107042038591,-0.04071107042038591
1539131495392411,0.9843289845120928,-0.04083314259555948,-0.0386358434424352
1539131495408399,0.9860379949645228,-0.047913328755626594,-0.04632639047837017
1539131495424388,0.9873807888914321,-0.055725947966735134,-0.05023270008392444
1539131495440376,0.9844510566872664,-0.0613412680247194,-0.05023270008392444
1539131495456364,0.9839627679865721,-0.06390478370336483,-0.04632639047837017
1539131495472353,0.9843289845120928,-0.06463721675440626,-0.04632639047837017
1539131495488341,0.9812771801327536,-0.06707866025787768,-0.04974441138323016
1539131495504329,0.9767605096513314,-0.07501335164415979,-0.05145342183566015
1539131495520318,0.9801785305561914,-0.08905165178912045,-0.05792324711985941
1539131495536306,0.9827420462348364,-0.09454489967193114,-0.05609216449225585
1539131495552294,0.9840848401617457,-0.09210345616845972,-0.054383154039825854
1539131495568283,0.9850614175631343,-0.08709849698634331,-0.05487144274052014
1539131495584271,0.985427634088655,-0.08465705348287189,-0.05560387579156156
1539131495600259,0.9813992523079271,-0.08404669260700404,-0.057190814068817986
1539131495616248,0.9773708705271993,-0.08282597085526833,-0.05780117494468584
1539131495632049,0.9738307774471657,-0.08050659952697048,-0.05865568017090084
1539131495648037,0.9739528496223393,-0.08050659952697048,-0.056946669718470844
1539131495664025,0.9842069123369193,-0.07879758907454049,-0.053406576638437286
1539131495680013,0.9893339436942092,-0.07306019684138265,-0.051819638361180864
1539131495696001,0.98970016021973,-0.07122911421377909,-0.053406576638437286
1539131495711989,0.9909208819714657,-0.07135118638895266,-0.05938811322194226
1539131495727976,0.9971465629053178,-0.06927595941100195,-0.06268406195162912
1539131495743964,1.0017853055619135,-0.06268406195162912,-0.06121919584954583
1539131495759952,1.0055695429922942,-0.06121919584954583,-0.055725947966735134
1539131495775940,1.0058136873426413,-0.058411535820553695,-0.051819638361180864
1539131495791928,1.0097199969481956,-0.0613412680247194,-0.06207370107576082
1539131495807916,1.0122835126268406,-0.061097123674372256,-0.06854352635996053
1539131495823904,1.0083772030212863,-0.05487144274052014,-0.06744487678339839
1539131495839892,0.9995880064087892,-0.05267414358739586,-0.06512550545510054
1539131495855879,0.9971465629053178,-0.05474937056534657,-0.06280613412680269
1539131495871867,0.9958037689784085,-0.06182955672541368,-0.06353856717784412
1539131495887855,0.9943389028763256,-0.06939803158617552,-0.06598001068131554
1539131495903843,0.9878690775921264,-0.06793316548409267,-0.06707866025787768
1539131495919831,0.9834744792858778,-0.07196154726482051,-0.07183947508964694
1539131495935819,0.978591592278935,-0.07879758907454049,-0.07086289768825837
1539131495951690,0.9779812314030671,-0.08429083695735118,-0.06927595941100195
1539131495967678,0.9816433966582743,-0.09710841535057613,-0.0678110933089191
1539131495983665,0.9870145723659114,-0.10382238498512253,-0.07232776379034123
1539131495999652,0.987136644541085,-0.10516517891203181,-0.07208361943999408
1539131496015640,0.9781033035782407,-0.10247959105821325,-0.0733043411917298
1539131496031627,0.9705348287174793,-0.09735255970092327,-0.06890974288548124
1539131496047615,0.9739528496223393,-0.09881742580300612,-0.06475928892957983
1539131496063602,0.9766384374761579,-0.09417868314641042,-0.062439917601281536
1539131496079589,0.9735866330968186,-0.0867322804608226,-0.05889982452124798
1539131496095577,0.9713893339436943,-0.08148317692835905,-0.05609216449225585
1539131496111564,0.9690699626153965,-0.07696650644693692,-0.05487144274052014
1539131496127552,0.9748073548485543,-0.07904173342488763,-0.055848020141908705
1539131496143539,0.9840848401617457,-0.08319218738078904,-0.055725947966735134
1539131496159526,0.9922636758983749,-0.0829480430304419,-0.049134050507362304
1539131496175514,0.9953154802777142,-0.07989623865110262,-0.04718089570458517
1539131496191501,1.003616388189517,-0.08221560997940047,-0.05426108186465228
1539131496207489,1.0128938735027084,-0.08258182650492119,-0.06121919584954583
1539131496223476,1.0157015335317006,-0.08221560997940047,-0.06292820630197626
1539131496239463,1.0125276569771877,-0.08050659952697048,-0.05865568017090084
1539131496255451,1.0080109864957656,-0.08075074387731762,-0.05743495841916513
1539131496271270,1.0153353170061798,-0.08429083695735118,-0.06463721675440626
1539131496287257,1.0272983901731898,-0.0858777752346076,-0.06842145418478696
1539131496303243,1.031204699778744,-0.0829480430304419,-0.06720073243305125
1539131496319230,1.0237582970931562,-0.07708857862211049,-0.06805523765926624
1539131496335216,1.0109407186999313,-0.0715953307392998,-0.07037460898756409
1539131496351203,0.9926298924238957,-0.06756694895857196,-0.06732280460822482
1539131496367189,0.9813992523079271,-0.06305027847714983,-0.05780117494468584
1539131496383175,0.9771267261768521,-0.06121919584954583,-0.05548180361638799
1539131496399162,0.97261005569543,-0.06378271152819126,-0.0567025253681237
1539131496415148,0.9701686121919586,-0.06793316548409267,-0.058411535820553695
1539131496431135,0.9663843747615779,-0.0733043411917298,-0.05951018539711583
1539131496447121,0.9616235599298086,-0.07220569161516766,-0.05535973144121442
1539131496463108,0.955275806820783,-0.07257190814068837,-0.05255207141222229
1539131496479094,0.9594262607766844,-0.0820935378042269,-0.04840161745632088
1539131496495081,0.9616235599298086,-0.0888075074387733,-0.04852368963149445
1539131496511067,0.9643091477836272,-0.09796292057679112,-0.05365072098878443
1539131496527053,0.9713893339436943,-0.09771877622644398,-0.05352864881361086
1539131496543040,0.9772487983520257,-0.09381246662088971,-0.04742504005493231
1539131496559026,0.9805447470817121,-0.09576562142366685,-0.04754711223010588
1539131496575013,0.9832303349355307,-0.09686427100022899,-0.052063782711528006
1539131496590881,0.9931181811245899,-0.1018692301823454,-0.05548180361638799
1539131496606867,0.9982452124818799,-0.09771877622644398,-0.05365072098878443
1539131496622853,0.9982452124818799,-0.0867322804608226,-0.048157473105973736
1539131496638839,1.0021515220874342,-0.07940794995040834,-0.042786297398336615
1539131496654825,1.0011749446860456,-0.07122911421377909,-0.04449530785076661
1539131496670811,1.0028839551384756,-0.06817730983443981,-0.050476844434271584
1539131496686797,1.0041046768902113,-0.06659037155718339,-0.05633630884260299
1539131496702783,1.007888914320592,-0.06500343327992697,-0.05267414358739586
1539131496718769,1.0048371099412527,-0.06073090714885154,-0.04632639047837017
1539131496734755,1.007034409094377,-0.05999847409781012,-0.051819638361180864
1539131496750741,1.0109407186999313,-0.06585793850614197,-0.057190814068817986
1539131496766727,1.0115510795757992,-0.06817730983443981,-0.06256198977645555
1539131496782713,1.0094758525978484,-0.06915388723582838,-0.06195162890058725
1539131496798699,1.0056916151674677,-0.07025253681239052,-0.06292820630197626
1539131496814684,1.002517738612955,-0.06768902113374553,-0.06073090714885154
1539131496830670,0.9947051194018464,-0.0678110933089191,-0.06024261844815726
1539131496846656,0.9907988097962921,-0.06890974288548124,-0.06024261844815726
1539131496862642,0.9875028610666057,-0.06976424811169624,-0.06195162890058725
1539131496878628,0.9856717784390021,-0.07318226901655622,-0.06036469062333083
1539131496894614,0.9793240253299764,-0.07318226901655622,-0.05816739147020655
1539131496910492,0.97431906614786,-0.07660028992141621,-0.05499351491569371
1539131496926477,0.9782253757534143,-0.08172732127870619,-0.05682459754329727
1539131496942463,0.9839627679865721,-0.09137102311741829,-0.06634622720683625
1539131496958448,0.9821316853589686,-0.0955214770733197,-0.07025253681239052
1539131496974434,0.9752956435492486,-0.09185931181811258,-0.060975051499198685
1539131496990419,0.9750514991989014,-0.09393453879606328,-0.053406576638437286
1539131497006405,0.9813992523079271,-0.09906157015335326,-0.05804531929503298
1539131497022390,0.9886015106431678,-0.09845120927748541,-0.0648813611047534
1539131497038375,0.9907988097962921,-0.09295796139467472,-0.06353856717784412
1539131497054361,0.9846952010376135,-0.08233768215457404,-0.05889982452124798
1539131497070346,0.982009613183795,-0.07379262989242408,-0.05645838101777656
1539131497086332,0.9835965514610514,-0.07306019684138265,-0.055848020141908705
1539131497102317,0.9879911497673,-0.07867551689936692,-0.06121919584954583
1539131497118303,0.9899443045700771,-0.08014038300144977,-0.05999847409781012
1539131497134288,0.9887235828183414,-0.07818722819867263,-0.05511558709086728
1539131497150274,0.9868925001907378,-0.07489127946898622,-0.05279621576256943
1539131497166259,0.9884794384679942,-0.08148317692835905,-0.062317845426107965
1539131497182245,0.9942168307011521,-0.092591744869154,-0.06329442282749698
1539131497198230,0.9938506141756314,-0.10284580758373396,-0.06610208285648911
1539131497214216,0.9975127794308385,-0.10247959105821325,-0.06805523765926624
1539131497230102,0.9971465629053178,-0.09063859006637687,-0.062195773250934394
1539131497246087,0.9959258411535821,-0.07806515602349906,-0.05645838101777656
1539131497262072,0.9909208819714657,-0.07171740291447337,-0.05413900968947871
1539131497278057,0.9904325932707714,-0.07232776379034123,-0.05413900968947871
1539131497294042,0.9927519645990692,-0.06659037155718339,-0.05120927748531301
1539131497310027,0.9998321507591363,-0.06329442282749698,-0.05267414358739586
1539131497326012,1.002761882963302,-0.059632257572289404,-0.04876783398184159
1539131497341997,1.0088654917219806,-0.06610208285648911,-0.04522774090180803
1539131497357982,1.0076447699702449,-0.0745250629434655,-0.04473945220111375
1539131497373967,1.0012970168612192,-0.08172732127870619,-0.049378194857709445
1539131497389952,0.9978789959563592,-0.08197146562905333,-0.054627298390172996
1539131497405937,0.9969024185549706,-0.08233768215457404,-0.05511558709086728
1539131497421922,0.9960479133287556,-0.08636606393530188,-0.05767910276951227
1539131497437907,0.9942168307011521,-0.09332417792019543,-0.06268406195162912
1539131497453892,0.9899443045700771,-0.09503318837262542,-0.06341649500267055
1539131497469877,0.9911650263218128,-0.09283588921950114,-0.06756694895857196
1539131497485862,0.9973907072556649,-0.08929579613946759,-0.06964217593652267
1539131497501847,1.0052033264667735,-0.08355840390630975,-0.07525749599450693
1539131497517832,1.00166323338674,-0.07611200122072193,-0.07318226901655622
1539131497533817,0.9976348516060121,-0.07489127946898622,-0.0707408255130848
1539131497549713,0.9889677271686885,-0.06598001068131554,-0.06683451590753053
1539131497565698,0.9752956435492486,-0.053284504463263715,-0.06305027847714983
1539131497581683,0.9616235599298086,-0.05255207141222229,-0.06512550545510054
1539131497597668,0.9578393224994279,-0.05804531929503298,-0.06988632028686981
1539131497613653,0.9611352712291144,-0.06768902113374553,-0.06378271152819126
1539131497629638,0.9604028381780729,-0.07061875333791123,-0.053040360112916574
1539131497645623,0.9650415808346686,-0.07196154726482051,-0.046814679179064456
1539131497661608,0.96919203479057,-0.07550164034485407,-0.051819638361180864
1539131497677593,0.9737087052719922,-0.08404669260700404,-0.06671244373235696
1539131497693578,0.9855497062638285,-0.09613183794918756,-0.07293812466620908
1539131497709563,0.9943389028763256,-0.10040436408026254,-0.060852979324025114
1539131497725548,0.9955596246280614,-0.093446250095369,-0.04596017395284946
1539131497741533,0.9967803463797971,-0.08734264133669045,-0.04119935912108019
1539131497757518,0.9956816968032349,-0.08038452735179691,-0.05169756618600729
1539131497773503,0.9977569237811856,-0.07818722819867263,-0.06720073243305125
1539131497789488,1.0037384603646906,-0.07818722819867263,-0.0707408255130848
1539131497805473,1.003616388189517,-0.07122911421377909,-0.06024261844815726
1539131497821458,0.9981231403067063,-0.07025253681239052,-0.053284504463263715
1539131497837443,1.0005645838101778,-0.07501335164415979,-0.055725947966735134
1539131497853428,1.006179903868162,-0.07489127946898622,-0.0631723506523234
1539131497869293,1.0074006256198977,-0.06817730983443981,-0.06842145418478696
1539131497885277,1.0049591821164263,-0.06414892805371197,-0.0715953307392998
1539131497901262,1.001052872510872,-0.05658045319295013,-0.06366063935301769
1539131497917246,0.9962920576791028,-0.05645838101777656,-0.0604867627985044
1539131497933231,0.9983672846570535,-0.06158541237506654,-0.06341649500267055
1539131497949216,0.9948271915770199,-0.06512550545510054,-0.06976424811169624
1539131497965200,0.9917753871976807,-0.06585793850614197,-0.07647821774624264
1539131497981185,0.9857938506141757,-0.06268406195162912,-0.07501335164415979
1539131497997169,0.9812771801327536,-0.06671244373235696,-0.0648813611047534
1539131498013154,0.9765163653009843,-0.07354848554207694,-0.06292820630197626
1539131498029138,0.97602807660029,-0.07989623865110262,-0.06683451590753053
1539131498045123,0.9763942931258107,-0.08111696040283833,-0.07025253681239052
1539131498061107,0.9727321278706036,-0.07476920729381265,-0.06732280460822482
1539131498077092,0.9690699626153965,-0.0715953307392998,-0.06207370107576082
1539131498093076,0.9693141069657436,-0.07757686732280478,-0.05938811322194226
1539131498109061,0.9752956435492486,-0.09015030136568258,-0.06182955672541368
1539131498125045,0.97773708705272,-0.09759670405127041,-0.05816739147020655
1539131498141030,0.9778591592278936,-0.09381246662088971,-0.05108720531013944
1539131498157014,0.9756618600747693,-0.08465705348287189,-0.05035477225909801
1539131498172999,0.9813992523079271,-0.0800183108262762,-0.051819638361180864
1539131498188934,0.9909208819714657,-0.08160524910353262,-0.05035477225909801
1539131498204918,0.9929961089494164,-0.07794308384832549,-0.04449530785076661
1539131498220902,0.9945830472266728,-0.07647821774624264,-0.049256122682535874
1539131498236886,0.9989776455329213,-0.06390478370336483,-0.05523765926604085
1539131498252870,1.0063019760433356,-0.060852979324025114,-0.05877775234607441
1539131498268854,1.007888914320592,-0.06256198977645555,-0.06121919584954583
1539131498284838,1.007034409094377,-0.06439307240405912,-0.055848020141908705
1539131498300822,1.005325398641947,-0.0648813611047534,-0.050598916609445155
1539131498316806,0.9995880064087892,-0.060975051499198685,-0.05426108186465228
1539131498332790,0.9976348516060121,-0.05889982452124798,-0.061097123674372256
1539131498348775,0.9937285420004578,-0.05792324711985941,-0.06414892805371197
1539131498364759,0.9934843976501107,-0.06121919584954583,-0.06671244373235696
1539131498380743,0.9922636758983749,-0.062439917601281536,-0.06634622720683625
1539131498396727,0.9927519645990692,-0.06671244373235696,-0.06073090714885154
1539131498412711,0.9915312428473335,-0.07342641336690336,-0.05902189669642155
1539131498428695,0.9881132219424735,-0.0774547951476312,-0.062439917601281536
1539131498444679,0.9848172732127871,-0.07586785687037478,-0.06256198977645555
1539131498460663,0.9851834897383078,-0.07306019684138265,-0.06634622720683625
1539131498476647,0.9872587167162585,-0.07281605249103551,-0.06634622720683625
1539131498492631,0.9906767376211185,-0.07611200122072193,-0.06207370107576082
1539131498508514,0.9901884489204242,-0.08136110475318548,-0.06170748455024011
1539131498524498,0.9886015106431678,-0.08245975432974761,-0.06121919584954583
1539131498540481,0.99140917067216,-0.07794308384832549,-0.06378271152819126
1539131498556465,0.9920195315480278,-0.0736705577172505,-0.05914396887159512
1539131498572448,0.9934843976501107,-0.07183947508964694,-0.05792324711985941
1539131498588432,0.9921416037232014,-0.07098496986343195,-0.06182955672541368
1539131498604416,0.9947051194018464,-0.07037460898756409,-0.05633630884260299
1539131498620399,0.9958037689784085,-0.06829938200961339,-0.05804531929503298
1539131498636383,0.9964141298542764,-0.06817730983443981,-0.0604867627985044
1539131498652366,0.9958037689784085,-0.06646829938200982,-0.05926604104676869
1539131498668350,0.9958037689784085,-0.06500343327992697,-0.0575570305943387
1539131498684333,0.9972686350804914,-0.06256198977645555,-0.05658045319295013
1539131498700317,0.9958037689784085,-0.05792324711985941,-0.055725947966735134
1539131498716301,0.9950713359273671,-0.0575570305943387,-0.06390478370336483
1539131498732284,0.9900663767452507,-0.05877775234607441,-0.06060883497367797
1539131498748268,0.9900663767452507,-0.06646829938200982,-0.0567025253681237
1539131498764251,0.9912870984969864,-0.0707408255130848,-0.05365072098878443
1539131498780235,0.9906767376211185,-0.06915388723582838,-0.05621423666742942
1539131498796218,0.9860379949645228,-0.0686655985351341,-0.05902189669642155
1539131498812202,0.9822537575341421,-0.07171740291447337,-0.06146334019989297
1539131498828125,0.9773708705271993,-0.07513542381933336,-0.059876401922636546
1539131498844108,0.9765163653009843,-0.07867551689936692,-0.06060883497367797
1539131498860092,0.975173571374075,-0.08319218738078904,-0.062317845426107965
1539131498876075,0.9741969939726864,-0.08429083695735118,-0.06256198977645555
1539131498892059,0.9732204165712979,-0.08258182650492119,-0.06536964980544768
1539131498908043,0.975173571374075,-0.08111696040283833,-0.0631723506523234
1539131498924026,0.9754177157244222,-0.08050659952697048,-0.06463721675440626
1539131498940010,0.9796902418554971,-0.08245975432974761,-0.06463721675440626
1539131498955993,0.985427634088655,-0.08453498130769832,-0.06414892805371197
1539131498971977,0.9886015106431678,-0.08538948653391332,-0.0648813611047534
1539131498987960,0.9911650263218128,-0.08136110475318548,-0.06756694895857196
1539131499003944,0.9932402532997635,-0.07293812466620908,-0.061097123674372256
1539131499019928,0.9937285420004578,-0.06610208285648911,-0.06121919584954583
1539131499035911,0.9966582742046235,-0.0657358663309684,-0.06549172198062125
1539131499051895,1.0050812542916,-0.06305027847714983,-0.06890974288548124
1539131499067878,1.0038605325398642,-0.05621423666742942,-0.06536964980544768
1539131499083862,1.0021515220874342,-0.05108720531013944,-0.06329442282749698
1539131499099846,0.9994659342336156,-0.05560387579156156,-0.06305027847714983
1539131499115829,0.9982452124818799,-0.06158541237506654,-0.06585793850614197
1539131499131813,0.9971465629053178,-0.06610208285648911,-0.06378271152819126
1539131499147705,0.9901884489204242,-0.06500343327992697,-0.061097123674372256
1539131499163688,0.9812771801327536,-0.059632257572289404,-0.053284504463263715
1539131499179671,0.9723659113450829,-0.056946669718470844,-0.05389486533913157
1539131499195654,0.9746852826733807,-0.06500343327992697,-0.05938811322194226
1539131499211637,0.9818875410086214,-0.0791638056000612,-0.059876401922636546
1539131499227620,0.9857938506141757,-0.08722056916151688,-0.06305027847714983
1539131499243603,0.9872587167162585,-0.09149309529259186,-0.05523765926604085
1539131499259586,0.9884794384679942,-0.09137102311741829,-0.049256122682535874
1539131499275570,0.9940947585259785,-0.09063859006637687,-0.053772793163958
1539131499291553,1.0014190890363928,-0.09124895094224472,-0.059754329747462975
1539131499307536,0.9967803463797971,-0.09234760051880686,-0.0575570305943387
1539131499323519,0.9920195315480278,-0.09222552834363329,-0.054627298390172996
1539131499339502,0.9907988097962921,-0.08270389868009476,-0.05133134966048658
1539131499355485,0.9887235828183414,-0.07269398031586194,-0.04840161745632088
1539131499371468,0.9912870984969864,-0.06842145418478696,-0.049378194857709445
1539131499387451,0.9925078202487221,-0.06610208285648911,-0.05548180361638799
1539131499403434,0.9953154802777142,-0.06915388723582838,-0.06121919584954583
1539131499419417,0.9983672846570535,-0.06903181506065481,-0.061097123674372256
1539131499435401,0.9986114290074006,-0.06536964980544768,-0.05877775234607441
1539131499451384,0.9982452124818799,-0.06915388723582838,-0.0604867627985044
1539131499467315,0.9981231403067063,-0.07183947508964694,-0.06549172198062125
1539131499483298,0.9983672846570535,-0.07867551689936692,-0.07110704203860552
1539131499499281,0.9982452124818799,-0.08050659952697048,-0.07110704203860552
1539131499515263,0.9994659342336156,-0.08014038300144977,-0.06671244373235696
1539131499531246,0.9999542229343099,-0.08233768215457404,-0.06732280460822482
1539131499547228,0.9981231403067063,-0.0838025482566569,-0.07061875333791123
1539131499563211,0.9967803463797971,-0.08575570305943403,-0.07037460898756409
1539131499579194,0.9910429541466392,-0.07953002212558191,-0.06512550545510054
1539131499595176,0.9901884489204242,-0.07977416647592905,-0.06353856717784412
1539131499611159,0.9940947585259785,-0.07855344472419334,-0.06512550545510054
1539131499627142,0.9958037689784085,-0.07855344472419334,-0.06427100022888554
1539131499643124,0.9934843976501107,-0.0783093003738462,-0.058533607995727266
1539131499659107,0.9882352941176471,-0.07989623865110262,-0.059754329747462975
1539131499675089,0.9901884489204242,-0.08331425955596261,-0.057068741893644415
1539131499691072,0.9900663767452507,-0.08038452735179691,-0.05474937056534657
1539131499707055,0.9842069123369193,-0.0791638056000612,-0.05267414358739586
1539131499723037,0.9805447470817121,-0.08014038300144977,-0.05560387579156156
1539131499739020,0.9844510566872664,-0.08404669260700404,-0.05780117494468584
1539131499755003,0.9857938506141757,-0.08490119783321903,-0.058533607995727266
1539131499770985,0.9831082627603571,-0.08526741435873975,-0.0575570305943387
1539131499786926,0.9844510566872664,-0.08416876478217761,-0.05365072098878443
1539131499802909,0.9848172732127871,-0.08111696040283833,-0.05169756618600729
1539131499818891,0.9866483558403907,-0.08258182650492119,-0.057312886243991557
1539131499834874,0.9886015106431678,-0.07940794995040834,-0.059754329747462975
1539131499850856,0.9922636758983749,-0.07428091859311836,-0.061097123674372256
1539131499866839,0.9906767376211185,-0.0678110933089191,-0.05816739147020655
1539131499882822,0.9909208819714657,-0.0695201037613491,-0.05743495841916513
1539131499898804,0.9906767376211185,-0.0724498359655148,-0.05804531929503298
1539131499914787,0.9923857480735485,-0.07171740291447337,-0.06414892805371197
1539131499930770,0.9909208819714657,-0.07086289768825837,-0.06768902113374553
1539131499946752,0.9877470054169528,-0.06720073243305125,-0.06451514457923269
1539131499962735,0.9876249332417792,-0.06744487678339839,-0.06341649500267055
1539131499978717,0.9859159227893493,-0.07269398031586194,-0.0640268558785384
1539131499994700,0.9849393453879607,-0.07501335164415979,-0.06756694895857196
1539131500010683,0.9856717784390021,-0.07598992904554835,-0.06732280460822482
1539131500026665,0.9887235828183414,-0.07354848554207694,-0.07049668116273766
1539131500042648,0.9910429541466392,-0.07135118638895266,-0.06890974288548124
1539131500058631,0.9921416037232014,-0.07171740291447337,-0.06854352635996053
1539131500074613,0.9903105210955978,-0.0745250629434655,-0.06976424811169624
1539131500090596,0.9898222323949035,-0.07769893949797835,-0.06878767071030767
1539131500106506,0.9890897993438621,-0.07684443427176335,-0.06512550545510054
1539131500122488,0.9934843976501107,-0.07672236209658978,-0.06805523765926624
1539131500138470,0.9932402532997635,-0.0753795681696805,-0.06622415503166268
1539131500154452,0.988845654993515,-0.07635614557106907,-0.06720073243305125
1539131500170435,0.9865262836652171,-0.07721065079728406,-0.06414892805371197
1539131500186417,0.9851834897383078,-0.0812390325780119,-0.06451514457923269
1539131500202399,0.99140917067216,-0.08087281605249119,-0.06610208285648911
1539131500218381,0.9877470054169528,-0.07891966124971406,-0.06439307240405912
1539131500234363,0.9879911497673,-0.07489127946898622,-0.06756694895857196
1539131500250345,0.9865262836652171,-0.07391470206759765,-0.06439307240405912
1539131500266327,0.9910429541466392,-0.0715953307392998,-0.06585793850614197
1539131500282310,0.9904325932707714,-0.07025253681239052,-0.06707866025787768
1539131500298292,0.9910429541466392,-0.07135118638895266,-0.0657358663309684
1539131500314274,0.9884794384679942,-0.07000839246204338,-0.06378271152819126
1539131500330256,0.9923857480735485,-0.07476920729381265,-0.0657358663309684
1539131500346238,0.9940947585259785,-0.07440299076829193,-0.06439307240405912
1539131500362220,0.99140917067216,-0.07306019684138265,-0.06158541237506654
1539131500378203,0.9884794384679942,-0.07708857862211049,-0.06121919584954583
1539131500394185,0.9901884489204242,-0.0791638056000612,-0.06366063935301769
1539131500410167,0.9873807888914321,-0.0783093003738462,-0.06390478370336483
1539131500426117,0.9859159227893493,-0.07965209430075548,-0.05999847409781012
1539131500442099,0.9895780880445564,-0.07928587777523477,-0.05780117494468584
1539131500458081,0.9960479133287556,-0.07733272297245763,-0.05609216449225585
1539131500474063,0.9988555733577478,-0.07196154726482051,-0.061097123674372256
1539131500490045,0.9989776455329213,-0.06805523765926624,-0.06451514457923269
1539131500506027,0.9975127794308385,-0.06585793850614197,-0.06060883497367797
1539131500522009,0.9970244907301442,-0.06610208285648911,-0.055970092317082276
1539131500537992,0.9939726863508049,-0.06585793850614197,-0.058533607995727266
1539131500553974,0.9879911497673,-0.06646829938200982,-0.060852979324025114
1539131500569956,0.9846952010376135,-0.06793316548409267,-0.06414892805371197
1539131500585938,0.9833524071107043,-0.07281605249103551,-0.06329442282749698
1539131500601920,0.9826199740596628,-0.08148317692835905,-0.06451514457923269
1539131500617902,0.9826199740596628,-0.08563363088426046,-0.0604867627985044
1539131500633885,0.9822537575341421,-0.09002822919050901,-0.062195773250934394
1539131500649867,0.9856717784390021,-0.09076066224155044,-0.06744487678339839
1539131500665849,0.9864042114900435,-0.08563363088426046,-0.06598001068131554
1539131500681831,0.98457312886244,-0.0829480430304419,-0.06500343327992697
1539131500697813,0.98115510795758,-0.0812390325780119,-0.06805523765926624
1539131500713795,0.9805447470817121,-0.07879758907454049,-0.06305027847714983
1539131500729777,0.9856717784390021,-0.07721065079728406,-0.06427100022888554
1539131500745697,0.9881132219424735,-0.07513542381933336,-0.06268406195162912
1539131500761679,0.9843289845120928,-0.0715953307392998,-0.05914396887159512
1539131500777661,0.9840848401617457,-0.07403677424277122,-0.05914396887159512
1539131500793643,0.9907988097962921,-0.07440299076829193,-0.059876401922636546
1539131500809625,0.9984893568322271,-0.07525749599450693,-0.06427100022888554
1539131500825607,0.9982452124818799,-0.07379262989242408,-0.0631723506523234
1539131500841590,0.9936064698252842,-0.07269398031586194,-0.06475928892957983
1539131500857572,0.9945830472266728,-0.0736705577172505,-0.06158541237506654
1539131500873554,0.9933623254749371,-0.07342641336690336,-0.060852979324025114
1539131500889536,0.9926298924238957,-0.07550164034485407,-0.06305027847714983
1539131500905518,0.9936064698252842,-0.07440299076829193,-0.06683451590753053
1539131500921500,0.9900663767452507,-0.07281605249103551,-0.06854352635996053
1539131500937482,0.9900663767452507,-0.07269398031586194,-0.06463721675440626
1539131500953465,0.9964141298542764,-0.07391470206759765,-0.06353856717784412
1539131500969447,0.9964141298542764,-0.07208361943999408,-0.060975051499198685
1539131500985429,0.9927519645990692,-0.06976424811169624,-0.05938811322194226
1539131501001411,0.9923857480735485,-0.07013046463721695,-0.0613412680247194
1539131501017393,0.9916533150225071,-0.07318226901655622,-0.06451514457923269
1539131501033375,0.9889677271686885,-0.07513542381933336,-0.062195773250934394
1539131501049358,0.9855497062638285,-0.07794308384832549,-0.059632257572289404
1539131501065307,0.9755397878995957,-0.07867551689936692,-0.05767910276951227
1539131501081289,0.9707789730678265,-0.08404669260700404,-0.06158541237506654
1539131501097271,0.9750514991989014,-0.09137102311741829,-0.06146334019989297
1539131501113252,0.9816433966582743,-0.09600976577401399,-0.06353856717784412
1539131501129234,0.9904325932707714,-0.09442282749675757,-0.062439917601281536
1539131501145216,0.988845654993515,-0.08465705348287189,-0.057190814068817986
1539131501161197,0.9954375524528878,-0.0879530022125583,-0.06207370107576082
1539131501177179,1.001907377737087,-0.09161516746776543,-0.06744487678339839
1539131501193161,0.9989776455329213,-0.08526741435873975,-0.05780117494468584
1539131501209142,0.9921416037232014,-0.07440299076829193,-0.053040360112916574
1539131501225124,0.9922636758983749,-0.06646829938200982,-0.055725947966735134
1539131501241106,0.9966582742046235,-0.06195162890058725,-0.060975051499198685
1539131501257087,1.000198367284657,-0.06158541237506654,-0.06305027847714983
1539131501273069,0.9956816968032349,-0.06329442282749698,-0.06280613412680269
1539131501289051,0.9911650263218128,-0.06292820630197626,-0.05877775234607441
1539131501305032,0.9892118715190357,-0.06903181506065481,-0.05633630884260299
1539131501321014,0.9878690775921264,-0.07928587777523477,-0.0613412680247194
1539131501336996,0.9931181811245899,-0.08307011520561547,-0.06659037155718339
1539131501352977,0.9917753871976807,-0.08856336308842616,-0.07293812466620908
1539131501368959,0.9851834897383078,-0.09027237354085615,-0.07525749599450693
1539131501384918,0.9815213244831007,-0.09735255970092327,-0.07586785687037478
1539131501400900,0.9784695201037614,-0.09979400320439469,-0.0736705577172505
1539131501416881,0.9754177157244222,-0.09906157015335326,-0.06817730983443981
1539131501432863,0.9770046540016786,-0.09588769359884042,-0.0631723506523234
1539131501448845,0.9816433966582743,-0.0875867856870376,-0.06292820630197626
1539131501464826,0.9879911497673,-0.07721065079728406,-0.0640268558785384
1539131501480808,0.9929961089494164,-0.0736705577172505,-0.0669565880827041
1539131501496790,0.9945830472266728,-0.06903181506065481,-0.06170748455024011
1539131501512771,0.9943389028763256,-0.06939803158617552,-0.054383154039825854
1539131501528753,1.0000762951094835,-0.06854352635996053,-0.050598916609445155
1539131501544735,1.0071564812695506,-0.07013046463721695,-0.04974441138323016
1539131501560716,1.0084992751964599,-0.0669565880827041,-0.049378194857709445
1539131501576698,0.9997100785839628,-0.06390478370336483,-0.05035477225909801
1539131501592680,0.9909208819714657,-0.0640268558785384,-0.053406576638437286
1539131501608661,0.9864042114900435,-0.0695201037613491,-0.05682459754329727
1539131501624643,0.98628213931487,-0.07550164034485407,-0.05816739147020655
1539131501640625,0.9915312428473335,-0.08319218738078904,-0.06341649500267055
1539131501656606,0.9942168307011521,-0.08184939345387976,-0.0604867627985044
1539131501672588,0.9853055619134814,-0.07855344472419334,-0.05865568017090084
1539131501688570,0.9804226749065386,-0.0820935378042269,-0.06268406195162912
1539131501704498,0.9757839322499429,-0.08819714656290545,-0.07110704203860552
1539131501720480,0.97431906614786,-0.0875867856870376,-0.07208361943999408
1539131501736461,0.9766384374761579,-0.08685435263599617,-0.06890974288548124
1539131501752443,0.9868925001907378,-0.08709849698634331,-0.06634622720683625
1539131501768425,0.9958037689784085,-0.08514534218356618,-0.0669565880827041
1539131501784406,1.0017853055619135,-0.08319218738078904,-0.06659037155718339
1539131501800388,1.0041046768902113,-0.08075074387731762,-0.06890974288548124
1539131501816370,1.000198367284657,-0.07721065079728406,-0.0707408255130848
1539131501832351,0.9915312428473335,-0.07061875333791123,-0.06854352635996053
1539131501848333,0.9822537575341421,-0.06659037155718339,-0.06378271152819126
1539131501864315,0.9804226749065386,-0.06622415503166268,-0.06024261844815726
1539131501880296,0.9804226749065386,-0.06683451590753053,-0.05999847409781012
1539131501896278,0.9799343862058443,-0.07147325856412623,-0.05951018539711583
1539131501912260,0.9812771801327536,-0.07635614557106907,-0.06451514457923269
1539131501928241,0.9812771801327536,-0.08184939345387976,-0.061097123674372256
1539131501944223,0.9855497062638285,-0.09002822919050901,-0.06256198977645555
1539131501960205,0.9951934081025406,-0.09515526054779899,-0.06512550545510054
1539131501976186,0.9965362020294499,-0.09356832227054257,-0.06292820630197626
1539131501992168,0.9931181811245899,-0.08892957961394687,-0.06158541237506654
1539131502008150,0.9925078202487221,-0.08807507438773188,-0.06536964980544768
1539131502024109,0.9973907072556649,-0.08612191958495474,-0.06500343327992697
1539131502040090,0.9990997177080949,-0.08038452735179691,-0.06610208285648911
1539131502056072,0.9955596246280614,-0.07501335164415979,-0.0657358663309684
1539131502072054,0.9943389028763256,-0.0724498359655148,-0.06817730983443981
1539131502088035,0.9945830472266728,-0.07098496986343195,-0.06646829938200982
1539131502104017,0.9944609750514992,-0.07257190814068837,-0.06671244373235696
1539131502119999,0.9933623254749371,-0.07379262989242408,-0.06756694895857196
1539131502135980,0.99140917067216,-0.0753795681696805,-0.06805523765926624
1539131502151962,0.9910429541466392,-0.08148317692835905,-0.06793316548409267
1539131502167944,0.9925078202487221,-0.08343633173113618,-0.06964217593652267
1539131502183925,0.9904325932707714,-0.08490119783321903,-0.07061875333791123
1539131502199907,0.9857938506141757,-0.08868543526359973,-0.0774547951476312
1539131502215889,0.9861600671396964,-0.0955214770733197,-0.08697642481116974
1539131502231870,0.9816433966582743,-0.09283588921950114,-0.08416876478217761
1539131502247852,0.973464560921645,-0.09625391012436113,-0.08099488822766476
1539131502263834,0.97261005569543,-0.09002822919050901,-0.07379262989242408
1539131502279815,0.9795681696803236,-0.08319218738078904,-0.06878767071030767
1539131502295797,0.9865262836652171,-0.0736705577172505,-0.0678110933089191
1539131502311779,0.9877470054169528,-0.0707408255130848,-0.06793316548409267
1539131502327760,0.9887235828183414,-0.07147325856412623,-0.06659037155718339
1539131502343719,0.9909208819714657,-0.07342641336690336,-0.05780117494468584
1539131502359700,0.9909208819714657,-0.07110704203860552,-0.05157549401083372
1539131502375682,0.9901884489204242,-0.07232776379034123,-0.04742504005493231
1539131502391663,0.9916533150225071,-0.07586785687037478,-0.05242999923704872
1539131502407644,0.9949492637521935,-0.08160524910353262,-0.059754329747462975
1539131502423625,0.9972686350804914,-0.08746471351186402,-0.06366063935301769
1539131502439606,0.9927519645990692,-0.08978408484016187,-0.0669565880827041
1539131502455587,0.9884794384679942,-0.09369039444571614,-0.07135118638895266
1539131502471569,0.9866483558403907,-0.09881742580300612,-0.07708857862211049
1539131502487550,0.9856717784390021,-0.09698634317540256,-0.07660028992141621
1539131502503531,0.9834744792858778,-0.08868543526359973,-0.07782101167315192
1539131502519512,0.9829861905851836,-0.0812390325780119,-0.08062867170214405
1539131502535493,0.9875028610666057,-0.07940794995040834,-0.08477912565804546
1539131502551475,0.9883573662928207,-0.08014038300144977,-0.08734264133669045
1539131502567456,0.9865262836652171,-0.08062867170214405,-0.08978408484016187
1539131502583437,0.9829861905851836,-0.07818722819867263,-0.08307011520561547
1539131502599418,0.9829861905851836,-0.07220569161516766,-0.07721065079728406
1539131502615399,0.9877470054169528,-0.07562371252002764,-0.07721065079728406
1539131502631381,0.9889677271686885,-0.07464713511863907,-0.08050659952697048
1539131502647362,0.9799343862058443,-0.07342641336690336,-0.07562371252002764
1539131502663330,0.9727321278706036,-0.07428091859311836,-0.07183947508964694
1539131502679311,0.9732204165712979,-0.07672236209658978,-0.06378271152819126
1539131502695292,0.9833524071107043,-0.08416876478217761,-0.0604867627985044
1539131502711273,0.9977569237811856,-0.08892957961394687,-0.06170748455024011
1539131502727254,1.00166323338674,-0.09076066224155044,-0.0669565880827041
1539131502743236,1.0031280994888228,-0.09063859006637687,-0.07354848554207694
1539131502759217,1.0060578316929885,-0.08917372396429402,-0.07098496986343195
1539131502775198,1.001907377737087,-0.09185931181811258,-0.06842145418478696
1539131502791179,0.9857938506141757,-0.09246967269398043,-0.06585793850614197
1539131502807160,0.9759060044251164,-0.10113679713130397,-0.0724498359655148
1539131502823142,0.9829861905851836,-0.09625391012436113,-0.07684443427176335
1539131502839123,0.9857938506141757,-0.10138094148165111,-0.07672236209658978
1539131502855104,0.9779812314030671,-0.09674219882505541,-0.0736705577172505
1539131502871085,0.970046540016785,-0.0896620126649883,-0.0695201037613491
1539131502887066,0.9678492408636608,-0.08648813611047546,-0.0648813611047534
1539131502903048,0.9699244678416115,-0.08551155870908689,-0.06903181506065481
1539131502919029,0.9806668192568857,-0.08148317692835905,-0.06927595941100195
1539131502935010,0.9893339436942092,-0.07476920729381265,-0.06414892805371197
1539131502950991,0.9964141298542764,-0.07428091859311836,-0.06170748455024011
1539131502966972,1.0003204394598306,-0.07611200122072193,-0.06622415503166268
1539131502982940,1.010452429999237,-0.0838025482566569,-0.07403677424277122
1539131502998921,1.013870450904097,-0.08307011520561547,-0.07110704203860552
1539131503014903,1.0116731517509727,-0.08685435263599617,-0.06378271152819126
1539131503030884,1.0086213473716334,-0.09283588921950114,-0.07013046463721695
1539131503046865,1.010452429999237,-0.09918364232852683,-0.07879758907454049
1539131503062846,1.0093537804226749,-0.09820706492713827,-0.08429083695735118
1539131503078827,1.0064240482185092,-0.09442282749675757,-0.08648813611047546
1539131503094809,1.0000762951094835,-0.09466697184710471,-0.08551155870908689
1539131503110790,0.9943389028763256,-0.09527733272297256,-0.08722056916151688
1539131503126771,0.9923857480735485,-0.09234760051880686,-0.09088273441672401
1539131503142752,0.9916533150225071,-0.09405661097123685,-0.09088273441672401
1539131503158733,0.9876249332417792,-0.09076066224155044,-0.09002822919050901
1539131503174715,0.9813992523079271,-0.08697642481116974,-0.08465705348287189
1539131503190696,0.9773708705271993,-0.0829480430304419,-0.0762340733958955
1539131503206677,0.9773708705271993,-0.07733272297245763,-0.07953002212558191
1539131503222658,0.9765163653009843,-0.07769893949797835,-0.08087281605249119
1539131503238639,0.9728542000457772,-0.07867551689936692,-0.07940794995040834
1539131503254621,0.9713893339436943,-0.08416876478217761,-0.07611200122072193
1539131503270602,0.9727321278706036,-0.08917372396429402,-0.07025253681239052
1539131503286583,0.9754177157244222,-0.09161516746776543,-0.07403677424277122
1539131503302520,0.9765163653009843,-0.10247959105821325,-0.07867551689936692
1539131503318502,0.9744411383230336,-0.10638590066376752,-0.07708857862211049
1539131503334483,0.97944609750515,-0.10846112764171822,-0.07269398031586194
1539131503350464,0.9840848401617457,-0.10760662241550323,-0.07049668116273766
1539131503366445,0.9876249332417792,-0.1077286945906768,-0.07843137254901977
1539131503382426,0.9876249332417792,-0.1085831998168918,-0.08538948653391332
1539131503398408,0.9903105210955978,-0.10931563286793322,-0.08856336308842616
1539131503414389,0.9856717784390021,-0.131288624399176,-0.08429083695735118
1539131503430370,0.9868925001907378,-0.1455710688944838,-0.08172732127870619
1539131503446351,0.9940947585259785,-0.1400778210116731,-0.08661020828564903
1539131503462332,1.0011749446860456,-0.10528725108720538,-0.09515526054779899
1539131503478314,1.0094758525978484,-0.06720073243305125,-0.10919356069275965
1539131503494295,1.0065461203936827,-0.028503852903028815,-0.11322194247348749
1539131503510276,0.9997100785839628,-0.016906996261539575,-0.11541924162661177
1539131503526257,1.00166323338674,-0.013244831006332447,-0.11334401464866106
1539131503542238,0.9928740367742428,-0.02545204852368954,-0.10174715800717182
1539131503558220,0.9843289845120928,-0.053040360112916574,-0.09832913710231184
1539131503574201,0.9812771801327536,-0.08331425955596261,-0.10003814755474183
1539131503590182,0.9801785305561914,-0.08917372396429402,-0.09698634317540256
1539131503606163,0.9860379949645228,-0.08136110475318548,-0.09246967269398043
1539131503622131,0.9903105210955978,-0.06939803158617552,-0.093446250095369
1539131503638112,0.9910429541466392,-0.06915388723582838,-0.09857328145265898
1539131503654092,0.9864042114900435,-0.07647821774624264,-0.09832913710231184
1539131503670073,0.9850614175631343,-0.08453498130769832,-0.09588769359884042
1539131503686054,0.9826199740596628,-0.08612191958495474,-0.09308003356984829
1539131503702035,0.9816433966582743,-0.0850232700083926,-0.09149309529259186
1539131503718015,0.9804226749065386,-0.08477912565804546,-0.09405661097123685
1539131503733996,0.98115510795758,-0.08526741435873975,-0.0972304875257497
1539131503749977,0.9823758297093157,-0.08538948653391332,-0.09735255970092327
1539131503765957,0.9778591592278936,-0.08136110475318548,-0.091737239642939
1539131503781938,0.976882581826505,-0.0829480430304419,-0.09002822919050901
1539131503797919,0.980300602731365,-0.0867322804608226,-0.09002822919050901
1539131503813900,0.9883573662928207,-0.0875867856870376,-0.09674219882505541
1539131503829880,0.9964141298542764,-0.0820935378042269,-0.09893949797817969
1539131503845861,0.9965362020294499,-0.07660028992141621,-0.0963759822995347
1539131503861842,0.9943389028763256,-0.08172732127870619,-0.1010147249561304
1539131503877823,0.9943389028763256,-0.08392462043183047,-0.10199130235751896
1539131503893803,1.0009308003356985,-0.08441290913252475,-0.10455481803616395
1539131503909784,1.0045929655909056,-0.08343633173113618,-0.10162508583199825
1539131503925765,1.0058136873426413,-0.07635614557106907,-0.10406652933546967
1539131503941711,1.0102082856488899,-0.06976424811169624,-0.10614175631342038
1539131503957692,1.0146028839551384,-0.0695201037613491,-0.10748455024032966
1539131503973672,-0.6554665445944914,1.0392614633401998,0.3714045929655905
1539131503989653,1.9380788891432061,-0.9660181582360572,-0.6264133669031815
1539131504005634,1.1204394598306244,-0.017273212787060288,-0.16424811169604014
1539131504021615,1.0612344548714425,-0.08038452735179691,-0.21173418783855968
1539131504037595,1.0192416266117341,-0.02386511024643312,-0.15399404898146019
1539131504053576,1.0076447699702449,-0.007873655298695326,-0.12848096437018386
1539131504069557,1.0152132448310063,0.032532234683756656,-0.14691386282139307
1539131504085538,1.0254673075455862,0.02679484245059882,-0.17730983443961224
1539131504101518,0.9990997177080949,-0.007019150072480329,-0.1732814526588844
1539131504117499,0.9590600442511636,-0.053284504463263715,-0.14825665674830235
1539131504133480,0.9503929198138401,-0.05487144274052014,-0.1350728618295567
1539131504149460,0.9654077973601893,-0.0462043183031966,-0.12481879911497673
1539131504165441,0.9716334782940415,-0.07611200122072193,-0.10504310673685824
1539131504181422,0.9754177157244222,-0.10247959105821325,-0.0791638056000612
1539131504197403,0.9800564583810178,-0.10553139543755252,-0.06988632028686981
1539131504213383,0.980300602731365,-0.0955214770733197,-0.06817730983443981
1539131504229364,0.9865262836652171,-0.08465705348287189,-0.06378271152819126
1539131504245345,0.9881132219424735,-0.08160524910353262,-0.04962233920805659
1539131504261322,0.9823758297093157,-0.09222552834363329,-0.045471885252155175
1539131504277302,0.982009613183795,-0.10650797283894109,-0.04766918440527945
1539131504293283,0.9817654688334478,-0.10833905546654465,-0.04754711223010588
1539131504309264,0.983718623636225,-0.10443274586099038,-0.048157473105973736
1539131504325245,0.9815213244831007,-0.09735255970092327,-0.04852368963149445
1539131504341225,0.9801785305561914,-0.09600976577401399,-0.05682459754329727
1539131504357206,0.9846952010376135,-0.092591744869154,-0.05792324711985941
1539131504373187,0.9929961089494164,-0.09124895094224472,-0.06207370107576082
1539131504389167,0.9949492637521935,-0.09295796139467472,-0.07513542381933336
1539131504405148,0.9939726863508049,-0.09198138399328615,-0.0905165178912033
1539131504421129,1.0004425116350042,-0.09149309529259186,-0.10443274586099038
1539131504437110,0.9997100785839628,-0.08429083695735118,-0.10663004501411466
1539131504453090,0.9934843976501107,-0.07379262989242408,-0.11004806591897465
1539131504469071,0.9889677271686885,-0.06475928892957983,-0.11859311818112461
1539131504485052,0.9851834897383078,-0.06121919584954583,-0.12555123216601816
1539131504501032,0.9866483558403907,-0.053040360112916574,-0.13055619134813456
1539131504517013,0.9835965514610514,-0.04486152437628732,-0.1337300679026474
1539131504532994,0.982009613183795,-0.0365606164644845,-0.1362935835812924
1539131504548975,0.9831082627603571,-0.03033493553063238,-0.14068818188754095
1539131504564955,0.9875028610666057,-0.027038986800945963,-0.13934538796063167
1539131504580932,0.9925078202487221,-0.024597543297474544,-0.13641565575646597
1539131504596913,0.9929961089494164,-0.02276646066987098,-0.13604943923094526
1539131504612894,0.9927519645990692,-0.025085831998168828,-0.14227512016479738
1539131504628874,0.9999542229343099,-0.03070115205615309,-0.14227512016479738
1539131504644855,0.9999542229343099,-0.03338673990997165,-0.12884718089570457
1539131504660836,0.9981231403067063,-0.034851606012054503,-0.12066834515907532
1539131504676817,1.0026398107881285,-0.04608224612802303,-0.12152285038529032
1539131504692797,1.0065461203936827,-0.055848020141908705,-0.11798275730525676
1539131504708778,1.0055695429922942,-0.06463721675440626,-0.10357824063477539
1539131504724759,1.001052872510872,-0.07513542381933336,-0.08831921873807902
1539131504740739,0.9966582742046235,-0.08709849698634331,-0.07989623865110262
1539131504756720,0.9972686350804914,-0.09515526054779899,-0.0707408255130848
1539131504772701,0.9883573662928207,-0.09698634317540256,-0.059754329747462975
1539131504788682,0.9812771801327536,-0.09918364232852683,-0.05218585488670158
1539131504804662,0.9835965514610514,-0.10699626153963537,-0.04461738002594018
1539131504820643,0.9947051194018464,-0.11004806591897465,-0.04376287479972518
1539131504836624,1.001052872510872,-0.11139085984588393,-0.03985656519417091
1539131504852604,1.0006866559853513,-0.10614175631342038,-0.03533989471274879
1539131504868585,0.9932402532997635,-0.09613183794918756,-0.034851606012054503
1539131504884566,0.9835965514610514,-0.08465705348287189,-0.032288090333409514
1539131504900512,0.9821316853589686,-0.08270389868009476,-0.03460746166170736
1539131504916493,0.9856717784390021,-0.0850232700083926,-0.045471885252155175
1539131504932474,0.9870145723659114,-0.08929579613946759,-0.05645838101777656
1539131504948454,0.9816433966582743,-0.08807507438773188,-0.06439307240405912
1539131504964435,0.9705348287174793,-0.08111696040283833,-0.06927595941100195
1539131504980416,0.9617456321049822,-0.07769893949797835,-0.08075074387731762
1539131504996397,0.9621118486305029,-0.0800183108262762,-0.09137102311741829
1539131505012377,0.9656519417105365,-0.08184939345387976,-0.09271381704432757
1539131505028358,0.9739528496223393,-0.08245975432974761,-0.09405661097123685
1539131505044339,0.9846952010376135,-0.0791638056000612,-0.0955214770733197
1539131505060320,0.9928740367742428,-0.07354848554207694,-0.09942778667887398
1539131505076300,0.9992217898832685,-0.07269398031586194,-0.11004806591897465
1539131505092281,0.9978789959563592,-0.06732280460822482,-0.12372014953841459
1539131505108262,0.9861600671396964,-0.05865568017090084,-0.12335393301289388
1539131505124242,0.9737087052719922,-0.05401693751430514,-0.1190814068818189
1539131505140223,0.9639429312581065,-0.04754711223010588,-0.10699626153963537
1539131505156204,0.9635767147325858,-0.053406576638437286,-0.09979400320439469
1539131505172185,0.9676050965133136,-0.06195162890058725,-0.09320210574502186
1539131505188165,0.9752956435492486,-0.0648813611047534,-0.0879530022125583
1539131505204146,0.98970016021973,-0.06524757763027411,-0.08746471351186402
1539131505220123,1.0055695429922942,-0.06805523765926624,-0.08746471351186402
1539131505236104,1.0144808117799649,-0.07415884641794479,-0.08685435263599617
1539131505252084,1.0141145952544441,-0.08355840390630975,-0.07415884641794479
1539131505268065,1.0088654917219806,-0.07879758907454049,-0.06939803158617552
1539131505284046,1.001907377737087,-0.07306019684138265,-0.06207370107576082
1539131505300027,0.9945830472266728,-0.07049668116273766,-0.05511558709086728
1539131505316007,0.9947051194018464,-0.06634622720683625,-0.05560387579156156
1539131505331988,0.9962920576791028,-0.06634622720683625,-0.0567025253681237
1539131505347969,0.9949492637521935,-0.06646829938200982,-0.058289463645380124
1539131505363949,0.9920195315480278,-0.07086289768825837,-0.06024261844815726
1539131505379930,0.9920195315480278,-0.07965209430075548,-0.06536964980544768
1539131505395911,0.9956816968032349,-0.08648813611047546,-0.06707866025787768
1539131505411892,1.0015411612115663,-0.09002822919050901,-0.06805523765926624
1539131505427872,1.0049591821164263,-0.08538948653391332,-0.07403677424277122
1539131505443853,1.0072785534447242,-0.08160524910353262,-0.07891966124971406
1539131505459834,1.0063019760433356,-0.0812390325780119,-0.08905165178912045
1539131505475814,0.9999542229343099,-0.07989623865110262,-0.09149309529259186
1539131505491795,0.9938506141756314,-0.07562371252002764,-0.08807507438773188
1539131505507776,0.9867704280155642,-0.06634622720683625,-0.08685435263599617
1539131505523757,0.9822537575341421,-0.06292820630197626,-0.0896620126649883
1539131505539703,0.9821316853589686,-0.0631723506523234,-0.08917372396429402
1539131505555684,0.9792019531548029,-0.06536964980544768,-0.08722056916151688
1539131505571664,0.9833524071107043,-0.07611200122072193,-0.08929579613946759
1539131505587645,0.9948271915770199,-0.0820935378042269,-0.08734264133669045
1539131505603626,0.9982452124818799,-0.07855344472419334,-0.07953002212558191
1539131505619607,0.9951934081025406,-0.07843137254901977,-0.07769893949797835
1539131505635587,0.9934843976501107,-0.08050659952697048,-0.08026245517662334
1539131505651568,0.9928740367742428,-0.08038452735179691,-0.08099488822766476
1539131505667549,0.9892118715190357,-0.07635614557106907,-0.0753795681696805
1539131505683529,0.9861600671396964,-0.07379262989242408,-0.07098496986343195
1539131505699510,0.985427634088655,-0.06927595941100195,-0.07037460898756409
1539131505715491,0.9846952010376135,-0.06768902113374553,-0.0657358663309684
1539131505731472,0.9799343862058443,-0.06366063935301769,-0.07013046463721695
1539131505747452,0.9744411383230336,-0.06378271152819126,-0.06964217593652267
1539131505763433,0.976882581826505,-0.06341649500267055,-0.07086289768825837
1539131505779414,0.9824979018844893,-0.0640268558785384,-0.07135118638895266
1539131505795395,0.9866483558403907,-0.0669565880827041,-0.0715953307392998
1539131505811375,0.985427634088655,-0.06842145418478696,-0.07440299076829193
1539131505827356,0.9878690775921264,-0.0724498359655148,-0.07904173342488763
1539131505843337,0.9931181811245899,-0.07342641336690336,-0.08099488822766476
1539131505859314,0.9923857480735485,-0.07000839246204338,-0.08307011520561547
1539131505875294,0.9900663767452507,-0.0724498359655148,-0.08734264133669045
1539131505891275,0.9877470054169528,-0.0736705577172505,-0.08783093003738474
1539131505907256,0.9856717784390021,-0.07122911421377909,-0.08551155870908689
1539131505923236,0.9912870984969864,-0.06939803158617552,-0.08599984740978117
1539131505939217,0.9982452124818799,-0.06659037155718339,-0.09088273441672401
1539131505955198,1.0005645838101778,-0.06451514457923269,-0.09246967269398043
1539131505971179,0.9995880064087892,-0.0657358663309684,-0.0896620126649883
1539131505987159,1.0012970168612192,-0.06903181506065481,-0.08477912565804546
1539131506003140,0.9983672846570535,-0.06817730983443981,-0.0800183108262762
1539131506019121,0.9916533150225071,-0.0631723506523234,-0.07891966124971406
1539131506035102,0.9833524071107043,-0.05767910276951227,-0.07635614557106907
1539131506051082,0.9787136644541086,-0.057190814068817986,-0.07415884641794479
1539131506067063,0.9766384374761579,-0.05633630884260299,-0.06939803158617552
1539131506083044,0.97773708705272,-0.06305027847714983,-0.07037460898756409
1539131506099024,0.98286411841001,-0.06439307240405912,-0.07061875333791123
1539131506115005,0.9835965514610514,-0.0657358663309684,-0.07147325856412623
1539131506130986,0.98457312886244,-0.0733043411917298,-0.07403677424277122
1539131506146967,0.9881132219424735,-0.07586785687037478,-0.07574578469520121
1539131506162947,0.9887235828183414,-0.07525749599450693,-0.07379262989242408
1539131506178924,0.9875028610666057,-0.07574578469520121,-0.07208361943999408
1539131506194905,0.9872587167162585,-0.07769893949797835,-0.07574578469520121
1539131506210886,0.9855497062638285,-0.07306019684138265,-0.08075074387731762
1539131506226866,0.9834744792858778,-0.07183947508964694,-0.0850232700083926
1539131506242847,0.9851834897383078,-0.07025253681239052,-0.08477912565804546
1539131506258828,0.9829861905851836,-0.06683451590753053,-0.08136110475318548
1539131506274809,0.9821316853589686,-0.0678110933089191,-0.0783093003738462
1539131506290789,0.9789578088044557,-0.06646829938200982,-0.0745250629434655
1539131506306770,0.9844510566872664,-0.06817730983443981,-0.07965209430075548
1539131506322751,0.9890897993438621,-0.06451514457923269,-0.0812390325780119
1539131506338731,0.9944609750514992,-0.06536964980544768,-0.0800183108262762
1539131506354712,0.9969024185549706,-0.0678110933089191,-0.0820935378042269
1539131506370693,0.9994659342336156,-0.07183947508964694,-0.07940794995040834
1539131506386674,0.9993438620584421,-0.06524757763027411,-0.07489127946898622
1539131506402654,0.9973907072556649,-0.06305027847714983,-0.07476920729381265
1539131506418635,0.9975127794308385,-0.06305027847714983,-0.07440299076829193
1539131506434616,1.0022735942626078,-0.06549172198062125,-0.07501335164415979
1539131506450596,1.0071564812695506,-0.06915388723582838,-0.07257190814068837
1539131506466577,1.0047150377660792,-0.07220569161516766,-0.06353856717784412
1539131506482558,1.004226749065385,-0.08343633173113618,-0.05804531929503298
1539131506498504,1.0069123369192035,-0.0879530022125583,-0.054383154039825854
1539131506514485,1.0005645838101778,-0.09674219882505541,-0.051941710536354435
1539131506530465,0.9975127794308385,-0.09771877622644398,-0.05999847409781012
1539131506546445,0.9918974593728542,-0.07562371252002764,-0.06036469062333083
1539131506562425,0.9810330357824064,-0.06524757763027411,-0.0575570305943387
1539131506578405,0.9732204165712979,-0.0657358663309684,-0.054505226214999425
1539131506594386,0.96919203479057,-0.07428091859311836,-0.05999847409781012
1539131506610366,0.9685816739147022,-0.07782101167315192,-0.06939803158617552
1539131506626346,0.9652857251850158,-0.07147325856412623,-0.0745250629434655
1539131506642326,0.9638208590829329,-0.05938811322194226,-0.07122911421377909
1539131506658307,0.96577401388571,-0.05096513313496587,-0.07086289768825837
1539131506674287,0.9688258182650493,-0.04986648355840373,-0.07464713511863907
1539131506690267,0.973464560921645,-0.053040360112916574,-0.08172732127870619
1539131506706247,0.9761501487754636,-0.057312886243991557,-0.08722056916151688
1539131506722228,0.9801785305561914,-0.06073090714885154,-0.08905165178912045
1539131506738208,0.9832303349355307,-0.057312886243991557,-0.08465705348287189
1539131506754188,0.9882352941176471,-0.054505226214999425,-0.07855344472419334
1539131506770168,0.9953154802777142,-0.058533607995727266,-0.07696650644693692
1539131506786149,1.0009308003356985,-0.06451514457923269,-0.08087281605249119
1539131506802129,1.0083772030212863,-0.06988632028686981,-0.08099488822766476
1539131506818084,1.0124055848020141,-0.07000839246204338,-0.06939803158617552
1539131506834065,1.0120393682764934,-0.06732280460822482,-0.05658045319295013
1539131506850045,1.0074006256198977,-0.0657358663309684,-0.045471885252155175
1539131506866025,1.004470893415732,-0.06646829938200982,-0.04498359655146089
1539131506882005,1.0059357595178149,-0.06805523765926624,-0.05035477225909801
1539131506897986,1.0056916151674677,-0.06707866025787768,-0.04864576180666802
1539131506913966,1.0003204394598306,-0.05951018539711583,-0.04388494697489875
1539131506929946,0.9923857480735485,-0.0575570305943387,-0.03741512169069949
1539131506945926,0.9875028610666057,-0.06256198977645555,-0.03997863736934448
1539131506961907,0.9866483558403907,-0.07110704203860552,-0.04827954528114731
1539131506977887,0.9860379949645228,-0.07635614557106907,-0.051941710536354435
1539131506993867,0.98628213931487,-0.07428091859311836,-0.053040360112916574
1539131507009847,0.9868925001907378,-0.06939803158617552,-0.053284504463263715
1539131507025828,0.9839627679865721,-0.07013046463721695,-0.05633630884260299
1539131507041808,0.9824979018844893,-0.07879758907454049,-0.06671244373235696
1539131507057788,0.9876249332417792,-0.08636606393530188,-0.07379262989242408
1539131507073768,0.9922636758983749,-0.08538948653391332,-0.07464713511863907
1539131507089748,0.9945830472266728,-0.07086289768825837,-0.06671244373235696
1539131507105729,0.9906767376211185,-0.05535973144121442,-0.06451514457923269
1539131507121709,0.9917753871976807,-0.05169756618600729,-0.07281605249103551
1539131507137664,0.9925078202487221,-0.055970092317082276,-0.0774547951476312
1539131507153645,0.9910429541466392,-0.06146334019989297,-0.07965209430075548
1539131507169625,0.9910429541466392,-0.059754329747462975,-0.06805523765926624
1539131507185605,0.9898222323949035,-0.05365072098878443,-0.05926604104676869
1539131507201585,0.9881132219424735,-0.05474937056534657,-0.055725947966735134
1539131507217566,0.9851834897383078,-0.06378271152819126,-0.06610208285648911
1539131507233546,0.9818875410086214,-0.06939803158617552,-0.06842145418478696
1539131507249526,0.9824979018844893,-0.07220569161516766,-0.06256198977645555
1539131507265506,0.9895780880445564,-0.0736705577172505,-0.05951018539711583
1539131507281487,0.9962920576791028,-0.07525749599450693,-0.05511558709086728
1539131507297467,0.9970244907301442,-0.08160524910353262,-0.054627298390172996
1539131507313447,1.0006866559853513,-0.08770885786221116,-0.05682459754329727
1539131507329427,1.0083772030212863,-0.08331425955596261,-0.056946669718470844
1539131507345408,1.0106965743495842,-0.0686655985351341,-0.05242999923704872
1539131507361388,1.0108186465247577,-0.05780117494468584,-0.052918287937743
1539131507377368,1.0052033264667735,-0.047913328755626594,-0.055848020141908705
1539131507393348,0.9969024185549706,-0.04571602960250232,-0.057190814068817986
1539131507409329,0.99140917067216,-0.044251163500419466,-0.05877775234607441
1539131507425309,0.9882352941176471,-0.045593957427328746,-0.0567025253681237
1539131507441289,0.9850614175631343,-0.04608224612802303,-0.05889982452124798
1539131507457275,0.9844510566872664,-0.04974441138323016,-0.056946669718470844
1539131507473255,0.9821316853589686,-0.06280613412680269,-0.062317845426107965
1539131507489236,0.9815213244831007,-0.07306019684138265,-0.06683451590753053
1539131507505216,0.9806668192568857,-0.07721065079728406,-0.06427100022888554
1539131507521196,0.9793240253299764,-0.07684443427176335,-0.061097123674372256
1539131507537176,0.98115510795758,-0.07757686732280478,-0.06732280460822482
1539131507553156,0.985427634088655,-0.0774547951476312,-0.0736705577172505
1539131507569137,0.9929961089494164,-0.07598992904554835,-0.0715953307392998
1539131507585117,0.9955596246280614,-0.06768902113374553,-0.06366063935301769
1539131507601097,0.9944609750514992,-0.05938811322194226,-0.06073090714885154
1539131507617077,0.9904325932707714,-0.05413900968947871,-0.05865568017090084
1539131507633058,0.9864042114900435,-0.050720988784618726,-0.0640268558785384
1539131507649038,0.9840848401617457,-0.04840161745632088,-0.06378271152819126
1539131507665018,0.9870145723659114,-0.04962233920805659,-0.058533607995727266
1539131507680998,0.9879911497673,-0.05499351491569371,-0.053040360112916574
1539131507696979,0.9886015106431678,-0.06195162890058725,-0.05511558709086728
1539131507712959,0.9864042114900435,-0.06500343327992697,-0.05621423666742942
1539131507728939,0.9813992523079271,-0.0657358663309684,-0.058411535820553695
1539131507744919,0.9782253757534143,-0.06707866025787768,-0.060852979324025114
1539131507760900,0.975173571374075,-0.06341649500267055,-0.061097123674372256
1539131507776886,0.9759060044251164,-0.06353856717784412,-0.058289463645380124
1539131507792866,0.9795681696803236,-0.06610208285648911,-0.058289463645380124
1539131507808846,0.9861600671396964,-0.06475928892957983,-0.05938811322194226
1539131507824826,0.9877470054169528,-0.06060883497367797,-0.06121919584954583
1539131507840807,0.98628213931487,-0.059876401922636546,-0.0604867627985044
1539131507856787,0.9851834897383078,-0.06195162890058725,-0.06451514457923269
1539131507872767,0.9835965514610514,-0.062317845426107965,-0.060975051499198685
1539131507888747,0.9877470054169528,-0.0631723506523234,-0.06036469062333083
1539131507904728,0.9892118715190357,-0.06305027847714983,-0.06073090714885154
1539131507920708,0.9860379949645228,-0.06353856717784412,-0.06170748455024011
1539131507936688,0.9906767376211185,-0.06512550545510054,-0.05877775234607441
1539131507952668,1.0052033264667735,-0.06439307240405912,-0.06060883497367797
1539131507968649,1.0135042343785763,-0.057068741893644415,-0.06182955672541368
1539131507984629,1.0149691004806591,-0.05816739147020655,-0.0724498359655148
1539131508000609,1.0166781109330891,-0.06671244373235696,-0.07598992904554835
1539131508016589,1.0142366674296177,-0.06842145418478696,-0.06976424811169624
1539131508032570,1.0125276569771877,-0.062317845426107965,-0.06292820630197626
1539131508048550,1.0128938735027084,-0.05389486533913157,-0.06512550545510054
1539131508064530,1.0114290074006256,-0.048157473105973736,-0.0736705577172505
1539131508080510,1.005325398641947,-0.047913328755626594,-0.07806515602349906
1539131508096466,0.9976348516060121,-0.05242999923704872,-0.07501335164415979
1539131508112446,0.9870145723659114,-0.053040360112916574,-0.06610208285648911
1539131508128426,0.9754177157244222,-0.05609216449225585,-0.05658045319295013
1539131508144406,0.9662623025864043,-0.056946669718470844,-0.05413900968947871
1539131508160387,0.96919203479057,-0.06475928892957983,-0.06536964980544768
1539131508176367,0.9705348287174793,-0.07318226901655622,-0.07025253681239052
1539131508192347,0.970901045243,-0.08282597085526833,-0.0686655985351341
1539131508208327,0.9727321278706036,-0.09076066224155044,-0.05658045319295013
1539131508224308,0.9792019531548029,-0.1010147249561304,-0.053772793163958
1539131508240288,0.9822537575341421,-0.10382238498512253,-0.06805523765926624
1539131508256268,0.9893339436942092,-0.1010147249561304,-0.0774547951476312
1539131508272248,0.9911650263218128,-0.08978408484016187,-0.07440299076829193
1539131508288229,0.9859159227893493,-0.07660028992141621,-0.062195773250934394
1539131508304209,0.9840848401617457,-0.06707866025787768,-0.05474937056534657
1539131508320189,0.978591592278935,-0.06646829938200982,-0.056946669718470844
1539131508336169,0.9818875410086214,-0.06805523765926624,-0.06390478370336483
1539131508352150,0.9870145723659114,-0.06646829938200982,-0.06744487678339839
1539131508368130,0.990554665445945,-0.06207370107576082,-0.0640268558785384
1539131508384110,0.9893339436942092,-0.05780117494468584,-0.058533607995727266
1539131508400090,0.9933623254749371,-0.06720073243305125,-0.06024261844815726
1539131508416076,0.9988555733577478,-0.07818722819867263,-0.06805523765926624
1539131508432057,1.0011749446860456,-0.08099488822766476,-0.0686655985351341
1539131508448037,1.0012970168612192,-0.07660028992141621,-0.06536964980544768
1539131508464017,1.002517738612955,-0.06622415503166268,-0.06292820630197626
1539131508479997,1.0038605325398642,-0.056946669718470844,-0.06646829938200982
1539131508495978,1.005325398641947,-0.05780117494468584,-0.07232776379034123
1539131508511958,0.9999542229343099,-0.059632257572289404,-0.07147325856412623
1539131508527938,0.9984893568322271,-0.06146334019989297,-0.07183947508964694
1539131508543918,0.9964141298542764,-0.05767910276951227,-0.06256198977645555
1539131508559898,0.9927519645990692,-0.05780117494468584,-0.0613412680247194
1539131508575879,0.9906767376211185,-0.06268406195162912,-0.06536964980544768
1539131508591859,0.9937285420004578,-0.07013046463721695,-0.06890974288548124
1539131508607839,0.9953154802777142,-0.07501335164415979,-0.06976424811169624
1539131508623819,0.988845654993515,-0.07257190814068837,-0.0648813611047534
1539131508639800,0.9829861905851836,-0.07476920729381265,-0.05792324711985941
1539131508655780,0.9793240253299764,-0.08197146562905333,-0.061097123674372256
1539131508671760,0.9792019531548029,-0.08636606393530188,-0.06353856717784412
1539131508687740,0.9788357366292821,-0.0858777752346076,-0.062195773250934394
1539131508703721,0.9762722209506371,-0.07855344472419334,-0.0613412680247194
1539131508719701,0.9718776226443886,-0.07684443427176335,-0.06341649500267055
1539131508735656,0.9744411383230336,-0.07806515602349906,-0.05938811322194226
1539131508751637,0.9767605096513314,-0.07672236209658978,-0.053772793163958
1539131508767617,0.9822537575341421,-0.07440299076829193,-0.04827954528114731
1539131508783597,0.9861600671396964,-0.06659037155718339,-0.04644846265354374
1539131508799577,0.9866483558403907,-0.06268406195162912,-0.0470588235294116
1539131508815558,0.9860379949645228,-0.06170748455024011,-0.05218585488670158
1539131508831538,0.9856717784390021,-0.06744487678339839,-0.051941710536354435
1539131508847518,0.9889677271686885,-0.07550164034485407,-0.04901197833218873
1539131508863498,0.9961699855039292,-0.0812390325780119,-0.046692607003890885
1539131508879479,1.0000762951094835,-0.08343633173113618,-0.04876783398184159
1539131508895459,1.0056916151674677,-0.08612191958495474,-0.06390478370336483
1539131508911439,1.0092317082475013,-0.08746471351186402,-0.07794308384832549
1539131508927419,1.0021515220874342,-0.09405661097123685,-0.08612191958495474
1539131508943400,1.0000762951094835,-0.10113679713130397,-0.08465705348287189
1539131508959380,1.0028839551384756,-0.094300755321584,-0.07843137254901977
1539131508975360,1.002517738612955,-0.07293812466620908,-0.07464713511863907
1539131508991340,0.9976348516060121,-0.053284504463263715,-0.07965209430075548
1539131509007321,0.9875028610666057,-0.040100709544518054,-0.08648813611047546
1539131509023301,0.9813992523079271,-0.037659266041046635,-0.08343633173113618
1539131509039281,0.9756618600747693,-0.04364080262455161,-0.07025253681239052
1539131509055267,0.975173571374075,-0.04852368963149445,-0.0604867627985044
1539131509071247,0.9750514991989014,-0.04522774090180803,-0.051941710536354435
1539131509087227,0.9746852826733807,-0.049378194857709445,-0.0508430609597923
1539131509103208,0.9750514991989014,-0.05914396887159512,-0.05523765926604085
1539131509119188,0.9771267261768521,-0.07257190814068837,-0.057068741893644415
1539131509135168,0.9844510566872664,-0.08551155870908689,-0.050720988784618726
1539131509151148,0.9881132219424735,-0.09759670405127041,-0.046570534828717314
1539131509167129,0.9917753871976807,-0.10321202410925467,-0.04437323567559304
1539131509183109,0.9959258411535821,-0.10492103456168467,-0.05023270008392444
1539131509199089,0.9937285420004578,-0.09820706492713827,-0.05035477225909801
1539131509215069,0.9938506141756314,-0.09295796139467472,-0.053162432288090145
1539131509231050,0.9906767376211185,-0.09063859006637687,-0.05621423666742942
1539131509247030,0.9851834897383078,-0.09088273441672401,-0.05816739147020655
1539131509263010,0.9861600671396964,-0.08807507438773188,-0.05816739147020655
1539131509278990,0.9922636758983749,-0.08441290913252475,-0.057190814068817986
1539131509294971,0.9936064698252842,-0.07879758907454049,-0.05682459754329727
1539131509310951,0.9895780880445564,-0.07293812466620908,-0.057312886243991557
1539131509326931,0.98286411841001,-0.07391470206759765,-0.06024261844815726
1539131509342911,0.9772487983520257,-0.07306019684138265,-0.06207370107576082
1539131509358892,0.9790798809796293,-0.07110704203860552,-0.06182955672541368
1539131509374878,0.987136644541085,-0.07098496986343195,-0.06549172198062125
1539131509390858,0.9920195315480278,-0.0686655985351341,-0.062195773250934394
1539131509406838,0.9915312428473335,-0.06842145418478696,-0.055725947966735134
1539131509422818,0.9855497062638285,-0.06659037155718339,-0.048157473105973736
1539131509438799,0.9784695201037614,-0.06585793850614197,-0.049500267032883016
1539131509454779,0.9787136644541086,-0.06414892805371197,-0.05255207141222229
1539131509470759,0.9793240253299764,-0.059754329747462975,-0.04693675135423803
1539131509486739,0.9809109636072328,-0.059876401922636546,-0.034851606012054503
1539131509502720,0.9850614175631343,-0.07037460898756409,-0.029602502479590953
1539131509518700,0.9972686350804914,-0.07684443427176335,-0.030945296406500233
1539131509534680,1.0039826047150378,-0.07769893949797835,-0.038757915617608774
1539131509550660,1.0098420691233692,-0.07782101167315192,-0.042786297398336615
1539131509566640,1.0148470283054856,-0.0783093003738462,-0.03692683299000521
1539131509582621,1.0171663996337834,-0.08172732127870619,-0.035095750362401645
1539131509598601,1.022659647516594,-0.08538948653391332,-0.033875028610665936
1539131509614581,1.0182650492103456,-0.07721065079728406,-0.03924620431830306
1539131509630561,1.0139925230792706,-0.06976424811169624,-0.04754711223010588
1539131509646542,1.0093537804226749,-0.06744487678339839,-0.05413900968947871
1539131509662522,1.0041046768902113,-0.07171740291447337,-0.05023270008392444
1539131509678502,1.0012970168612192,-0.07647821774624264,-0.044251163500419466
1539131509694458,0.9988555733577478,-0.08038452735179691,-0.04693675135423803
1539131509710438,0.9989776455329213,-0.08551155870908689,-0.05426108186465228
1539131509726418,1.0009308003356985,-0.08477912565804546,-0.0604867627985044
1539131509742398,1.00166323338674,-0.08722056916151688,-0.061097123674372256
1539131509758379,1.0045929655909056,-0.08148317692835905,-0.053406576638437286
1539131509774359,0.9998321507591363,-0.07318226901655622,-0.051941710536354435
1539131509790339,0.9931181811245899,-0.07122911421377909,-0.054627298390172996
1539131509806319,0.9839627679865721,-0.06842145418478696,-0.053772793163958
1539131509822300,0.9745632104982072,-0.06207370107576082,-0.039124132143129486
1539131509838280,0.9654077973601893,-0.062439917601281536,-0.019104295414663852
1539131509854260,0.9641870756084536,-0.05352864881361086,-0.023254749370565264
1539131509870240,0.9590600442511636,-0.06512550545510054,-0.029968719005111666
1539131509886221,0.9641870756084536,-0.07818722819867263,-0.035217822537575216
1539131509902201,0.9715114061188679,-0.08783093003738474,-0.031311512932020946
1539131509918181,0.9776150148775464,-0.092591744869154,-0.019714656290531707
1539131509934161,0.9787136644541086,-0.09112687876707115,-0.019104295414663852
1539131509950142,0.9859159227893493,-0.08575570305943403,-0.03326466773479808
1539131509966122,0.9928740367742428,-0.0820935378042269,-0.036316472114137355
1539131509982102,0.9994659342336156,-0.07989623865110262,-0.03802548256656735
1539131509998082,1.0026398107881285,-0.07660028992141621,-0.033875028610665936
1539131510014068,1.0066681925688563,-0.0736705577172505,-0.03350881208514522
1539131510030048,1.0125276569771877,-0.06585793850614197,-0.03961242084382377
1539131510046029,1.0177767605096513,-0.06121919584954583,-0.04315251392385733
1539131510062009,1.0200961318379491,-0.05413900968947871,-0.04852368963149445
1539131510077989,1.0174105439841306,-0.049500267032883016,-0.04351873044937804
1539131510093969,1.0158236057068741,-0.04974441138323016,-0.04095521477073305
1539131510109950,1.0117952239261463,-0.04876783398184159,-0.04461738002594018
1539131510125930,1.0083772030212863,-0.055848020141908705,-0.04498359655146089
1539131510141910,1.0045929655909056,-0.05633630884260299,-0.041443503471427334
1539131510157890,1.0012970168612192,-0.04754711223010588,-0.03936827649347663
1539131510173871,0.9989776455329213,-0.04498359655146089,-0.03985656519417091
1539131510189851,0.9920195315480278,-0.042786297398336615,-0.03741512169069949
1539131510205831,0.9827420462348364,-0.04901197833218873,-0.03961242084382377
1539131510221811,0.9784695201037614,-0.05267414358739586,-0.04095521477073305
1539131510237792,0.9749294270237279,-0.058533607995727266,-0.036438544289310926
1539131510253772,0.9728542000457772,-0.06646829938200982,-0.030090791180285237
1539131510269752,0.9696803234912643,-0.07806515602349906,-0.021667811093308842
1539131510285732,0.968337529564355,-0.08575570305943403,-0.017883573662928143
1539131510301713,0.9705348287174793,-0.09161516746776543,-0.020447089341573133
1539131510317693,0.976882581826505,-0.09210345616845972,-0.028503852903028815
1539131510333648,0.9839627679865721,-0.0896620126649883,-0.03802548256656735
1539131510349629,0.9890897993438621,-0.08709849698634331,-0.03961242084382377
1539131510365609,0.9932402532997635,-0.08258182650492119,-0.03802548256656735
1539131510381589,0.9977569237811856,-0.07843137254901977,-0.03729304951552592
1539131510397569,0.9995880064087892,-0.06829938200961339,-0.03411917296101308
1539131510413550,0.9997100785839628,-0.055970092317082276,-0.034973678187228074
1539131510429530,1.0034943160143435,-0.04388494697489875,-0.037659266041046635
1539131510445510,1.0052033264667735,-0.03717097734035235,-0.041687647821774476
1539131510461490,1.010452429999237,-0.037781338216220206,-0.03924620431830306
1539131510477470,1.0133821622034027,-0.036438544289310926,-0.0394903486686502
1539131510493451,1.0136263065537499,-0.04388494697489875,-0.04608224612802303
1539131510509431,1.0146028839551384,-0.04522774090180803,-0.045593957427328746
1539131510525411,1.0091096360723277,-0.04339665827420447,-0.049500267032883016
1539131510541391,1.0015411612115663,-0.04351873044937804,-0.04876783398184159
1539131510557372,0.9983672846570535,-0.04254215304798947,-0.054505226214999425
1539131510573352,0.9894560158693828,-0.04058899824521234,-0.05413900968947871
1539131510589332,0.9860379949645228,-0.04437323567559304,-0.05535973144121442
1539131510605312,0.9884794384679942,-0.050720988784618726,-0.05365072098878443
1539131510621293,0.9878690775921264,-0.04986648355840373,-0.04827954528114731
1539131510637273,0.9878690775921264,-0.049378194857709445,-0.04632639047837017
1539131510653259,0.9872587167162585,-0.05267414358739586,-0.04473945220111375
1539131510669239,0.9818875410086214,-0.05560387579156156,-0.04180971999694805
1539131510685219,0.9790798809796293,-0.0575570305943387,-0.04254215304798947
1539131510701200,0.9784695201037614,-0.05938811322194226,-0.03936827649347663
1539131510717180,0.9829861905851836,-0.060852979324025114,-0.03680476081483164
1539131510733160,0.9859159227893493,-0.05926604104676869,-0.03472953383688093
1539131510749140,0.9865262836652171,-0.059632257572289404,-0.036438544289310926
1539131510765121,0.985427634088655,-0.0567025253681237,-0.03814755474174092
1539131510781101,0.985427634088655,-0.054505226214999425,-0.039002059967955915
1539131510797081,0.9815213244831007,-0.05389486533913157,-0.03070115205615309
1539131510813061,0.98286411841001,-0.05535973144121442,-0.0319218738078888
1539131510829042,0.9838406958113985,-0.0567025253681237,-0.040100709544518054
1539131510845022,0.9782253757534143,-0.053772793163958,-0.040222781719691625
1539131510861002,0.9788357366292821,-0.05413900968947871,-0.03448538948653379
1539131510876982,0.9799343862058443,-0.0508430609597923,-0.03216601815823594
1539131510892963,0.9827420462348364,-0.04718089570458517,-0.03448538948653379
1539131510908943,0.9839627679865721,-0.04608224612802303,-0.038757915617608774
1539131510924923,0.9893339436942092,-0.05145342183566015,-0.046692607003890885
1539131510940903,0.9954375524528878,-0.05426108186465228,-0.05023270008392444
1539131510956884,0.9960479133287556,-0.053284504463263715,-0.041565575646600905
1539131510972869,0.9966582742046235,-0.051941710536354435,-0.03595025558861664
1539131510988850,0.9966582742046235,-0.05145342183566015,-0.04205386434729519
1539131511004830,0.9984893568322271,-0.04974441138323016,-0.0470588235294116
1539131511020810,0.9981231403067063,-0.04779125658045302,-0.05267414358739586
1539131511036790,1.0014190890363928,-0.048157473105973736,-0.051941710536354435
1539131511052771,1.0021515220874342,-0.042786297398336615,-0.04254215304798947
1539131511068751,1.0056916151674677,-0.04376287479972518,-0.040222781719691625
1539131511084731,1.0074006256198977,-0.042908369573510186,-0.04522774090180803
1539131511100711,1.0083772030212863,-0.04229800869764233,-0.04693675135423803
1539131511116692,1.005325398641947,-0.03924620431830306,-0.046692607003890885
1539131511132672,0.9993438620584421,-0.03790341039139378,-0.04364080262455161
1539131511148652,0.9927519645990692,-0.038757915617608774,-0.04071107042038591
1539131511164632,0.9929961089494164,-0.042786297398336615,-0.03692683299000521
1539131511180613,0.9910429541466392,-0.04693675135423803,-0.034851606012054503
1539131511196593,0.9846952010376135,-0.04901197833218873,-0.037659266041046635
1539131511212573,0.9843289845120928,-0.05267414358739586,-0.04180971999694805
1539131511228553,0.985427634088655,-0.053284504463263715,-0.03961242084382377
1539131511244534,0.9859159227893493,-0.052918287937743,-0.03314259555962451
1539131511260514,0.9879911497673,-0.055848020141908705,-0.03143358510719452
1539131511276494,0.9866483558403907,-0.05535973144121442,-0.03302052338445094
1539131511292450,0.9870145723659114,-0.05255207141222229,-0.04205386434729519
1539131511308430,0.9907988097962921,-0.05145342183566015,-0.0432745860990309
1539131511324410,0.9916533150225071,-0.054505226214999425,-0.044251163500419466
1539131511340390,0.9906767376211185,-0.06158541237506654,-0.041443503471427334
1539131511356371,0.9933623254749371,-0.06622415503166268,-0.043030441748683756
1539131511372351,0.9954375524528878,-0.06182955672541368,-0.044251163500419466
1539131511388331,0.9945830472266728,-0.04974441138323016,-0.049134050507362304
1539131511404311,0.9893339436942092,-0.041443503471427334,-0.05133134966048658
1539131511420292,0.9855497062638285,-0.03936827649347663,-0.05035477225909801
1539131511436272,0.9876249332417792,-0.04193179217212162,-0.05096513313496587
1539131511452252,0.9933623254749371,-0.0394903486686502,-0.04449530785076661
1539131511468232,1.00166323338674,-0.03314259555962451,-0.03936827649347663
1539131511484213,1.007888914320592,-0.03302052338445094,-0.04766918440527945
1539131511500193,1.0099641412985427,-0.03314259555962451,-0.04779125658045302
1539131511516173,1.0114290074006256,-0.03668268863965807,-0.04095521477073305
1539131511532153,1.0136263065537499,-0.0386358434424352,-0.03607232776379021
1539131511548133,1.0127718013275349,-0.03595025558861664,-0.0424200808728159
1539131511564114,1.0081330586709392,-0.03936827649347663,-0.04840161745632088
1539131511580094,1.004470893415732,-0.04058899824521234,-0.04730296787975874
1539131511596074,1.00166323338674,-0.04083314259555948,-0.03558403906309593
1539131511612060,0.9951934081025406,-0.044007019150072324,-0.03167772945754166
1539131511628040,0.9911650263218128,-0.04461738002594018,-0.03936827649347663
1539131511644021,0.9895780880445564,-0.046814679179064456,-0.0470588235294116
1539131511660001,0.9821316853589686,-0.0424200808728159,-0.0432745860990309
1539131511675981,0.9745632104982072,-0.04571602960250232,-0.03692683299000521
1539131511691961,0.9701686121919586,-0.04840161745632088,-0.03350881208514522
1539131511707942,0.9699244678416115,-0.05560387579156156,-0.036438544289310926
1539131511723922,0.9707789730678265,-0.06158541237506654,-0.04083314259555948
1539131511739902,0.9750514991989014,-0.06292820630197626,-0.045349813076981604
1539131511755882,0.9746852826733807,-0.055725947966735134,-0.04376287479972518
1539131511771863,0.976882581826505,-0.0508430609597923,-0.0386358434424352
1539131511787843,0.9815213244831007,-0.05401693751430514,-0.04071107042038591
1539131511803823,0.9884794384679942,-0.052918287937743,-0.050476844434271584
1539131511819803,0.98970016021973,-0.050598916609445155,-0.05792324711985941
1539131511835784,0.9870145723659114,-0.04498359655146089,-0.05389486533913157
1539131511851764,0.9870145723659114,-0.039002059967955915,-0.04522774090180803
1539131511867744,0.988845654993515,-0.03350881208514522,-0.039124132143129486
1539131511883724,0.9958037689784085,-0.02911421377889667,-0.04083314259555948
1539131511899705,0.9947051194018464,-0.037781338216220206,-0.04083314259555948
1539131511915685,1.0052033264667735,-0.03814755474174092,-0.061097123674372256
1539131511931640,1.0210727092393377,-0.028137636377508102,-0.049378194857709445
1539131511947620,1.027786678873884,-0.015808346684977437,-0.04742504005493231
1539131511963600,1.018142977035172,-0.0357061112382695,-0.04473945220111375
1539131511979580,1.0119172961013199,-0.044129091325245895,-0.05218585488670158
1539131511995559,1.00337224383917,-0.05230792706187515,-0.05157549401083372
1539131512011539,0.9967803463797971,-0.0470588235294116,-0.05169756618600729
1539131512027519,0.9959258411535821,-0.03595025558861664,-0.0508430609597923
1539131512043499,0.9965362020294499,-0.024719615472648115,-0.05108720531013944
1539131512059478,0.9886015106431678,-0.03607232776379021,-0.05096513313496587
1539131512075458,0.9778591592278936,-0.050598916609445155,-0.053040360112916574
1539131512091438,0.9853055619134814,-0.04437323567559304,-0.052918287937743
1539131512107418,0.985427634088655,-0.03790341039139378,-0.046692607003890885
1539131512123397,0.9831082627603571,-0.03814755474174092,-0.04132143129625376
1539131512139377,0.9849393453879607,-0.03399710078583951,-0.04254215304798947
1539131512155357,0.9773708705271993,-0.04315251392385733,-0.048035400930800165
1539131512171337,0.9756618600747693,-0.05816739147020655,-0.04840161745632088
1539131512187317,0.9806668192568857,-0.06585793850614197,-0.04351873044937804
1539131512203296,0.9827420462348364,-0.06939803158617552,-0.03607232776379021
1539131512219276,0.9855497062638285,-0.061097123674372256,-0.03595025558861664
1539131512235256,0.9901884489204242,-0.06305027847714983,-0.042786297398336615
1539131512251251,0.9997100785839628,-0.05426108186465228,-0.042664225223163044
1539131512267231,1.0011749446860456,-0.04339665827420447,-0.04119935912108019
1539131512283211,0.9976348516060121,-0.033752956435492365,-0.0394903486686502
1539131512299192,0.9942168307011521,-0.02777141985198739,-0.04071107042038591
1539131512315172,0.9938506141756314,-0.022034027618829555,-0.03997863736934448
1539131512331152,0.9942168307011521,-0.019714656290531707,-0.04180971999694805
1539131512347132,0.9911650263218128,-0.02410925459678026,-0.04473945220111375
1539131512363113,0.9927519645990692,-0.03265430685893023,-0.04840161745632088
1539131512379093,0.9926298924238957,-0.03973449301899734,-0.04693675135423803
1539131512395073,0.9950713359273671,-0.049500267032883016,-0.0462043183031966
1539131512411053,0.9948271915770199,-0.05401693751430514,-0.0508430609597923
1539131512427034,0.9932402532997635,-0.05658045319295013,-0.05499351491569371
1539131512443014,0.9944609750514992,-0.05548180361638799,-0.052918287937743
1539131512458994,0.9965362020294499,-0.052918287937743,-0.05096513313496587
1539131512474974,0.9978789959563592,-0.053772793163958,-0.0499885557335773
1539131512490955,1.0009308003356985,-0.04779125658045302,-0.0508430609597923
1539131512506935,1.0065461203936827,-0.039002059967955915,-0.04693675135423803
1539131512522915,1.0080109864957656,-0.03424124513618665,-0.04901197833218873
1539131512538895,1.0119172961013199,-0.038879987792782345,-0.0575570305943387
1539131512554875,1.011306935225452,-0.04083314259555948,-0.05242999923704872
1539131512570861,1.0049591821164263,-0.039124132143129486,-0.049134050507362304
1539131512586842,0.9940947585259785,-0.03802548256656735,-0.046570534828717314
1539131512602822,0.98457312886244,-0.041565575646600905,-0.049256122682535874
1539131512618802,0.9796902418554971,-0.045593957427328746,-0.044007019150072324
1539131512634782,0.9810330357824064,-0.04632639047837017,-0.04046692607003877
1539131512650763,0.9875028610666057,-0.04486152437628732,-0.04083314259555948
1539131512666743,0.9925078202487221,-0.03582818341344307,-0.040222781719691625
1539131512682723,0.9915312428473335,-0.033875028610665936,-0.037537193865873064
1539131512698703,0.9890897993438621,-0.038879987792782345,-0.0424200808728159
1539131512714684,0.9859159227893493,-0.04473945220111375,-0.04217593652246876
1539131512730664,0.9843289845120928,-0.04888990615701516,-0.03924620431830306
1539131512746644,0.9859159227893493,-0.049378194857709445,-0.03741512169069949
1539131512762624,0.9933623254749371,-0.05474937056534657,-0.04083314259555948
1539131512778605,1.0021515220874342,-0.05938811322194226,-0.04742504005493231
1539131512794585,0.9997100785839628,-0.06121919584954583,-0.05023270008392444
1539131512810565,0.9947051194018464,-0.060975051499198685,-0.04840161745632088
1539131512826545,0.9962920576791028,-0.05926604104676869,-0.04473945220111375
1539131512842526,1.0021515220874342,-0.051941710536354435,-0.045593957427328746
1539131512858506,1.0030060273136492,-0.04071107042038591,-0.051819638361180864
1539131512874486,0.9995880064087892,-0.03167772945754166,-0.05865568017090084
1539131512890442,0.9895780880445564,-0.024963759822995257,-0.056946669718470844
1539131512906421,0.9792019531548029,-0.02288853284504455,-0.05157549401083372
1539131512922401,0.9787136644541086,-0.026306553749904538,-0.04864576180666802
1539131512938381,0.9832303349355307,-0.02801556420233453,-0.05157549401083372
1539131512954361,1.0003204394598306,-0.0214236667429617,-0.053284504463263715
1539131512970340,0.9997100785839628,-0.030823224231326662,-0.05401693751430514
1539131512986320,1.0041046768902113,-0.037781338216220206,-0.04974441138323016
1539131513002300,1.0060578316929885,-0.04364080262455161,-0.0499885557335773
1539131513018280,1.0043488212405585,-0.0499885557335773,-0.0508430609597923
1539131513034259,1.0028839551384756,-0.055725947966735134,-0.047913328755626594
1539131513050239,0.9995880064087892,-0.05792324711985941,-0.05120927748531301
1539131513066219,1.0065461203936827,-0.055848020141908705,-0.054383154039825854
1539131513082199,1.0082551308461127,-0.05352864881361086,-0.05487144274052014
1539131513098178,1.006179903868162,-0.04608224612802303,-0.05035477225909801
1539131513114158,0.9961699855039292,-0.036316472114137355,-0.04522774090180803
1539131513130138,0.9906767376211185,-0.03338673990997165,-0.041565575646600905
1539131513146118,0.99140917067216,-0.030945296406500233,-0.044007019150072324
1539131513162098,0.9951934081025406,-0.0289921416037231,-0.04107728694590662
1539131513178077,0.9990997177080949,-0.027527275501640247,-0.04132143129625376
1539131513194057,0.9951934081025406,-0.035095750362401645,-0.0432745860990309
1539131513210052,0.9909208819714657,-0.039124132143129486,-0.039124132143129486
1539131513226032,0.9921416037232014,-0.046814679179064456,-0.0424200808728159
1539131513242013,0.9943389028763256,-0.05560387579156156,-0.04827954528114731
1539131513257993,0.9921416037232014,-0.057312886243991557,-0.05487144274052014
1539131513273973,0.9900663767452507,-0.05474937056534657,-0.052063782711528006
1539131513289953,0.98628213931487,-0.049256122682535874,-0.04840161745632088
1539131513305934,0.98115510795758,-0.04766918440527945,-0.052063782711528006
1539131513321914,0.9832303349355307,-0.04229800869764233,-0.05938811322194226
1539131513337894,0.9850614175631343,-0.03717097734035235,-0.0631723506523234
1539131513353874,0.9866483558403907,-0.03399710078583951,-0.06341649500267055
1539131513369855,0.9796902418554971,-0.03595025558861664,-0.06622415503166268
1539131513385835,0.9789578088044557,-0.041443503471427334,-0.06305027847714983
1539131513401815,0.9818875410086214,-0.044251163500419466,-0.0575570305943387
1539131513417795,0.9875028610666057,-0.04449530785076661,-0.05645838101777656
1539131513433776,0.9931181811245899,-0.041687647821774476,-0.061097123674372256
1539131513449756,1.0011749446860456,-0.0357061112382695,-0.06366063935301769
1539131513465736,1.0020294499122606,-0.030090791180285237,-0.060852979324025114
1539131513481716,0.9978789959563592,-0.031189440756847375,-0.05682459754329727
1539131513497697,0.9982452124818799,-0.03533989471274879,-0.057068741893644415
1539131513513677,0.9982452124818799,-0.03424124513618665,-0.054383154039825854
1539131513529632,0.9990997177080949,-0.031067368581673804,-0.05218585488670158
1539131513545612,1.000808728160525,-0.028137636377508102,-0.05035477225909801
1539131513561592,1.004226749065385,-0.033630884260318794,-0.05865568017090084
1539131513577571,1.007034409094377,-0.03546196688792236,-0.06036469062333083
1539131513593551,-0.7216296635385673,0.971755550469215,0.7676508735790035
1539131513609531,1.9980163271534295,-0.8831311512932021,-0.6568093385214007
1539131513625511,1.1958800640878922,0.1360494392309457,-0.1220111390859846
1539131513641491,1.106034943160143,0.351628900587472,-0.1906157015335319
1539131513657470,1.0626993209735254,0.20856031128404684,-0.2095368886854354
1539131513673450,1.022659647516594,0.07293812466620864,-0.21307698176546896
1539131513689430,1.0362096589608605,-0.04974441138323016,-0.166567483024338
1539131513705410,1.032059205004959,-0.1426413366903181,-0.11956969558251318
1539131513721389,1.0065461203936827,-0.17267109178301654,-0.062439917601281536
1539131513737369,0.97431906614786,-0.15802243076218803,0.0022583352407110624
1539131513753349,0.9582055390249486,-0.10675211718928823,0.02545204852368954
1539131513769329,0.9643091477836272,-0.0386358434424352,0.018249790188448856
1539131513785308,0.9762722209506371,-0.011291676203555312,0.00982681010147246
1539131513801288,0.9846952010376135,-0.02398718242160669,0.020813305867093845
1539131513817268,0.9834744792858778,-0.03582818341344307,0.03826962691691449
1539131513833248,0.9735866330968186,-0.05499351491569371,0.040100709544518054
1539131513849243,0.9651636530098422,-0.07611200122072193,0.041565575646600905
1539131513865223,0.9687037460898758,-0.07110704203860552,0.04193179217212162
1539131513881202,0.9645532921339743,-0.055970092317082276,0.041443503471427334
1539131513897182,0.9645532921339743,-0.04071107042038591,0.03314259555962451
1539131513913162,0.9663843747615779,-0.02642862592507811,0.024841687647821686
1539131513929142,0.9680933852140079,-0.023376821545738835,0.005310139620050336
1539131513945121,0.9724879835202564,-0.0289921416037231,-0.016540779736018862
1539131513961101,0.97944609750515,-0.03411917296101308,-0.039124132143129486
1539131513977081,0.9894560158693828,-0.039124132143129486,-0.055725947966735134
1539131513993061,0.9942168307011521,-0.04095521477073305,-0.07037460898756409
1539131514009040,0.9948271915770199,-0.04193179217212162,-0.08563363088426046
1539131514025020,0.9980010681315328,-0.04193179217212162,-0.09600976577401399
1539131514041000,1.0064240482185092,-0.03668268863965807,-0.11053635461966893
1539131514056980,1.0137483787289234,-0.026916914625772392,-0.12091248950942246
1539131514072960,1.013870450904097,-0.019348439765010994,-0.1299458304722667
1539131514088939,1.0150911726558327,-0.006897077897306758,-0.13702601663233382
1539131514104919,1.0127718013275349,0.012634470130464592,-0.13739223315785454
1539131514120899,1.0125276569771877,0.023132677195391693,-0.13531700617990383
1539131514136879,1.0122835126268406,0.03155565728236809,-0.13141069657434956
1539131514152858,1.0100862134737163,0.036194399938963784,-0.12420843823910888
1539131514168853,1.0065461203936827,0.03924620431830306,-0.11371023117418178
1539131514184833,1.0055695429922942,0.036316472114137355,-0.09857328145265898
1539131514200813,1.0092317082475013,0.0327763790341038,-0.08856336308842616
1539131514216793,1.012161440451667,0.02679484245059882,-0.08538948653391332
1539131514232772,1.0150911726558327,0.014099336232547444,-0.07122911421377909
1539131514248752,1.0165560387579156,-0.0036011291676203427,-0.05352864881361086
1539131514264732,1.0141145952544441,-0.022278171969176697,-0.036316472114137355
1539131514280712,1.0116731517509727,-0.040100709544518054,-0.025696192874036683
1539131514296692,1.0058136873426413,-0.06329442282749698,-0.01886015106431671
1539131514312671,0.9939726863508049,-0.07867551689936692,5.493247882810692E-4
1539131514328651,0.9886015106431678,-0.08490119783321903,0.012634470130464592
1539131514344631,0.9921416037232014,-0.09137102311741829,0.02008087281605242
1539131514360611,0.9961699855039292,-0.08526741435873975,0.017639429312581
1539131514376590,0.9983672846570535,-0.07928587777523477,0.016784924086366004
1539131514392570,0.9988555733577478,-0.07257190814068837,0.01605249103532458
1539131514408550,0.9949492637521935,-0.06939803158617552,0.022400244144350268
1539131514424530,0.9873807888914321,-0.06805523765926624,0.025574120698863112
1539131514440509,0.9842069123369193,-0.07049668116273766,0.017883573662928143
1539131514456489,0.9875028610666057,-0.07428091859311836,6.103608758678547E-5
1539131514472469,0.98970016021973,-0.07171740291447337,-0.009582665751125319
1539131514488403,0.9861600671396964,-0.06292820630197626,-0.01239032578011745
1539131514504383,0.9875028610666057,-0.057312886243991557,-0.016662851911192433
1539131514520362,0.98628213931487,-0.048035400930800165,-0.02667277027542525
1539131514536342,0.9910429541466392,-0.04766918440527945,-0.044007019150072324
1539131514552322,0.9881132219424735,-0.04351873044937804,-0.05474937056534657
1539131514568302,0.9870145723659114,-0.04095521477073305,-0.057190814068817986
1539131514584282,0.9900663767452507,-0.040344853894865196,-0.06024261844815726
1539131514600261,0.9973907072556649,-0.03680476081483164,-0.06512550545510054
1539131514616241,1.00166323338674,-0.028259708552681673,-0.06878767071030767
1539131514632221,1.0009308003356985,-0.02276646066987098,-0.07025253681239052
1539131514648201,0.9980010681315328,-0.01886015106431671,-0.0715953307392998
1539131514664180,0.9960479133287556,-0.017029068436713146,-0.07000839246204338
1539131514680160,0.9993438620584421,-0.016906996261539575,-0.07147325856412623
1539131514696140,1.003616388189517,-0.022400244144350268,-0.07464713511863907
1539131514712120,1.002761882963302,-0.026916914625772392,-0.07232776379034123
1539131514728099,0.9998321507591363,-0.03607232776379021,-0.06378271152819126
1539131514744079,0.9958037689784085,-0.041687647821774476,-0.055970092317082276
1539131514760059,0.9978789959563592,-0.04827954528114731,-0.05413900968947871
1539131514776039,0.9969024185549706,-0.04388494697489875,-0.04876783398184159
1539131514792019,0.9944609750514992,-0.04315251392385733,-0.0424200808728159
1539131514808014,0.9936064698252842,-0.042786297398336615,-0.037781338216220206
1539131514823993,0.9950713359273671,-0.04449530785076661,-0.03204394598306237
1539131514839973,0.9953154802777142,-0.0424200808728159,-0.02545204852368954
1539131514855953,0.9959258411535821,-0.04522774090180803,-0.02398718242160669
1539131514871933,0.9911650263218128,-0.04449530785076661,-0.02545204852368954
1539131514887912,0.9912870984969864,-0.0470588235294116,-0.025085831998168828
1539131514903892,0.9899443045700771,-0.046570534828717314,-0.018005645838101714
1539131514919872,0.9906767376211185,-0.050598916609445155,-0.01751735713740743
1539131514935852,0.9898222323949035,-0.05426108186465228,-0.018493934538795997
1539131514951831,0.9857938506141757,-0.05767910276951227,-0.026306553749904538
1539131514967811,0.9834744792858778,-0.06158541237506654,-0.02679484245059882
1539131514983791,0.9857938506141757,-0.059876401922636546,-0.027038986800945963
1539131514999771,0.9872587167162585,-0.05511558709086728,-0.029480430304417382
1539131515015751,0.9894560158693828,-0.04779125658045302,-0.03472953383688093
1539131515031730,0.9840848401617457,-0.044007019150072324,-0.03436331731136022
1539131515047710,0.983718623636225,-0.04596017395284946,-0.04046692607003877
1539131515063690,0.9859159227893493,-0.04510566872663446,-0.04339665827420447
1539131515079670,0.9912870984969864,-0.04388494697489875,-0.03973449301899734
1539131515095649,0.9940947585259785,-0.039002059967955915,-0.04083314259555948
1539131515111629,0.9980010681315328,-0.03839169909208806,-0.042786297398336615
1539131515127624,0.9990997177080949,-0.03692683299000521,-0.04766918440527945
1539131515143604,1.0000762951094835,-0.04058899824521234,-0.046570534828717314
1539131515159584,0.9999542229343099,-0.03802548256656735,-0.045349813076981604
1539131515175563,1.000198367284657,-0.034973678187228074,-0.04486152437628732
1539131515191543,0.9976348516060121,-0.03607232776379021,-0.044007019150072324
1539131515207523,0.9993438620584421,-0.03668268863965807,-0.041565575646600905
1539131515223503,1.0026398107881285,-0.03814755474174092,-0.04376287479972518
1539131515239483,1.0056916151674677,-0.03851377126726163,-0.04046692607003877
1539131515255462,1.0049591821164263,-0.03717097734035235,-0.037537193865873064
1539131515271442,1.0041046768902113,-0.03472953383688093,-0.033752956435492365
1539131515287422,1.0003204394598306,-0.03668268863965807,-0.032410162508583085
1539131515303402,1.0006866559853513,-0.03802548256656735,-0.033752956435492365
1539131515319381,0.9969024185549706,-0.04107728694590662,-0.04058899824521234
1539131515335361,0.9972686350804914,-0.04217593652246876,-0.03851377126726163
1539131515351341,0.9965362020294499,-0.042664225223163044,-0.03814755474174092
1539131515367321,0.9909208819714657,-0.044007019150072324,-0.03582818341344307
1539131515383300,0.9842069123369193,-0.04827954528114731,-0.037659266041046635
1539131515399280,0.9834744792858778,-0.05352864881361086,-0.037537193865873064
1539131515415260,0.9851834897383078,-0.053772793163958,-0.038879987792782345
1539131515431240,0.9872587167162585,-0.049378194857709445,-0.03997863736934448
1539131515447204,0.9860379949645228,-0.048035400930800165,-0.041687647821774476
1539131515463184,0.9835965514610514,-0.04718089570458517,-0.03790341039139378
1539131515479164,0.9851834897383078,-0.05011062790875087,-0.03289845120927737
1539131515495144,0.9865262836652171,-0.04779125658045302,-0.03167772945754166
1539131515511123,0.9882352941176471,-0.04388494697489875,-0.03533989471274879
1539131515527103,0.9882352941176471,-0.03704890516517878,-0.03851377126726163
1539131515543083,0.9933623254749371,-0.03704890516517878,-0.03741512169069949
1539131515559063,0.9966582742046235,-0.036194399938963784,-0.03826962691691449
1539131515575042,0.9973907072556649,-0.035095750362401645,-0.037659266041046635
1539131515591022,0.9955596246280614,-0.038757915617608774,-0.03741512169069949
1539131515607002,0.9949492637521935,-0.039124132143129486,-0.03472953383688093
1539131515622982,0.9931181811245899,-0.03741512169069949,-0.03717097734035235
1539131515638961,0.9945830472266728,-0.04095521477073305,-0.042786297398336615
1539131515654941,0.9977569237811856,-0.04083314259555948,-0.04193179217212162
1539131515670921,0.9989776455329213,-0.042908369573510186,-0.04132143129625376
1539131515686901,0.9978789959563592,-0.04205386434729519,-0.0424200808728159
1539131515702880,0.9998321507591363,-0.04449530785076661,-0.043030441748683756
1539131515718860,1.0017853055619135,-0.04193179217212162,-0.04473945220111375
1539131515734840,1.00166323338674,-0.0386358434424352,-0.04571602960250232
1539131515750820,1.0031280994888228,-0.0357061112382695,-0.04693675135423803
1539131515766815,1.0028839551384756,-0.03399710078583951,-0.045349813076981604
1539131515782795,1.00166323338674,-0.033752956435492365,-0.04364080262455161
1539131515798774,1.001052872510872,-0.03179980163271523,-0.04388494697489875
1539131515814754,1.0017853055619135,-0.03546196688792236,-0.04339665827420447
1539131515830734,0.9977569237811856,-0.03533989471274879,-0.03973449301899734
1539131515846714,0.9911650263218128,-0.03411917296101308,-0.0394903486686502
1539131515862693,0.9835965514610514,-0.033752956435492365,-0.03924620431830306
1539131515878673,0.98115510795758,-0.03924620431830306,-0.03826962691691449
1539131515894653,0.9824979018844893,-0.046814679179064456,-0.03607232776379021
1539131515910633,0.9849393453879607,-0.05096513313496587,-0.03790341039139378
1539131515926612,0.9850614175631343,-0.04632639047837017,-0.03302052338445094
1539131515942592,0.9822537575341421,-0.04376287479972518,-0.03057907988097952
1539131515958572,0.9796902418554971,-0.04571602960250232,-0.03326466773479808
1539131515974552,0.9789578088044557,-0.0508430609597923,-0.03802548256656735
1539131515990532,0.9790798809796293,-0.05218585488670158,-0.041443503471427334
1539131516006511,0.9842069123369193,-0.04840161745632088,-0.04461738002594018
1539131516022491,0.9892118715190357,-0.041443503471427334,-0.04071107042038591
1539131516038471,0.9923857480735485,-0.035095750362401645,-0.036316472114137355
1539131516054451,0.9989776455329213,-0.036438544289310926,-0.0432745860990309
1539131516070430,1.003616388189517,-0.035095750362401645,-0.05523765926604085
1539131516086395,1.0110627908751049,-0.03289845120927737,-0.055970092317082276
1539131516102375,1.0126497291523613,-0.027161058976119534,-0.047913328755626594
1539131516118354,1.0094758525978484,-0.025085831998168828,-0.03826962691691449
1539131516134334,1.004470893415732,-0.02789349202716096,-0.037537193865873064
1539131516150314,0.9995880064087892,-0.03326466773479808,-0.040222781719691625
1539131516166294,0.9983672846570535,-0.03424124513618665,-0.041443503471427334
1539131516182273,0.9984893568322271,-0.03070115205615309,-0.03961242084382377
1539131516198253,0.9922636758983749,-0.02410925459678026,-0.037781338216220206
1539131516214233,0.9870145723659114,-0.028503852903028815,-0.036316472114137355
1539131516230213,0.9843289845120928,-0.0424200808728159,-0.04107728694590662
1539131516246193,0.985427634088655,-0.05023270008392444,-0.044007019150072324
1539131516262172,0.9851834897383078,-0.05120927748531301,-0.040222781719691625
1539131516278152,0.9839627679865721,-0.048035400930800165,-0.03460746166170736
1539131516294132,0.9859159227893493,-0.048157473105973736,-0.03741512169069949
1539131516310112,0.9853055619134814,-0.04449530785076661,-0.04180971999694805
1539131516326091,0.9838406958113985,-0.039002059967955915,-0.04498359655146089
1539131516342071,0.9818875410086214,-0.03729304951552592,-0.04461738002594018
1539131516358051,0.9839627679865721,-0.036316472114137355,-0.040344853894865196
1539131516374031,0.9875028610666057,-0.03790341039139378,-0.03741512169069949
1539131516390010,0.99140917067216,-0.03717097734035235,-0.03851377126726163
1539131516406005,0.9953154802777142,-0.036316472114137355,-0.04046692607003877
1539131516421985,1.0005645838101778,-0.03533989471274879,-0.05133134966048658
1539131516437965,1.0065461203936827,-0.04107728694590662,-0.05401693751430514
1539131516453945,1.0146028839551384,-0.03851377126726163,-0.04840161745632088
1539131516469925,1.0143587396047913,-0.028381780727855244,-0.034973678187228074
1539131516485904,1.0088654917219806,-0.01886015106431671,-0.035095750362401645
1539131516501884,1.0080109864957656,-0.011902037079423167,-0.04046692607003877
1539131516517864,1.0143587396047913,-0.013488975356679589,-0.052918287937743
1539131516533844,1.0169222552834363,-0.006775005722133187,-0.05401693751430514
1539131516549823,1.0125276569771877,-6.103608758678547E-5,-0.04388494697489875
1539131516565803,1.0026398107881285,-0.0015259021896696368,-0.03472953383688093
1539131516581783,0.988845654993515,-0.010070954451819603,-0.03546196688792236
1539131516597763,0.97773708705272,-0.025818265049210254,-0.04840161745632088
1539131516613742,0.96748302433814,-0.03533989471274879,-0.05682459754329727
1539131516629722,0.9665064469367515,-0.04461738002594018,-0.056946669718470844
1539131516645702,0.9722438391699093,-0.052063782711528006,-0.05108720531013944
1539131516661682,0.9773708705271993,-0.0567025253681237,-0.04632639047837017
1539131516677662,0.9789578088044557,-0.06268406195162912,-0.050598916609445155
