Timestamp (microseconds),Gyro X (°/s),Gyro Y (°/s),Gyro Z (°/s)
1539131492115753,13.275349050125897,17.120622568093268,0.8239871824216607
1539131492131749,14.373998626688035,15.472648203250174,-0.33569848172737693
1539131492147745,12.787060349431613,15.289539940489703,-1.4953841458761872
1539131492163741,10.406652933546866,14.679179064621849,-1.6174563210497581
1539131492179737,8.33142595559616,13.519493400473038,-1.4953841458761872
1539131492195733,6.927595941100208,12.481879911497572,-1.9226367589837992
1539131492211729,5.76791027695117,11.871519035629717,-3.2043945983061803
1539131492227725,5.2185854886702145,11.20012207217519,-4.547188525215461
1539131492243721,5.584802014190927,9.308003356984727,-4.42511635004189
1539131492259717,6.317235065232353,5.828946364538069,-2.8992141603723667
1539131492275713,6.622415503166167,1.5564202334630863,-0.5798428320745188
1539131492291709,5.584802014190927,-2.166781109330941,1.6174563210497581
1539131492307705,3.1433585107195086,-4.42511635004189,3.2654306858930795
1539131492323701,0.8239871824216607,-6.317235065232353,4.364080262455218
1539131492339697,-0.45777065690094787,-8.758678568703772,4.974441138323073
1539131492355692,-0.7629510948347615,-11.261158159761862,5.0354772259097444
1539131492371688,-1.0070954451819034,-12.664988174258042,4.60822461280236
1539131492387684,-1.8616006713969,-12.359807736324,3.3875028610666504
1539131492403680,-3.0823224231326094,-10.833905546654478,1.6174563210497581
1539131492419676,-3.2654306858930795,-9.613183794918768,0.03051804379333589
1539131492435669,-2.7771419851987957,-9.430075532158298,-0.5188067444876197
1539131492451665,-2.227817196917613,-9.613183794918768,-0.5798428320745188
1539131492467661,-2.5940337224383256,-9.67421988250544,-0.8239871824216607
1539131492483657,-3.2043945983061803,-9.185931181811156,-1.4343480582895154
1539131492499652,-3.1433585107195086,-8.697642481116873,-2.3498893720911838
1539131492515648,-2.410925459678083,-8.45349813076973,-2.8992141603723667
1539131492531644,-1.5564202334630863,-8.148317692835917,-3.0212863355459376
1539131492547640,-1.4953841458761872,-7.11070420386045,-3.3264667734797513
1539131492563636,-1.6784924086366573,-5.401693751430457,-3.7537193865873633
1539131492579632,-1.3122758831159445,-3.6316472114137923,-3.875791561760934
1539131492595628,0.09155413138023505,-2.8381780727854675,-2.8992141603723667
1539131492611624,1.6174563210497581,-3.2043945983061803,-0.8850232700083325
1539131492627620,2.410925459678083,-3.7537193865873633,0.9460593575952316
1539131492643616,2.4719615472647547,-3.814755474174035,2.288853284504512
1539131492659612,2.9602502479590385,-3.3875028610666504,3.0212863355459376
1539131492675608,4.42511635004189,-2.7161058976118966,3.3875028610666504
1539131492691604,5.645838101777599,-1.3733119707026162,3.4485389486533222
1539131492707600,5.889982452124741,0.2746623941404778,3.2043945983061803
1539131492723596,5.3406576638437855,1.739528496223329,3.3264667734797513
1539131492739592,4.791332875562603,2.105745021744042,3.570611123826893
1539131492755523,4.730296787975931,2.227817196917613,3.4485389486533222
1539131492771519,5.096513313496644,2.655069810025225,2.7161058976118966
1539131492787514,5.3406576638437855,3.1433585107195086,1.739528496223329
1539131492803510,4.9134050507361735,3.6316472114137923,0.7019150072480898
1539131492819505,3.997863736934505,4.242008087281647,-0.3967345693140487
1539131492835501,3.2043945983061803,4.42511635004189,-1.0070954451819034
1539131492851496,3.0823224231326094,3.5095750362402214,-0.8850232700083325
1539131492867492,2.9602502479590385,1.739528496223329,-0.3967345693140487
1539131492883487,2.9602502479590385,-0.15259021896690683,-0.33569848172737693
1539131492899483,2.7161058976118966,-1.739528496223329,-0.8239871824216607
1539131492915478,2.288853284504512,-2.9602502479590385,-1.2512397955290453
1539131492931474,1.5564202334630863,-4.180971999694748,-1.3733119707026162
1539131492947469,0.33569848172737693,-5.096513313496644,-1.739528496223329
1539131492963465,-0.7629510948347615,-5.279621576256886,-2.5940337224383256
1539131492979460,-1.1291676203554744,-4.852368963149502,-4.119935912108076
1539131492995456,-0.8239871824216607,-4.486152437628789,-5.157549401083315
1539131493011451,-0.5798428320745188,-4.242008087281647,-4.974441138323073
1539131493027447,-0.9460593575952316,-4.180971999694748,-4.058899824521177
1539131493043442,-1.6174563210497581,-4.180971999694748,-2.7771419851987957
1539131493059438,-1.983672846570471,-4.180971999694748,-1.6784924086366573
1539131493075164,-1.3122758831159445,-3.936827649347606,-1.1902037079423735
1539131493091159,-0.2746623941404778,-3.6316472114137923,-0.8850232700083325
1539131493107154,0.3967345693140487,-3.2043945983061803,-0.6408789196611906
1539131493123148,0.2746623941404778,-2.655069810025225,-0.2746623941404778
1539131493139143,-0.6408789196611906,-1.8005645838102282,0.3967345693140487
1539131493155137,-1.4343480582895154,-0.7629510948347615,0.7019150072480898
1539131493171132,-1.3122758831159445,-0.03051804379333589,0.45777065690094787
1539131493187126,-0.03051804379333589,0.213626306553806,-0.03051804379333589
1539131493203121,1.3733119707026162,0.2746623941404778,-0.45777065690094787
1539131493219115,2.227817196917613,0.33569848172737693,-0.7019150072480898
1539131493235110,2.3498893720911838,0.5188067444876197,-0.2746623941404778
1539131493251104,2.166781109330941,0.7629510948347615,0.45777065690094787
1539131493267099,2.288853284504512,1.0070954451819034,0.7629510948347615
1539131493283094,2.5940337224383256,1.2512397955290453,0.9460593575952316
1539131493299088,2.655069810025225,2.105745021744042,0.3967345693140487
1539131493315083,1.8005645838102282,4.42511635004189,-0.8850232700083325
1539131493331077,0.33569848172737693,6.9886320286868795,-1.9226367589837992
1539131493347072,-0.8239871824216607,7.660028992141633,-1.4953841458761872
1539131493363066,-1.2512397955290453,6.256198977645454,-0.5188067444876197
1539131493379061,-1.1291676203554744,4.180971999694748,0.15259021896690683
1539131493394775,-0.7019150072480898,2.532997634851654,0.33569848172737693
1539131493410769,-0.45777065690094787,2.288853284504512,0.15259021896690683
1539131493426762,-0.7019150072480898,3.1433585107195086,-0.09155413138023505
1539131493442756,-1.3733119707026162,4.486152437628789,0.3967345693140487
1539131493458749,-1.983672846570471,5.645838101777599,1.1291676203554744
1539131493474743,-2.8381780727854675,6.561379415579495,1.0681315327688026
1539131493490737,-3.936827649347606,7.660028992141633,1.3733119707026162
1539131493506730,-4.364080262455218,9.063859006637585,1.8005645838102282
1539131493522724,-5.0354772259097444,10.772869459067579,2.04470893415737
1539131493538717,-5.889982452124741,11.810482948043045,3.0823224231326094
1539131493554711,-6.256198977645454,11.444266422522333,5.462729839017356
1539131493570705,-5.828946364538069,8.45349813076973,9.369039444571627
1539131493586698,-4.242008087281647,2.532997634851654,14.618142977035177
1539131493602692,-1.8005645838102282,-5.096513313496644,19.623102159151586
1539131493618685,0.6408789196611906,-12.4208438239109,23.041123064011572
1539131493634679,2.8381780727854675,-18.95170519569683,24.994277866788707
1539131493650673,3.936827649347606,-24.505989166094423,26.092927443350845
1539131493666666,3.3875028610666504,-28.229190508888223,26.153963530937517
1539131493682660,1.0070954451819034,-28.96162355992965,24.750133516441565
1539131493698653,-1.983672846570471,-26.39810788128466,21.637293049515392
1539131493714386,-4.058899824521177,-22.49179827573039,16.876478217746126
1539131493730378,-4.364080262455218,-17.730983443961122,10.650797283894008
1539131493746371,-3.570611123826893,-13.092240787365427,4.119935912108076
1539131493762364,-3.0212863355459376,-8.45349813076973,-1.3733119707026162
1539131493778356,-4.852368963149502,-3.997863736934505,-5.279621576256886
1539131493794349,-8.392462043183059,0.6408789196611906,-8.087281605249018
1539131493810341,-11.749446860456146,4.547188525215461,-10.284580758373295
1539131493826334,-13.76363775082018,7.232776379034021,-11.688410772869474
1539131493842327,-12.848096437018285,7.476920729381163,-11.993591210803288
1539131493858319,-10.406652933546866,6.561379415579495,-11.139085984588291
1539131493874312,-8.209353780422589,5.462729839017356,-9.430075532158298
1539131493890305,-7.476920729381163,5.584802014190927,-7.049668116273779
1539131493906297,-7.598992904554734,6.012054627298312,-3.875791561760934
1539131493922290,-6.9886320286868795,4.852368963149502,0.15259021896690683
1539131493938283,-5.279621576256886,1.6174563210497581,4.852368963149502
1539131493954275,-3.2043945983061803,-2.166781109330941,9.369039444571627
1539131493970268,-1.6784924086366573,-4.852368963149502,12.970168612191856
1539131493986261,-1.1291676203554744,-6.561379415579495,15.838864728770886
1539131494002253,-0.7629510948347615,-8.209353780422589,18.097199969481835
1539131494018246,-0.33569848172737693,-9.73525597009234,19.439993896391115
1539131494033996,0.03051804379333589,-10.162508583199724,19.195849546043974
1539131494049988,-0.2746623941404778,-8.51453421835663,17.181658655680167
1539131494065980,-1.4953841458761872,-4.547188525215461,13.702601663233281
1539131494081971,-2.288853284504512,-0.09155413138023505,9.491111619745197
1539131494097963,-2.166781109330941,3.0823224231326094,5.584802014190927
1539131494113955,-1.9226367589837992,5.157549401083315,2.3498893720911838
1539131494129946,-2.105745021744042,7.11070420386045,-0.8239871824216607
1539131494145938,-2.8381780727854675,9.124895094224485,-3.6316472114137923
1539131494161930,-3.997863736934505,10.589761196307336,-5.828946364538069
1539131494177921,-4.791332875562603,11.20012207217519,-7.2938124666209205
1539131494193913,-4.42511635004189,9.979400320439481,-7.476920729381163
1539131494209905,-3.5095750362402214,7.598992904554734,-6.439307240405924
1539131494225896,-2.3498893720911838,5.279621576256886,-5.584802014190927
1539131494241888,-1.739528496223329,4.180971999694748,-5.401693751430457
1539131494257880,-1.1291676203554744,3.1433585107195086,-4.791332875562603
1539131494273872,0.09155413138023505,0.9460593575952316,-3.1433585107195086
1539131494289863,1.4343480582895154,-2.4719615472647547,-0.8850232700083325
1539131494305855,2.04470893415737,-5.3406576638437855,1.1291676203554744
1539131494321847,1.4343480582895154,-6.500343327992596,2.105745021744042
1539131494337838,0.33569848172737693,-6.134126802471883,2.166781109330941
1539131494353607,-0.45777065690094787,-5.462729839017356,1.6174563210497581
1539131494369598,-0.15259021896690683,-4.974441138323073,0.8850232700083325
1539131494385588,0.3967345693140487,-4.058899824521177,0.03051804379333589
1539131494401579,0.7019150072480898,-2.227817196917613,-1.0681315327688026
1539131494417570,0.45777065690094787,0.213626306553806,-2.166781109330941
1539131494433560,0.33569848172737693,2.4719615472647547,-2.7161058976118966
1539131494449551,0.213626306553806,3.936827649347606,-2.532997634851654
1539131494465542,0.2746623941404778,4.364080262455218,-1.5564202334630863
1539131494481533,0.3967345693140487,4.303044174868319,-0.213626306553806
1539131494497523,1.1291676203554744,4.303044174868319,0.8239871824216607
1539131494513514,2.4719615472647547,4.119935912108076,1.0681315327688026
1539131494529505,3.692683299000464,4.242008087281647,1.0070954451819034
1539131494545496,4.058899824521177,4.60822461280236,0.8850232700083325
1539131494561486,2.5940337224383256,4.852368963149502,0.8239871824216607
1539131494577477,0.7629510948347615,4.180971999694748,1.2512397955290453
1539131494593468,-0.09155413138023505,2.8992141603723667,1.4343480582895154
1539131494609459,-0.09155413138023505,2.04470893415737,0.5188067444876197
1539131494625449,0.33569848172737693,2.5940337224383256,-1.3733119707026162
1539131494641440,0.5188067444876197,3.6316472114137923,-3.0823224231326094
1539131494657431,0.33569848172737693,3.5095750362402214,-3.2654306858930795
1539131494673217,0.2746623941404778,1.3733119707026162,-1.8616006713969
1539131494689207,0.6408789196611906,-2.04470893415737,0.2746623941404778
1539131494705197,1.1291676203554744,-4.9134050507361735,2.04470893415737
1539131494721187,1.6174563210497581,-6.195162890058782,2.7771419851987957
1539131494737177,2.227817196917613,-6.561379415579495,2.9602502479590385
1539131494753166,3.2654306858930795,-7.17174029144735,3.692683299000464
1539131494769156,3.814755474174035,-7.476920729381163,4.119935912108076
1539131494785146,3.0212863355459376,-6.256198977645454,3.3875028610666504
1539131494801136,1.3122758831159445,-3.3875028610666504,1.4953841458761872
1539131494817125,0.15259021896690683,0.2746623941404778,-0.7019150072480898
1539131494833115,-0.5798428320745188,3.5095750362402214,-2.7161058976118966
1539131494849105,-1.0070954451819034,5.3406576638437855,-3.7537193865873633
1539131494865095,-1.5564202334630863,5.95101853971164,-3.4485389486533222
1539131494881085,-2.04470893415737,5.95101853971164,-2.7161058976118966
1539131494897074,-2.227817196917613,5.76791027695117,-1.983672846570471
1539131494913064,-1.739528496223329,5.584802014190927,-1.4343480582895154
1539131494929054,-1.0681315327688026,4.974441138323073,-0.5188067444876197
1539131494945044,-0.8239871824216607,3.3875028610666504,0.8239871824216607
1539131494961033,-1.1902037079423735,0.7629510948347615,2.4719615472647547
1539131494977023,-1.8005645838102282,-1.6784924086366573,3.7537193865873633
1539131494992828,-2.166781109330941,-2.9602502479590385,3.814755474174035
1539131495008817,-2.288853284504512,-3.0823224231326094,3.0212863355459376
1539131495024806,-2.3498893720911838,-3.0823224231326094,1.983672846570471
1539131495040794,-2.4719615472647547,-3.3875028610666504,1.5564202334630863
1539131495056783,-3.2654306858930795,-3.875791561760934,1.4953841458761872
1539131495072772,-3.936827649347606,-4.242008087281647,1.4343480582895154
1539131495088761,-4.364080262455218,-4.180971999694748,1.3122758831159445
1539131495104750,-4.303044174868319,-3.936827649347606,0.8239871824216607
1539131495120739,-4.486152437628789,-3.2043945983061803,0.09155413138023505
1539131495136727,-4.60822461280236,-2.04470893415737,-0.7019150072480898
1539131495152716,-4.60822461280236,-1.0681315327688026,-1.0070954451819034
1539131495168705,-4.058899824521177,-0.5188067444876197,-0.6408789196611906
1539131495184694,-2.5940337224383256,-1.0070954451819034,0.33569848172737693
1539131495200683,-1.0070954451819034,-2.4719615472647547,1.8005645838102282
1539131495216672,0.03051804379333589,-3.997863736934505,3.3264667734797513
1539131495232660,-0.09155413138023505,-4.119935912108076,4.119935912108076
1539131495248649,-0.5798428320745188,-2.4719615472647547,3.5095750362402214
1539131495264638,-1.0681315327688026,-0.33569848172737693,2.7771419851987957
1539131495280627,-1.6784924086366573,0.45777065690094787,3.3264667734797513
1539131495296616,-2.288853284504512,-0.3967345693140487,4.547188525215461
1539131495312469,-2.227817196917613,-1.739528496223329,5.157549401083315
1539131495328457,-0.9460593575952316,-2.5940337224383256,4.42511635004189
1539131495344446,0.45777065690094787,-2.3498893720911838,2.7161058976118966
1539131495360434,1.0070954451819034,-1.739528496223329,1.3733119707026162
1539131495376423,0.33569848172737693,-1.6784924086366573,1.5564202334630863
1539131495392411,-1.0070954451819034,-2.4719615472647547,2.4719615472647547
1539131495408399,-2.3498893720911838,-2.9602502479590385,2.410925459678083
1539131495424388,-3.0212863355459376,-2.166781109330941,0.8239871824216607
1539131495440376,-2.410925459678083,-1.0070954451819034,-1.1902037079423735
1539131495456364,-1.2512397955290453,-0.15259021896690683,-2.655069810025225
1539131495472353,-0.2746623941404778,0.09155413138023505,-3.1433585107195086
1539131495488341,-0.6408789196611906,0.213626306553806,-2.8992141603723667
1539131495504329,-2.105745021744042,0.7019150072480898,-2.655069810025225
1539131495520318,-3.0823224231326094,1.3733119707026162,-2.4719615472647547
1539131495536306,-2.166781109330941,1.4343480582895154,-2.166781109330941
1539131495552294,-0.213626306553806,0.5798428320745188,-1.2512397955290453
1539131495568283,0.7019150072480898,-0.3967345693140487,0.09155413138023505
1539131495584271,0.09155413138023505,-1.0070954451819034,1.4953841458761872
1539131495600259,-0.7019150072480898,-1.1291676203554744,2.5940337224383256
1539131495616248,-0.5798428320745188,-1.0681315327688026,3.3875028610666504
1539131495632049,-0.03051804379333589,-0.8239871824216607,3.692683299000464
1539131495648037,0.09155413138023505,-0.5188067444876197,3.7537193865873633
1539131495664025,-0.09155413138023505,-0.45777065690094787,4.303044174868319
1539131495680013,0.03051804379333589,-1.1291676203554744,5.2185854886702145
1539131495696001,0.33569848172737693,-2.105745021744042,6.256198977645454
1539131495711989,0.7629510948347615,-2.227817196917613,6.561379415579495
1539131495727976,1.2512397955290453,-1.3122758831159445,5.706874189364498
1539131495743964,1.4953841458761872,-0.2746623941404778,5.2185854886702145
1539131495759952,1.1902037079423735,-0.213626306553806,5.279621576256886
1539131495775940,0.8850232700083325,-1.1291676203554744,5.706874189364498
1539131495791928,0.9460593575952316,-2.227817196917613,5.645838101777599
1539131495807916,1.5564202334630863,-2.3498893720911838,4.60822461280236
1539131495823904,2.04470893415737,-1.8616006713969,2.9602502479590385
1539131495839892,1.6174563210497581,-1.1902037079423735,1.5564202334630863
1539131495855879,0.8239871824216607,-1.0681315327688026,0.33569848172737693
1539131495871867,0.213626306553806,-1.0681315327688026,-0.7019150072480898
1539131495887855,0.3967345693140487,-1.0070954451819034,-1.8616006713969
1539131495903843,0.3967345693140487,-0.45777065690094787,-3.1433585107195086
1539131495919831,-0.213626306553806,0.5798428320745188,-3.997863736934505
1539131495935819,-1.4953841458761872,1.9226367589837992,-4.42511635004189
1539131495951690,-2.655069810025225,2.655069810025225,-4.42511635004189
1539131495967678,-3.0823224231326094,2.4719615472647547,-3.814755474174035
1539131495983665,-2.7161058976118966,1.6784924086366573,-3.0212863355459376
1539131495999652,-2.227817196917613,1.1291676203554744,-2.166781109330941
1539131496015640,-2.105745021744042,1.0070954451819034,-1.2512397955290453
1539131496031627,-2.288853284504512,0.9460593575952316,-0.09155413138023505
1539131496047615,-2.288853284504512,0.3967345693140487,1.1902037079423735
1539131496063602,-1.8005645838102282,-0.7629510948347615,2.166781109330941
1539131496079589,-0.9460593575952316,-1.9226367589837992,2.8992141603723667
1539131496095577,-0.45777065690094787,-2.4719615472647547,3.2043945983061803
1539131496111564,-0.6408789196611906,-2.227817196917613,3.0823224231326094
1539131496127552,-1.4343480582895154,-1.1902037079423735,2.7771419851987957
1539131496143539,-1.6174563210497581,0.09155413138023505,2.5940337224383256
1539131496159526,-1.2512397955290453,0.8850232700083325,2.655069810025225
1539131496175514,-1.0681315327688026,1.0070954451819034,3.0212863355459376
1539131496191501,-1.4953841458761872,1.2512397955290453,3.0823224231326094
1539131496207489,-1.983672846570471,2.04470893415737,2.7161058976118966
1539131496223476,-2.288853284504512,3.2654306858930795,2.410925459678083
1539131496239463,-2.166781109330941,3.936827649347606,2.288853284504512
1539131496255451,-1.9226367589837992,3.692683299000464,2.105745021744042
1539131496271270,-1.1902037079423735,2.8992141603723667,1.8005645838102282
1539131496287257,-0.33569848172737693,2.166781109330941,1.4343480582895154
1539131496303243,-0.3967345693140487,1.5564202334630863,1.1902037079423735
1539131496319230,-1.1291676203554744,1.0681315327688026,1.0070954451819034
1539131496335216,-2.4719615472647547,1.0070954451819034,0.7629510948347615
1539131496351203,-3.4485389486533222,1.0070954451819034,-0.03051804379333589
1539131496367189,-3.5095750362402214,0.7019150072480898,-1.2512397955290453
1539131496383175,-3.1433585107195086,-0.09155413138023505,-2.227817196917613
1539131496399162,-2.7771419851987957,-0.7629510948347615,-3.1433585107195086
1539131496415148,-2.5940337224383256,-0.8850232700083325,-4.180971999694748
1539131496431135,-2.4719615472647547,-0.45777065690094787,-5.0354772259097444
1539131496447121,-2.7771419851987957,0.03051804379333589,-5.279621576256886
1539131496463108,-3.814755474174035,0.09155413138023505,-4.486152437628789
1539131496479094,-4.303044174868319,-0.5798428320745188,-3.1433585107195086
1539131496495081,-3.936827649347606,-1.5564202334630863,-1.983672846570471
1539131496511067,-3.0212863355459376,-2.105745021744042,-1.3733119707026162
1539131496527053,-1.983672846570471,-1.8616006713969,-0.9460593575952316
1539131496543040,-1.3122758831159445,-1.739528496223329,0.03051804379333589
1539131496559026,-1.1291676203554744,-1.983672846570471,1.739528496223329
1539131496575013,-1.0681315327688026,-2.04470893415737,3.0823224231326094
1539131496590881,-0.8850232700083325,-1.4343480582895154,3.6316472114137923
1539131496606867,-0.5798428320745188,-0.8239871824216607,3.875791561760934
1539131496622853,-0.03051804379333589,-1.0681315327688026,4.791332875562603
1539131496638839,0.5798428320745188,-2.4719615472647547,6.256198977645454
1539131496654825,0.8239871824216607,-3.570611123826893,7.17174029144735
1539131496670811,0.8850232700083325,-3.570611123826893,6.8665598535133086
1539131496686797,1.0681315327688026,-2.04470893415737,5.523765926604028
1539131496702783,1.1291676203554744,0.03051804379333589,3.875791561760934
1539131496718769,1.1902037079423735,1.3122758831159445,2.7771419851987957
1539131496734755,1.0681315327688026,1.4953841458761872,2.3498893720911838
1539131496750741,0.8239871824216607,1.4953841458761872,1.6174563210497581
1539131496766727,0.5188067444876197,1.6174563210497581,0.8239871824216607
1539131496782713,0.33569848172737693,1.739528496223329,0.09155413138023505
1539131496798699,0.2746623941404778,1.6174563210497581,-0.2746623941404778
1539131496814684,0.213626306553806,1.2512397955290453,-0.8239871824216607
1539131496830670,0.15259021896690683,0.7629510948347615,-1.4343480582895154
1539131496846656,0.15259021896690683,0.2746623941404778,-2.166781109330941
1539131496862642,0.33569848172737693,-0.03051804379333589,-2.8992141603723667
1539131496878628,0.7629510948347615,-0.45777065690094787,-3.4485389486533222
1539131496894614,0.7629510948347615,-0.7629510948347615,-3.7537193865873633
1539131496910492,0.3967345693140487,-1.0070954451819034,-3.814755474174035
1539131496926477,0.213626306553806,-1.0070954451819034,-3.5095750362402214
1539131496942463,0.09155413138023505,-0.5188067444876197,-3.3264667734797513
1539131496958448,-0.15259021896690683,0.6408789196611906,-3.3875028610666504
1539131496974434,-0.33569848172737693,1.5564202334630863,-3.1433585107195086
1539131496990419,-0.2746623941404778,0.8850232700083325,-1.6784924086366573
1539131497006405,0.2746623941404778,-0.8239871824216607,0.15259021896690683
1539131497022390,0.8850232700083325,-2.288853284504512,1.1902037079423735
1539131497038375,1.5564202334630863,-2.8992141603723667,1.739528496223329
1539131497054361,1.6174563210497581,-3.0212863355459376,2.3498893720911838
1539131497070346,0.8850232700083325,-2.8992141603723667,3.0212863355459376
1539131497086332,-0.09155413138023505,-2.5940337224383256,3.2043945983061803
1539131497102317,-0.5798428320745188,-1.8616006713969,2.410925459678083
1539131497118303,-0.33569848172737693,-0.5798428320745188,0.7019150072480898
1539131497134288,-0.03051804379333589,0.45777065690094787,-0.6408789196611906
1539131497150274,-0.213626306553806,1.0681315327688026,-1.0070954451819034
1539131497166259,-1.1902037079423735,1.6784924086366573,-0.6408789196611906
1539131497182245,-2.105745021744042,2.3498893720911838,-0.33569848172737693
1539131497198230,-2.04470893415737,2.410925459678083,-0.09155413138023505
1539131497214216,-0.7019150072480898,1.5564202334630863,0.45777065690094787
1539131497230102,0.45777065690094787,0.03051804379333589,1.6174563210497581
1539131497246087,0.45777065690094787,-2.04470893415737,3.3875028610666504
1539131497262072,-0.33569848172737693,-3.997863736934505,4.60822461280236
1539131497278057,-0.45777065690094787,-5.279621576256886,4.486152437628789
1539131497294042,0.7019150072480898,-5.584802014190927,3.0212863355459376
1539131497310027,1.739528496223329,-4.852368963149502,1.1902037079423735
1539131497326012,1.3733119707026162,-3.0212863355459376,-0.2746623941404778
1539131497341997,-0.15259021896690683,-1.0681315327688026,-1.1291676203554744
1539131497357982,-1.1291676203554744,0.09155413138023505,-1.3733119707026162
1539131497373967,-1.0070954451819034,0.5798428320745188,-1.4953841458761872
1539131497389952,-0.45777065690094787,1.1291676203554744,-1.8616006713969
1539131497405937,-0.45777065690094787,1.8005645838102282,-1.983672846570471
1539131497421922,-1.1291676203554744,2.288853284504512,-1.6784924086366573
1539131497437907,-1.4343480582895154,2.227817196917613,-1.0070954451819034
1539131497453892,-0.6408789196611906,1.6174563210497581,-0.33569848172737693
1539131497469877,0.7629510948347615,0.5798428320745188,-0.03051804379333589
1539131497485862,1.983672846570471,-0.33569848172737693,0.09155413138023505
1539131497501847,2.3498893720911838,-0.8850232700083325,0.3967345693140487
1539131497517832,1.6174563210497581,-1.0681315327688026,0.7629510948347615
1539131497533817,0.7019150072480898,-1.4343480582895154,1.1291676203554744
1539131497549713,0.33569848172737693,-2.105745021744042,0.8850232700083325
1539131497565698,0.33569848172737693,-2.8381780727854675,0.15259021896690683
1539131497581683,-0.15259021896690683,-2.655069810025225,-1.1902037079423735
1539131497597668,-1.0681315327688026,-1.2512397955290453,-3.2043945983061803
1539131497613653,-1.2512397955290453,-0.03051804379333589,-4.669260700389032
1539131497629638,-0.5188067444876197,-0.33569848172737693,-4.730296787975931
1539131497645623,0.2746623941404778,-2.410925459678083,-3.2043945983061803
1539131497661608,0.7019150072480898,-4.730296787975931,-1.1291676203554744
1539131497677593,0.6408789196611906,-5.096513313496644,-0.03051804379333589
1539131497693578,0.2746623941404778,-2.9602502479590385,-0.33569848172737693
1539131497709563,0.33569848172737693,-0.5188067444876197,-0.8850232700083325
1539131497725548,1.0681315327688026,-0.6408789196611906,0.33569848172737693
1539131497741533,2.105745021744042,-3.0823224231326094,2.9602502479590385
1539131497757518,2.8381780727854675,-5.0354772259097444,4.791332875562603
1539131497773503,2.7771419851987957,-4.364080262455218,4.60822461280236
1539131497789488,2.227817196917613,-1.1291676203554744,2.7161058976118966
1539131497805473,1.5564202334630863,2.227817196917613,1.1291676203554744
1539131497821458,1.0070954451819034,3.4485389486533222,0.8850232700083325
1539131497837443,0.9460593575952316,3.0212863355459376,1.1902037079423735
1539131497853428,1.6784924086366573,2.227817196917613,0.8850232700083325
1539131497869293,2.410925459678083,2.04470893415737,0.15259021896690683
1539131497885277,2.166781109330941,2.8381780727854675,-0.5798428320745188
1539131497901262,0.7629510948347615,3.692683299000464,-1.0070954451819034
1539131497917246,-0.5188067444876197,3.7537193865873633,-1.0681315327688026
1539131497933231,-0.7019150072480898,3.1433585107195086,-1.4343480582895154
1539131497949216,-0.09155413138023505,2.8381780727854675,-2.5940337224383256
1539131497965200,0.33569848172737693,3.4485389486533222,-4.242008087281647
1539131497981185,0.09155413138023505,4.119935912108076,-5.2185854886702145
1539131497997169,-0.6408789196611906,3.5095750362402214,-4.669260700389032
1539131498013154,-1.0681315327688026,1.2512397955290453,-3.5095750362402214
1539131498029138,-0.45777065690094787,-1.2512397955290453,-2.7161058976118966
1539131498045123,0.6408789196611906,-2.8381780727854675,-2.7161058976118966
1539131498061107,1.2512397955290453,-3.1433585107195086,-2.7771419851987957
1539131498077092,0.33569848172737693,-2.655069810025225,-2.227817196917613
1539131498093076,-1.4343480582895154,-1.9226367589837992,-1.1291676203554744
1539131498109061,-2.4719615472647547,-1.2512397955290453,-0.2746623941404778
1539131498125045,-1.8005645838102282,-1.1902037079423735,0.15259021896690683
1539131498141030,-0.03051804379333589,-1.8005645838102282,0.7629510948347615
1539131498157014,1.3122758831159445,-2.7771419851987957,1.8616006713969
1539131498172999,1.2512397955290453,-3.2043945983061803,3.3875028610666504
1539131498188934,0.5188067444876197,-3.0212863355459376,4.60822461280236
1539131498204918,0.3967345693140487,-3.0823224231326094,5.462729839017356
1539131498220902,1.3122758831159445,-3.2654306858930795,5.645838101777599
1539131498236886,2.3498893720911838,-2.8381780727854675,4.974441138323073
1539131498252870,2.227817196917613,-1.1291676203554744,3.7537193865873633
1539131498268854,1.0070954451819034,1.1291676203554744,2.410925459678083
1539131498284838,0.03051804379333589,2.532997634851654,1.6784924086366573
1539131498300822,0.45777065690094787,2.166781109330941,1.6784924086366573
1539131498316806,1.1902037079423735,0.7019150072480898,2.04470893415737
1539131498332790,1.3733119707026162,-0.33569848172737693,1.6174563210497581
1539131498348775,1.1291676203554744,-0.09155413138023505,0.5188067444876197
1539131498364759,1.1291676203554744,0.8239871824216607,-0.7019150072480898
1539131498380743,0.8850232700083325,1.8616006713969,-1.6174563210497581
1539131498396727,0.2746623941404778,2.532997634851654,-2.04470893415737
1539131498412711,-0.09155413138023505,2.04470893415737,-1.983672846570471
1539131498428695,0.45777065690094787,0.7629510948347615,-1.5564202334630863
1539131498444679,1.3122758831159445,-0.3967345693140487,-1.3733119707026162
1539131498460663,1.6174563210497581,-0.6408789196611906,-1.3733119707026162
1539131498476647,0.8850232700083325,-0.213626306553806,-1.3733119707026162
1539131498492631,-0.213626306553806,0.213626306553806,-1.0681315327688026
1539131498508514,-0.5188067444876197,0.2746623941404778,-0.8239871824216607
1539131498524498,0.03051804379333589,0.03051804379333589,-0.8239871824216607
1539131498540481,0.8850232700083325,-0.213626306553806,-0.7629510948347615
1539131498556465,1.1902037079423735,-0.33569848172737693,-0.45777065690094787
1539131498572448,0.7629510948347615,-0.33569848172737693,0.03051804379333589
1539131498588432,0.213626306553806,-0.03051804379333589,0.03051804379333589
1539131498604416,0.213626306553806,0.45777065690094787,-0.2746623941404778
1539131498620399,0.5798428320745188,0.6408789196611906,-0.45777065690094787
1539131498636383,0.9460593575952316,0.6408789196611906,-0.45777065690094787
1539131498652366,1.1902037079423735,0.5188067444876197,-0.2746623941404778
1539131498668350,1.3733119707026162,-0.09155413138023505,0.03051804379333589
1539131498684333,1.8616006713969,-1.3733119707026162,0.03051804379333589
1539131498700317,2.227817196917613,-2.655069810025225,-0.213626306553806
1539131498716301,2.166781109330941,-2.9602502479590385,-0.7629510948347615
1539131498732284,1.4953841458761872,-2.3498893720911838,-1.3733119707026162
1539131498748268,0.8850232700083325,-1.6174563210497581,-1.9226367589837992
1539131498764251,0.7629510948347615,-1.4953841458761872,-2.227817196917613
1539131498780235,1.1291676203554744,-1.983672846570471,-1.739528496223329
1539131498796218,1.0070954451819034,-2.227817196917613,-1.1291676203554744
1539131498812202,0.2746623941404778,-1.9226367589837992,-0.7629510948347615
1539131498828125,-0.45777065690094787,-1.2512397955290453,-0.6408789196611906
1539131498844108,-0.7019150072480898,-0.7019150072480898,-0.33569848172737693
1539131498860092,-0.6408789196611906,-0.45777065690094787,0.15259021896690683
1539131498876075,-0.33569848172737693,-0.5188067444876197,0.5798428320745188
1539131498892059,0.2746623941404778,-0.7629510948347615,1.0681315327688026
1539131498908043,0.45777065690094787,-0.8239871824216607,1.8005645838102282
1539131498924026,0.213626306553806,-0.8239871824216607,2.4719615472647547
1539131498940010,-0.2746623941404778,-0.7019150072480898,3.0212863355459376
1539131498955993,-0.5188067444876197,-0.5798428320745188,3.570611123826893
1539131498971977,-0.213626306553806,-0.3967345693140487,4.058899824521177
1539131498987960,0.213626306553806,-0.2746623941404778,4.486152437628789
1539131499003944,0.5188067444876197,-0.45777065690094787,5.096513313496644
1539131499019928,0.2746623941404778,-0.9460593575952316,5.584802014190927
1539131499035911,0.09155413138023505,-1.3733119707026162,5.462729839017356
1539131499051895,0.213626306553806,-1.2512397955290453,4.547188525215461
1539131499067878,0.45777065690094787,-0.5798428320745188,3.3875028610666504
1539131499083862,-0.03051804379333589,0.2746623941404778,2.4719615472647547
1539131499099846,-1.1291676203554744,1.0681315327688026,1.5564202334630863
1539131499115829,-1.6784924086366573,1.6174563210497581,0.5188067444876197
1539131499131813,-1.3122758831159445,1.739528496223329,-0.5798428320745188
1539131499147705,-0.5798428320745188,1.1902037079423735,-1.1902037079423735
1539131499163688,-0.2746623941404778,0.09155413138023505,-1.2512397955290453
1539131499179671,-0.5798428320745188,-0.8239871824216607,-1.0070954451819034
1539131499195654,-1.2512397955290453,-0.7019150072480898,-1.4343480582895154
1539131499211637,-1.5564202334630863,0.7629510948347615,-2.410925459678083
1539131499227620,-1.3122758831159445,2.288853284504512,-2.9602502479590385
1539131499243603,-0.6408789196611906,2.7771419851987957,-2.3498893720911838
1539131499259586,-0.213626306553806,1.739528496223329,-0.5798428320745188
1539131499275570,-0.3967345693140487,0.09155413138023505,1.5564202334630863
1539131499291553,-1.1291676203554744,-0.45777065690094787,2.9602502479590385
1539131499307536,-1.4343480582895154,0.03051804379333589,3.6316472114137923
1539131499323519,-0.5798428320745188,0.5188067444876197,3.936827649347606
1539131499339502,1.0070954451819034,0.45777065690094787,3.936827649347606
1539131499355485,2.410925459678083,-0.213626306553806,4.119935912108076
1539131499371468,2.8992141603723667,-0.7019150072480898,4.242008087281647
1539131499387451,2.655069810025225,-0.7629510948347615,3.997863736934505
1539131499403434,2.4719615472647547,-0.213626306553806,3.2043945983061803
1539131499419417,2.4719615472647547,0.5188067444876197,2.288853284504512
1539131499435401,2.288853284504512,0.7019150072480898,1.6784924086366573
1539131499451384,1.4343480582895154,0.5188067444876197,1.2512397955290453
1539131499467315,0.8850232700083325,0.2746623941404778,0.7019150072480898
1539131499483298,0.7629510948347615,0.2746623941404778,-0.03051804379333589
1539131499499281,0.8850232700083325,0.45777065690094787,-0.7629510948347615
1539131499515263,0.8239871824216607,0.213626306553806,-1.1902037079423735
1539131499531246,0.45777065690094787,-0.5188067444876197,-1.0681315327688026
1539131499547228,-0.03051804379333589,-1.4343480582895154,-0.6408789196611906
1539131499563211,-0.3967345693140487,-2.166781109330941,-0.5798428320745188
1539131499579194,-0.2746623941404778,-2.9602502479590385,-0.6408789196611906
1539131499595176,0.03051804379333589,-3.692683299000464,-0.7629510948347615
1539131499611159,-0.03051804379333589,-3.875791561760934,-1.1291676203554744
1539131499627142,-0.3967345693140487,-3.5095750362402214,-1.5564202334630863
1539131499643124,-0.8850232700083325,-3.0212863355459376,-1.739528496223329
1539131499659107,-1.1902037079423735,-2.532997634851654,-1.8005645838102282
1539131499675089,-1.1902037079423735,-2.227817196917613,-1.9226367589837992
1539131499691072,-0.7019150072480898,-2.166781109330941,-1.739528496223329
1539131499707055,-0.5188067444876197,-2.410925459678083,-1.3733119707026162
1539131499723037,-1.0070954451819034,-2.288853284504512,-1.2512397955290453
1539131499739020,-1.2512397955290453,-1.5564202334630863,-1.4953841458761872
1539131499755003,-0.8850232700083325,-0.7019150072480898,-1.5564202334630863
1539131499770985,-0.3967345693140487,0.03051804379333589,-1.1291676203554744
1539131499786926,-0.33569848172737693,0.15259021896690683,-0.3967345693140487
1539131499802909,-0.2746623941404778,-0.5188067444876197,0.5188067444876197
1539131499818891,0.5188067444876197,-1.4953841458761872,1.4343480582895154
1539131499834874,1.3122758831159445,-1.8005645838102282,1.6174563210497581
1539131499850856,1.6174563210497581,-1.2512397955290453,1.3733119707026162
1539131499866839,1.3733119707026162,-0.5188067444876197,1.2512397955290453
1539131499882822,1.0070954451819034,-0.15259021896690683,1.4953841458761872
1539131499898804,0.7019150072480898,0.03051804379333589,1.3122758831159445
1539131499914787,1.1291676203554744,0.213626306553806,0.7019150072480898
1539131499930770,1.6784924086366573,0.5188067444876197,0.03051804379333589
1539131499946752,1.739528496223329,0.8850232700083325,-0.33569848172737693
1539131499962735,1.1902037079423735,0.8850232700083325,-0.33569848172737693
1539131499978717,0.7629510948347615,0.5798428320745188,0.03051804379333589
1539131499994700,0.8239871824216607,-0.09155413138023505,0.213626306553806
1539131500010683,1.4953841458761872,-0.7629510948347615,0.09155413138023505
1539131500026665,2.227817196917613,-1.2512397955290453,-0.03051804379333589
1539131500042648,2.3498893720911838,-1.2512397955290453,0.09155413138023505
1539131500058631,1.6784924086366573,-0.9460593575952316,0.2746623941404778
1539131500074613,0.8239871824216607,-0.5798428320745188,0.3967345693140487
1539131500090596,0.5188067444876197,-0.6408789196611906,0.45777065690094787
1539131500106506,0.7629510948347615,-0.8239871824216607,0.213626306553806
1539131500122488,0.9460593575952316,-0.8239871824216607,0.03051804379333589
1539131500138470,0.5188067444876197,-0.33569848172737693,-0.2746623941404778
1539131500154452,0.03051804379333589,0.2746623941404778,-0.45777065690094787
1539131500170435,-0.3967345693140487,0.5798428320745188,-0.33569848172737693
1539131500186417,-0.5798428320745188,0.5798428320745188,-0.09155413138023505
1539131500202399,-0.15259021896690683,0.2746623941404778,0.15259021896690683
1539131500218381,0.33569848172737693,-0.2746623941404778,0.5188067444876197
1539131500234363,0.6408789196611906,-0.7019150072480898,1.0070954451819034
1539131500250345,0.45777065690094787,-0.8850232700083325,1.3122758831159445
1539131500266327,0.2746623941404778,-0.8850232700083325,1.2512397955290453
1539131500282310,0.09155413138023505,-0.8850232700083325,1.0681315327688026
1539131500298292,-0.03051804379333589,-0.7019150072480898,0.7019150072480898
1539131500314274,-0.09155413138023505,-0.45777065690094787,0.213626306553806
1539131500330256,-0.15259021896690683,-0.3967345693140487,0.03051804379333589
1539131500346238,-0.213626306553806,-0.15259021896690683,-0.45777065690094787
1539131500362220,-0.33569848172737693,-0.15259021896690683,-0.5188067444876197
1539131500378203,-0.5798428320745188,-0.15259021896690683,-0.3967345693140487
1539131500394185,-0.6408789196611906,0.09155413138023505,-0.3967345693140487
1539131500410167,-0.45777065690094787,0.15259021896690683,-0.03051804379333589
1539131500426117,-0.15259021896690683,-0.09155413138023505,0.5188067444876197
1539131500442099,-0.15259021896690683,-0.5188067444876197,0.8239871824216607
1539131500458081,0.45777065690094787,-1.4953841458761872,1.2512397955290453
1539131500474063,1.4343480582895154,-2.410925459678083,1.6784924086366573
1539131500490045,1.4953841458761872,-2.04470893415737,1.6174563210497581
1539131500506027,0.5798428320745188,-0.8850232700083325,1.0070954451819034
1539131500522009,0.09155413138023505,-0.15259021896690683,0.3967345693140487
1539131500537992,0.7629510948347615,-0.33569848172737693,-0.03051804379333589
1539131500553974,1.3122758831159445,-0.5798428320745188,-0.45777065690094787
1539131500569956,1.2512397955290453,-0.2746623941404778,-1.2512397955290453
1539131500585938,0.7629510948347615,0.3967345693140487,-1.8005645838102282
1539131500601920,0.3967345693140487,0.9460593575952316,-1.8616006713969
1539131500617902,0.33569848172737693,0.9460593575952316,-1.6174563210497581
1539131500633885,0.45777065690094787,0.6408789196611906,-0.8850232700083325
1539131500649867,0.5188067444876197,0.3967345693140487,-0.09155413138023505
1539131500665849,0.33569848172737693,0.213626306553806,0.7629510948347615
1539131500681831,0.03051804379333589,0.03051804379333589,1.8005645838102282
1539131500697813,-0.213626306553806,-0.03051804379333589,2.288853284504512
1539131500713795,-0.09155413138023505,0.03051804379333589,2.166781109330941
1539131500729777,0.45777065690094787,0.03051804379333589,1.8616006713969
1539131500745697,0.9460593575952316,0.09155413138023505,1.6174563210497581
1539131500761679,0.7019150072480898,0.3967345693140487,1.5564202334630863
1539131500777661,0.33569848172737693,0.45777065690094787,1.6174563210497581
1539131500793643,0.3967345693140487,0.2746623941404778,1.6174563210497581
1539131500809625,0.7019150072480898,0.15259021896690683,1.4343480582895154
1539131500825607,0.8239871824216607,0.3967345693140487,1.0681315327688026
1539131500841590,0.5188067444876197,0.9460593575952316,0.7019150072480898
1539131500857572,0.15259021896690683,1.2512397955290453,0.5188067444876197
1539131500873554,0.33569848172737693,0.8850232700083325,0.5798428320745188
1539131500889536,0.7629510948347615,0.15259021896690683,0.8239871824216607
1539131500905518,1.0681315327688026,-0.15259021896690683,0.7629510948347615
1539131500921500,1.0681315327688026,-0.15259021896690683,0.7019150072480898
1539131500937482,0.8850232700083325,-0.2746623941404778,0.7019150072480898
1539131500953465,0.8850232700083325,-0.7019150072480898,0.7629510948347615
1539131500969447,1.0070954451819034,-1.3733119707026162,0.8850232700083325
1539131500985429,1.1291676203554744,-2.105745021744042,1.0070954451819034
1539131501001411,1.0070954451819034,-2.105745021744042,0.7019150072480898
1539131501017393,0.7019150072480898,-1.2512397955290453,-0.2746623941404778
1539131501033375,0.213626306553806,-0.03051804379333589,-1.2512397955290453
1539131501049358,0.213626306553806,0.3967345693140487,-1.4343480582895154
1539131501065307,0.33569848172737693,-0.03051804379333589,-0.8239871824216607
1539131501081289,0.03051804379333589,-0.6408789196611906,-0.09155413138023505
1539131501097271,-0.15259021896690683,-0.8850232700083325,0.09155413138023505
1539131501113252,0.2746623941404778,-0.8239871824216607,0.213626306553806
1539131501129234,1.0681315327688026,-0.5188067444876197,0.6408789196611906
1539131501145216,0.8850232700083325,-0.15259021896690683,1.5564202334630863
1539131501161197,-0.2746623941404778,0.5188067444876197,2.410925459678083
1539131501177179,-0.9460593575952316,1.3122758831159445,2.5940337224383256
1539131501193161,-0.33569848172737693,1.3122758831159445,2.5940337224383256
1539131501209142,0.8850232700083325,0.15259021896690683,2.8992141603723667
1539131501225124,1.6784924086366573,-1.3733119707026162,3.2654306858930795
1539131501241106,1.4953841458761872,-2.04470893415737,2.9602502479590385
1539131501257087,1.1291676203554744,-1.5564202334630863,1.983672846570471
1539131501273069,0.5798428320745188,-0.45777065690094787,0.7629510948347615
1539131501289051,0.2746623941404778,0.45777065690094787,-0.5188067444876197
1539131501305032,0.5188067444876197,0.5798428320745188,-1.4953841458761872
1539131501321014,1.0681315327688026,0.2746623941404778,-2.4719615472647547
1539131501336996,1.4953841458761872,-0.09155413138023505,-3.2654306858930795
1539131501352977,1.1291676203554744,0.03051804379333589,-3.5095750362402214
1539131501368959,-0.2746623941404778,0.6408789196611906,-3.0212863355459376
1539131501384918,-1.8005645838102282,1.3122758831159445,-2.04470893415737
1539131501400900,-2.655069810025225,1.6784924086366573,-0.9460593575952316
1539131501416881,-2.5940337224383256,0.9460593575952316,0.33569848172737693
1539131501432863,-1.6784924086366573,-0.8239871824216607,1.5564202334630863
1539131501448845,-0.213626306553806,-2.9602502479590385,2.655069810025225
1539131501464826,0.5188067444876197,-4.42511635004189,3.570611123826893
1539131501480808,0.15259021896690683,-4.364080262455218,3.997863736934505
1539131501496790,-1.0070954451819034,-3.2654306858930795,3.6316472114137923
1539131501512771,-1.4953841458761872,-2.166781109330941,2.8992141603723667
1539131501528753,-0.9460593575952316,-1.739528496223329,2.04470893415737
1539131501544735,-0.2746623941404778,-1.5564202334630863,1.3733119707026162
1539131501560716,-0.213626306553806,-1.1902037079423735,0.9460593575952316
1539131501576698,-0.7019150072480898,-0.6408789196611906,0.8239871824216607
1539131501592680,-1.2512397955290453,0.213626306553806,0.5188067444876197
1539131501608661,-1.2512397955290453,1.2512397955290453,-0.3967345693140487
1539131501624643,-0.5188067444876197,1.983672846570471,-1.739528496223329
1539131501640625,0.5188067444876197,2.4719615472647547,-2.9602502479590385
1539131501656606,1.0681315327688026,2.410925459678083,-3.0823224231326094
1539131501672588,0.7019150072480898,1.3733119707026162,-1.6784924086366573
1539131501688570,-0.03051804379333589,0.09155413138023505,0.33569848172737693
1539131501704498,-0.09155413138023505,-0.6408789196611906,1.3733119707026162
1539131501720480,0.9460593575952316,-0.8239871824216607,1.0681315327688026
1539131501736461,1.983672846570471,-1.0070954451819034,0.3967345693140487
1539131501752443,2.5940337224383256,-1.3733119707026162,0.09155413138023505
1539131501768425,2.7161058976118966,-2.105745021744042,0.9460593575952316
1539131501784406,2.166781109330941,-2.532997634851654,2.105745021744042
1539131501800388,1.1902037079423735,-2.288853284504512,2.7161058976118966
1539131501816370,0.33569848172737693,-1.6784924086366573,2.4719615472647547
1539131501832351,0.15259021896690683,-1.1291676203554744,1.6784924086366573
1539131501848333,0.45777065690094787,-0.9460593575952316,0.5188067444876197
1539131501864315,0.8239871824216607,-1.0070954451819034,-0.7019150072480898
1539131501880296,0.8850232700083325,-1.1902037079423735,-1.5564202334630863
1539131501896278,0.6408789196611906,-0.9460593575952316,-2.04470893415737
1539131501912260,0.33569848172737693,-0.33569848172737693,-2.04470893415737
1539131501928241,0.09155413138023505,0.33569848172737693,-1.739528496223329
1539131501944223,0.03051804379333589,0.5798428320745188,-1.2512397955290453
1539131501960205,0.15259021896690683,0.5188067444876197,-0.7629510948347615
1539131501976186,0.7019150072480898,0.03051804379333589,-0.15259021896690683
1539131501992168,1.1291676203554744,-0.9460593575952316,0.9460593575952316
1539131502008150,1.0070954451819034,-1.5564202334630863,1.8616006713969
1539131502024109,0.9460593575952316,-1.4953841458761872,2.227817196917613
1539131502040090,1.2512397955290453,-1.4343480582895154,2.532997634851654
1539131502056072,1.4343480582895154,-1.3733119707026162,2.5940337224383256
1539131502072054,1.0681315327688026,-1.0681315327688026,2.04470893415737
1539131502088035,0.7019150072480898,-0.6408789196611906,1.0070954451819034
1539131502104017,0.7629510948347615,-0.5798428320745188,0.213626306553806
1539131502119999,0.8850232700083325,-0.7019150072480898,-0.5188067444876197
1539131502135980,0.7629510948347615,-0.8239871824216607,-0.9460593575952316
1539131502151962,0.33569848172737693,-1.0070954451819034,-1.0681315327688026
1539131502167944,0.2746623941404778,-1.1291676203554744,-1.0070954451819034
1539131502183925,0.2746623941404778,-1.0681315327688026,-0.8239871824216607
1539131502199907,0.03051804379333589,-0.5188067444876197,-0.7629510948347615
1539131502215889,-0.7629510948347615,0.5798428320745188,-0.7019150072480898
1539131502231870,-1.2512397955290453,1.0681315327688026,-0.15259021896690683
1539131502247852,-1.2512397955290453,-0.03051804379333589,1.0681315327688026
1539131502263834,-0.5798428320745188,-2.4719615472647547,2.105745021744042
1539131502279815,0.5798428320745188,-5.645838101777599,3.0212863355459376
1539131502295797,1.4343480582895154,-8.148317692835917,3.692683299000464
1539131502311779,1.0681315327688026,-8.575570305943302,3.6316472114137923
1539131502327760,0.09155413138023505,-6.805523765926637,2.8992141603723667
1539131502343719,-0.3967345693140487,-4.303044174868319,1.983672846570471
1539131502359700,-0.09155413138023505,-2.655069810025225,1.1902037079423735
1539131502375682,0.09155413138023505,-1.8616006713969,0.5188067444876197
1539131502391663,0.03051804379333589,-1.3122758831159445,0.03051804379333589
1539131502407644,-0.03051804379333589,-0.45777065690094787,-0.15259021896690683
1539131502423625,0.03051804379333589,0.8239871824216607,-0.2746623941404778
1539131502439606,-0.03051804379333589,2.166781109330941,0.03051804379333589
1539131502455587,-0.09155413138023505,3.0823224231326094,0.5798428320745188
1539131502471569,0.33569848172737693,3.0212863355459376,1.2512397955290453
1539131502487550,1.4343480582895154,2.105745021744042,1.8005645838102282
1539131502503531,2.3498893720911838,0.5798428320745188,2.410925459678083
1539131502519512,2.5940337224383256,-0.7629510948347615,2.9602502479590385
1539131502535493,1.9226367589837992,-1.4953841458761872,3.3264667734797513
1539131502551475,1.0070954451819034,-1.2512397955290453,2.8992141603723667
1539131502567456,0.6408789196611906,-0.33569848172737693,1.9226367589837992
1539131502583437,0.8850232700083325,0.213626306553806,1.0070954451819034
1539131502599418,0.9460593575952316,-0.09155413138023505,0.5798428320745188
1539131502615399,0.6408789196611906,-0.9460593575952316,0.45777065690094787
1539131502631381,0.213626306553806,-1.4343480582895154,0.213626306553806
1539131502647362,-0.33569848172737693,-1.3122758831159445,-0.2746623941404778
1539131502663330,-0.7629510948347615,-0.8239871824216607,-0.8239871824216607
1539131502679311,-0.8239871824216607,-0.7629510948347615,-0.8850232700083325
1539131502695292,-0.33569848172737693,-1.3122758831159445,-0.45777065690094787
1539131502711273,0.5188067444876197,-1.983672846570471,-0.213626306553806
1539131502727254,1.2512397955290453,-1.9226367589837992,-0.15259021896690683
1539131502743236,1.6174563210497581,-0.7629510948347615,-0.213626306553806
1539131502759217,1.3122758831159445,1.0681315327688026,0.09155413138023505
1539131502775198,0.8239871824216607,2.5940337224383256,0.15259021896690683
1539131502791179,-0.213626306553806,3.570611123826893,-0.33569848172737693
1539131502807160,-0.09155413138023505,2.9602502479590385,-0.33569848172737693
1539131502823142,0.7019150072480898,2.7771419851987957,-1.1902037079423735
1539131502839123,0.9460593575952316,1.8616006713969,-0.45777065690094787
1539131502855104,0.8239871824216607,0.5798428320745188,1.0070954451819034
1539131502871085,0.5798428320745188,-1.1902037079423735,3.2043945983061803
1539131502887066,0.8239871824216607,-3.2654306858930795,5.096513313496644
1539131502903048,1.739528496223329,-5.0354772259097444,5.645838101777599
1539131502919029,3.0212863355459376,-5.706874189364498,5.096513313496644
1539131502935010,4.119935912108076,-5.584802014190927,4.42511635004189
1539131502950991,4.60822461280236,-5.157549401083315,4.058899824521177
1539131502966972,4.669260700389032,-4.242008087281647,3.3875028610666504
1539131502982940,4.180971999694748,-2.288853284504512,2.166781109330941
1539131502998921,3.3875028610666504,-0.213626306553806,1.1902037079423735
1539131503014903,2.166781109330941,0.8239871824216607,1.0070954451819034
1539131503030884,1.5564202334630863,0.7629510948347615,1.3122758831159445
1539131503046865,1.8616006713969,0.5798428320745188,1.1902037079423735
1539131503062846,2.4719615472647547,0.9460593575952316,0.33569848172737693
1539131503078827,2.166781109330941,1.6174563210497581,-0.6408789196611906
1539131503094809,1.3122758831159445,1.8616006713969,-1.0681315327688026
1539131503110790,0.9460593575952316,1.1291676203554744,-0.7629510948347615
1539131503126771,1.5564202334630863,-0.09155413138023505,-0.5188067444876197
1539131503142752,2.105745021744042,-1.0070954451819034,-0.6408789196611906
1539131503158733,2.532997634851654,-1.8005645838102282,-1.1291676203554744
1539131503174715,3.2654306858930795,-2.7771419851987957,-1.3122758831159445
1539131503190696,4.303044174868319,-4.364080262455218,-1.3733119707026162
1539131503206677,4.730296787975931,-5.645838101777599,-1.3733119707026162
1539131503222658,4.180971999694748,-5.706874189364498,-1.739528496223329
1539131503238639,3.4485389486533222,-4.730296787975931,-2.4719615472647547
1539131503254621,2.8992141603723667,-3.4485389486533222,-2.9602502479590385
1539131503270602,2.5940337224383256,-2.532997634851654,-3.2043945983061803
1539131503286583,2.105745021744042,-2.166781109330941,-2.7161058976118966
1539131503302520,1.4343480582895154,-1.8616006713969,-1.9226367589837992
1539131503318502,1.4343480582895154,-1.4343480582895154,-1.4953841458761872
1539131503334483,2.3498893720911838,-1.3733119707026162,-0.7629510948347615
1539131503350464,3.2043945983061803,-1.739528496223329,0.33569848172737693
1539131503366445,3.1433585107195086,-1.9226367589837992,1.5564202334630863
1539131503382426,2.7161058976118966,-1.0681315327688026,2.3498893720911838
1539131503398408,3.3264667734797513,0.09155413138023505,2.655069810025225
1539131503414389,6.744487678339738,0.213626306553806,2.105745021744042
1539131503430370,15.655756466010416,-2.5940337224383256,-0.33569848172737693
1539131503446351,28.839551384756078,-8.087281605249018,-4.364080262455218
1539131503462332,40.9246967269396,-13.824673838406852,-8.026245517662346
1539131503478314,45.5634393835353,-16.571297779812312,-9.55214770733187
1539131503494295,40.86366063935293,-15.350576028076603,-8.697642481116873
1539131503510276,29.26680399786369,-10.772869459067579,-6.073090714885211
1539131503526257,15.777828641183987,-5.3406576638437855,-2.8992141603723667
1539131503542238,2.227817196917613,-0.3967345693140487,-0.09155413138023505
1539131503558220,-6.195162890058782,2.04470893415737,1.3733119707026162
1539131503574201,-7.232776379034021,2.288853284504512,0.3967345693140487
1539131503590182,-2.4719615472647547,0.7629510948347615,-2.04470893415737
1539131503606163,2.532997634851654,-1.0681315327688026,-4.119935912108076
1539131503622131,4.180971999694748,-2.227817196917613,-4.303044174868319
1539131503638112,2.532997634851654,-2.288853284504512,-2.8992141603723667
1539131503654092,-0.09155413138023505,-1.4953841458761872,-1.4953841458761872
1539131503670073,-1.6174563210497581,-0.6408789196611906,-1.0681315327688026
1539131503686054,-1.4953841458761872,-0.6408789196611906,-1.1902037079423735
1539131503702035,-0.3967345693140487,-1.3122758831159445,-1.2512397955290453
1539131503718015,0.2746623941404778,-1.8005645838102282,-1.1291676203554744
1539131503733996,0.33569848172737693,-1.6784924086366573,-0.8850232700083325
1539131503749977,0.15259021896690683,-1.3122758831159445,-0.15259021896690683
1539131503765957,-0.15259021896690683,-1.1291676203554744,0.8239871824216607
1539131503781938,-0.45777065690094787,-1.2512397955290453,1.5564202334630863
1539131503797919,-0.45777065690094787,-1.4953841458761872,1.5564202334630863
1539131503813900,0.5188067444876197,-1.3733119707026162,1.0681315327688026
1539131503829880,1.3122758831159445,-0.5188067444876197,0.5798428320745188
1539131503845861,0.8850232700083325,0.5188067444876197,0.5798428320745188
1539131503861842,-0.33569848172737693,1.1902037079423735,1.0681315327688026
1539131503877823,-0.9460593575952316,1.1291676203554744,1.4953841458761872
1539131503893803,-0.45777065690094787,0.45777065690094787,1.8005645838102282
1539131503909784,0.6408789196611906,-0.6408789196611906,1.8616006713969
1539131503925765,1.8616006713969,-1.983672846570471,1.8005645838102282
1539131503941711,2.532997634851654,-3.1433585107195086,1.5564202334630863
1539131503957692,2.7771419851987957,-3.875791561760934,1.1902037079423735
1539131503973672,-20.416571297779683,-21.27107652399468,6.256198977645454
1539131503989653,6.561379415579495,-1.983672846570471,27.98504615854108
1539131504005634,-11.749446860456146,1.1291676203554744,-12.787060349431613
1539131504021615,9.918364232852582,17.181658655680167,-15.228503852903032
1539131504037595,25.787747005416804,11.383230334935433,-14.862287327382319
1539131504053576,28.290226596475122,4.60822461280236,-15.838864728770886
1539131504069557,15.472648203250174,-6.744487678339738,-13.214312962538997
1539131504085538,-3.0823224231326094,-11.566338597695903,-13.275349050125897
1539131504101518,-16.510261692225413,-13.092240787365427,-14.373998626688035
1539131504117499,-24.505989166094423,-14.007782101167322,-14.98435950255589
1539131504133480,-26.092927443350845,-14.98435950255589,-15.594720378423744
1539131504149460,-23.041123064011572,-16.937514305333025,-13.031204699778755
1539131504165441,-19.867246509498727,-17.54787518120088,-9.796292057679011
1539131504181422,-16.2050812542916,-17.66994735637445,-9.979400320439481
1539131504197403,-11.07804989700162,-18.95170519569683,-11.505302510109004
1539131504213383,-5.157549401083315,-19.867246509498727,-11.688410772869474
1539131504229364,-1.9226367589837992,-18.341344319828977,-9.979400320439481
1539131504245345,-3.0212863355459376,-14.557106889448278,-6.561379415579495
1539131504261322,-5.3406576638437855,-9.491111619745197,-2.7161058976118966
1539131504277302,-5.706874189364498,-4.180971999694748,0.2746623941404778
1539131504293283,-2.7161058976118966,0.6408789196611906,2.3498893720911838
1539131504309264,1.739528496223329,5.0354772259097444,3.936827649347606
1539131504325245,5.706874189364498,9.002822919050914,5.2185854886702145
1539131504341225,8.209353780422589,12.603952086671143,6.927595941100208
1539131504357206,9.613183794918768,15.777828641183987,8.758678568703772
1539131504373187,10.772869459067579,18.036163881895163,11.07804989700162
1539131504389167,11.505302510109004,19.80621042191183,13.397421225299468
1539131504405148,11.871519035629717,22.064545662623004,15.045395590142562
1539131504421129,11.932555123216616,24.872205691615136,15.899900816357558
1539131504437110,11.688410772869474,27.252613107499656,16.693369954985883
1539131504453090,11.20012207217519,27.98504615854108,18.036163881895163
1539131504469071,10.467689021133765,27.008468757152514,19.501029983978015
1539131504485052,10.162508583199724,25.42153047989609,20.23346303501944
1539131504501032,10.467689021133765,23.041123064011572,19.9282825970854
1539131504517013,10.650797283894008,20.599679560540153,18.524452582589447
1539131504532994,10.528725108720437,18.158236057068734,16.44922560463874
1539131504548975,9.67421988250544,15.716792553597315,14.312962539101136
1539131504564955,8.45349813076973,12.909132524605184,12.4208438239109
1539131504580932,6.9886320286868795,9.55214770733187,10.650797283894008
1539131504596913,5.2185854886702145,5.95101853971164,8.45349813076973
1539131504612894,3.3875028610666504,2.7161058976118966,5.523765926604028
1539131504628874,1.3733119707026162,0.3967345693140487,2.105745021744042
1539131504644855,-0.6408789196611906,-2.105745021744042,-1.1902037079423735
1539131504660836,-2.3498893720911838,-5.3406576638437855,-3.7537193865873633
1539131504676817,-3.692683299000464,-8.270389868009488,-5.645838101777599
1539131504692797,-4.974441138323073,-10.101472495613052,-7.965209430075447
1539131504708778,-6.134126802471883,-11.322194247348762,-10.040436408026153
1539131504724759,-6.9886320286868795,-12.726024261844714,-11.444266422522333
1539131504740739,-7.049668116273779,-14.373998626688035,-12.359807736324
1539131504756720,-6.256198977645454,-15.838864728770886,-12.726024261844714
1539131504772701,-5.0354772259097444,-16.876478217746126,-12.359807736324
1539131504788682,-4.058899824521177,-17.24269474326684,-11.139085984588291
1539131504804662,-2.7771419851987957,-16.571297779812312,-9.85732814526591
1539131504820643,-0.9460593575952316,-15.228503852903032,-8.697642481116873
1539131504836624,0.6408789196611906,-13.397421225299468,-7.2938124666209205
1539131504852604,1.6174563210497581,-11.261158159761862,-5.645838101777599
1539131504868585,2.04470893415737,-8.941786831464015,-3.692683299000464
1539131504884566,1.739528496223329,-6.134126802471883,-1.739528496223329
1539131504900512,1.3122758831159445,-3.2043945983061803,-0.09155413138023505
1539131504916493,0.9460593575952316,0.09155413138023505,0.8239871824216607
1539131504932474,1.1291676203554744,3.814755474174035,1.0681315327688026
1539131504948454,1.8616006713969,7.354848554207592,0.7629510948347615
1539131504964435,2.655069810025225,10.101472495613052,0.5798428320745188
1539131504980416,3.1433585107195086,11.871519035629717,0.9460593575952316
1539131504996397,3.2043945983061803,12.726024261844714,1.5564202334630863
1539131505012377,3.3875028610666504,12.23773556115043,2.227817196917613
1539131505028358,4.242008087281647,10.284580758373295,3.4485389486533222
1539131505044339,5.2185854886702145,7.232776379034021,4.974441138323073
1539131505060320,5.828946364538069,4.058899824521177,6.622415503166167
1539131505076300,5.401693751430457,2.166781109330941,7.232776379034021
1539131505092281,4.242008087281647,2.4719615472647547,6.256198977645454
1539131505108262,2.5940337224383256,4.303044174868319,4.364080262455218
1539131505124242,0.7629510948347615,5.95101853971164,2.3498893720911838
1539131505140223,-0.8239871824216607,5.95101853971164,1.1291676203554744
1539131505156204,-1.4343480582895154,3.875791561760934,0.5798428320745188
1539131505172185,-0.8850232700083325,0.5188067444876197,0.2746623941404778
1539131505188165,0.3967345693140487,-3.0212863355459376,0.03051804379333589
1539131505204146,1.739528496223329,-5.828946364538069,0.15259021896690683
1539131505220123,2.166781109330941,-7.17174029144735,0.7019150072480898
1539131505236104,1.5564202334630863,-6.683451590753066,0.9460593575952316
1539131505252084,0.8850232700083325,-5.157549401083315,0.15259021896690683
1539131505268065,1.6174563210497581,-4.119935912108076,-1.1902037079423735
1539131505284046,2.7161058976118966,-3.5095750362402214,-2.04470893415737
1539131505300027,3.2043945983061803,-3.2043945983061803,-2.166781109330941
1539131505316007,2.8992141603723667,-2.7771419851987957,-2.105745021744042
1539131505331988,2.04470893415737,-1.8616006713969,-1.8616006713969
1539131505347969,1.0681315327688026,-0.3967345693140487,-1.3733119707026162
1539131505363949,0.15259021896690683,1.1291676203554744,-1.0070954451819034
1539131505379930,0.09155413138023505,2.4719615472647547,-1.0070954451819034
1539131505395911,1.0070954451819034,3.2043945983061803,-1.3122758831159445
1539131505411892,2.4719615472647547,3.1433585107195086,-1.3122758831159445
1539131505427872,3.3875028610666504,2.288853284504512,-0.45777065690094787
1539131505443853,3.1433585107195086,1.3122758831159445,0.9460593575952316
1539131505459834,2.105745021744042,0.7629510948347615,1.9226367589837992
1539131505475814,1.1291676203554744,0.5188067444876197,2.105745021744042
1539131505491795,1.0681315327688026,0.2746623941404778,1.6784924086366573
1539131505507776,1.2512397955290453,-0.2746623941404778,1.1291676203554744
1539131505523757,0.7629510948347615,-0.7629510948347615,0.6408789196611906
1539131505539703,-0.09155413138023505,-0.7019150072480898,-0.213626306553806
1539131505555684,-0.8850232700083325,-0.7019150072480898,-1.1902037079423735
1539131505571664,-1.1291676203554744,-0.9460593575952316,-1.9226367589837992
1539131505587645,-0.5188067444876197,-1.4953841458761872,-2.410925459678083
1539131505603626,0.03051804379333589,-2.532997634851654,-2.04470893415737
1539131505619607,-0.15259021896690683,-3.692683299000464,-0.9460593575952316
1539131505635587,-0.7019150072480898,-4.119935912108076,-0.2746623941404778
1539131505651568,-0.9460593575952316,-3.692683299000464,-0.33569848172737693
1539131505667549,-0.7019150072480898,-2.8381780727854675,-0.45777065690094787
1539131505683529,-0.33569848172737693,-2.288853284504512,-0.5188067444876197
1539131505699510,-0.33569848172737693,-1.9226367589837992,-0.2746623941404778
1539131505715491,-0.2746623941404778,-1.9226367589837992,0.2746623941404778
1539131505731472,0.09155413138023505,-1.9226367589837992,0.7629510948347615
1539131505747452,0.33569848172737693,-1.5564202334630863,0.9460593575952316
1539131505763433,0.5798428320745188,-0.7629510948347615,0.5188067444876197
1539131505779414,1.0681315327688026,-0.03051804379333589,0.03051804379333589
1539131505795395,1.4953841458761872,0.2746623941404778,-0.09155413138023505
1539131505811375,1.5564202334630863,0.3967345693140487,-0.15259021896690683
1539131505827356,1.4953841458761872,0.5798428320745188,-0.15259021896690683
1539131505843337,1.3122758831159445,1.1291676203554744,-0.2746623941404778
1539131505859314,1.2512397955290453,1.5564202334630863,-0.09155413138023505
1539131505875294,1.0681315327688026,1.9226367589837992,0.213626306553806
1539131505891275,0.6408789196611906,2.5940337224383256,0.03051804379333589
1539131505907256,0.2746623941404778,2.8992141603723667,-0.45777065690094787
1539131505923236,0.5188067444876197,2.5940337224383256,-0.7019150072480898
1539131505939217,0.8850232700083325,2.04470893415737,-0.5798428320745188
1539131505955198,0.5188067444876197,1.983672846570471,-0.5798428320745188
1539131505971179,-0.5188067444876197,2.288853284504512,-0.8239871824216607
1539131505987159,-0.8850232700083325,2.227817196917613,-1.3733119707026162
1539131506003140,0.15259021896690683,1.2512397955290453,-1.6784924086366573
1539131506019121,1.3733119707026162,0.09155413138023505,-1.739528496223329
1539131506035102,1.6174563210497581,-0.7629510948347615,-1.3122758831159445
1539131506051082,1.0681315327688026,-1.1291676203554744,-0.8850232700083325
1539131506067063,0.7019150072480898,-1.4953841458761872,-0.5798428320745188
1539131506083044,0.8850232700083325,-1.739528496223329,-0.5798428320745188
1539131506099024,1.3122758831159445,-1.5564202334630863,-1.2512397955290453
1539131506115005,1.4343480582895154,-0.9460593575952316,-1.6784924086366573
1539131506130986,1.2512397955290453,0.09155413138023505,-1.6174563210497581
1539131506146967,0.9460593575952316,1.0681315327688026,-1.1902037079423735
1539131506162947,0.8239871824216607,1.2512397955290453,-0.2746623941404778
1539131506178924,0.5188067444876197,0.7019150072480898,0.9460593575952316
1539131506194905,0.3967345693140487,-0.09155413138023505,1.6174563210497581
1539131506210886,0.5188067444876197,-0.7629510948347615,1.8616006713969
1539131506226866,0.5798428320745188,-0.7019150072480898,1.8005645838102282
1539131506242847,0.33569848172737693,-0.09155413138023505,1.4953841458761872
1539131506258828,-0.2746623941404778,0.6408789196611906,1.1902037079423735
1539131506274809,-0.5188067444876197,0.6408789196611906,1.3122758831159445
1539131506290789,-0.213626306553806,-0.33569848172737693,1.4953841458761872
1539131506306770,0.09155413138023505,-1.3733119707026162,1.739528496223329
1539131506322751,0.2746623941404778,-1.8616006713969,1.6174563210497581
1539131506338731,0.03051804379333589,-1.8005645838102282,1.6784924086366573
1539131506354712,-0.45777065690094787,-1.6174563210497581,1.5564202334630863
1539131506370693,-0.5188067444876197,-1.3733119707026162,1.4343480582895154
1539131506386674,-0.2746623941404778,-1.4953841458761872,1.2512397955290453
1539131506402654,-0.09155413138023505,-1.9226367589837992,1.1902037079423735
1539131506418635,-0.213626306553806,-2.288853284504512,1.0681315327688026
1539131506434616,-0.5188067444876197,-2.105745021744042,0.6408789196611906
1539131506450596,-0.5188067444876197,-1.6784924086366573,-0.03051804379333589
1539131506466577,-0.15259021896690683,-1.3122758831159445,-0.8239871824216607
1539131506482558,0.6408789196611906,-1.0681315327688026,-1.4953841458761872
1539131506498504,2.04470893415737,-0.5188067444876197,-2.3498893720911838
1539131506514485,5.096513313496644,0.09155413138023505,-3.1433585107195086
1539131506530465,7.843137254901876,1.5564202334630863,-4.119935912108076
1539131506546445,8.45349813076973,3.814755474174035,-4.119935912108076
1539131506562425,5.645838101777599,6.195162890058782,-2.3498893720911838
1539131506578405,2.04470893415737,7.4158846417944915,0.5798428320745188
1539131506594386,0.15259021896690683,7.537956816968062,2.7161058976118966
1539131506610366,0.9460593575952316,7.049668116273779,3.2043945983061803
1539131506626346,2.8992141603723667,6.927595941100208,2.5940337224383256
1539131506642326,4.180971999694748,6.683451590753066,2.166781109330941
1539131506658307,4.180971999694748,5.889982452124741,2.9602502479590385
1539131506674287,3.1433585107195086,4.730296787975931,4.242008087281647
1539131506690267,1.983672846570471,3.875791561760934,4.669260700389032
1539131506706247,1.3733119707026162,3.570611123826893,3.814755474174035
1539131506722228,1.4343480582895154,3.3264667734797513,2.227817196917613
1539131506738208,1.3733119707026162,2.655069810025225,1.2512397955290453
1539131506754188,0.8239871824216607,1.1291676203554744,1.2512397955290453
1539131506770168,0.03051804379333589,-0.9460593575952316,1.739528496223329
1539131506786149,-0.3967345693140487,-2.532997634851654,1.6784924086366573
1539131506802129,-0.45777065690094787,-2.7771419851987957,0.45777065690094787
1539131506818084,-0.09155413138023505,-2.4719615472647547,-0.8850232700083325
1539131506834065,0.15259021896690683,-2.7771419851987957,-1.1902037079423735
1539131506850045,0.3967345693140487,-4.058899824521177,-0.5798428320745188
1539131506866025,0.9460593575952316,-5.584802014190927,-0.03051804379333589
1539131506882005,1.6784924086366573,-5.828946364538069,-0.33569848172737693
1539131506897986,2.3498893720911838,-4.364080262455218,-1.4953841458761872
1539131506913966,2.532997634851654,-2.3498893720911838,-2.288853284504512
1539131506929946,1.6174563210497581,-0.5188067444876197,-1.983672846570471
1539131506945926,0.7019150072480898,0.7629510948347615,-1.4343480582895154
1539131506961907,0.33569848172737693,2.166781109330941,-1.5564202334630863
1539131506977887,0.7629510948347615,3.5095750362402214,-2.288853284504512
1539131506993867,1.6784924086366573,4.42511635004189,-2.7161058976118966
1539131507009847,1.983672846570471,4.486152437628789,-2.04470893415737
1539131507025828,1.2512397955290453,4.180971999694748,-0.6408789196611906
1539131507041808,0.15259021896690683,3.875791561760934,0.5188067444876197
1539131507057788,0.15259021896690683,3.6316472114137923,0.8850232700083325
1539131507073768,1.5564202334630863,2.7161058976118966,0.9460593575952316
1539131507089748,3.1433585107195086,0.7629510948347615,1.739528496223329
1539131507105729,3.4485389486533222,-1.8005645838102282,3.0823224231326094
1539131507121709,2.105745021744042,-3.2654306858930795,3.7537193865873633
1539131507137664,0.45777065690094787,-3.0823224231326094,2.5940337224383256
1539131507153645,-0.03051804379333589,-1.6174563210497581,0.213626306553806
1539131507169625,0.45777065690094787,-0.3967345693140487,-1.9226367589837992
1539131507185605,0.7019150072480898,-0.6408789196611906,-2.3498893720911838
1539131507201585,-0.03051804379333589,-1.739528496223329,-1.6784924086366573
1539131507217566,-0.8850232700083325,-2.410925459678083,-1.5564202334630863
1539131507233546,-1.3733119707026162,-1.9226367589837992,-2.4719615472647547
1539131507249526,-1.2512397955290453,-0.9460593575952316,-3.3875028610666504
1539131507265506,-1.0681315327688026,-0.45777065690094787,-3.2043945983061803
1539131507281487,-1.2512397955290453,-0.5188067444876197,-2.04470893415737
1539131507297467,-1.4953841458761872,-0.9460593575952316,-0.7629510948347615
1539131507313447,-1.0681315327688026,-1.4343480582895154,0.03051804379333589
1539131507329427,0.15259021896690683,-1.9226367589837992,0.45777065690094787
1539131507345408,1.6174563210497581,-2.9602502479590385,1.4953841458761872
1539131507361388,1.9226367589837992,-3.814755474174035,2.8381780727854675
1539131507377368,1.0070954451819034,-3.997863736934505,3.2654306858930795
1539131507393348,-0.09155413138023505,-3.2043945983061803,2.410925459678083
1539131507409329,0.03051804379333589,-1.9226367589837992,0.3967345693140487
1539131507425309,0.8239871824216607,-0.5798428320745188,-1.8616006713969
1539131507441289,1.1902037079423735,0.5798428320745188,-3.814755474174035
1539131507457275,0.5188067444876197,1.3122758831159445,-4.791332875562603
1539131507473255,-0.6408789196611906,1.983672846570471,-4.791332875562603
1539131507489236,-1.0681315327688026,2.288853284504512,-4.180971999694748
1539131507505216,-0.8239871824216607,2.04470893415737,-3.3264667734797513
1539131507521196,-0.2746623941404778,1.0070954451819034,-2.227817196917613
1539131507537176,0.15259021896690683,-0.2746623941404778,-1.0681315327688026
1539131507553156,0.3967345693140487,-1.0070954451819034,-0.213626306553806
1539131507569137,0.33569848172737693,-1.1291676203554744,0.5798428320745188
1539131507585117,0.213626306553806,-1.6174563210497581,1.6784924086366573
1539131507601097,0.09155413138023505,-2.7771419851987957,2.8381780727854675
1539131507617077,0.09155413138023505,-3.936827649347606,3.3264667734797513
1539131507633058,0.213626306553806,-3.875791561760934,2.4719615472647547
1539131507649038,0.15259021896690683,-2.3498893720911838,0.5188067444876197
1539131507665018,-0.15259021896690683,-0.2746623941404778,-1.1902037079423735
1539131507680998,-0.6408789196611906,1.1291676203554744,-1.739528496223329
1539131507696979,-0.8850232700083325,1.5564202334630863,-1.4953841458761872
1539131507712959,-0.7629510948347615,1.2512397955290453,-0.8239871824216607
1539131507728939,-0.45777065690094787,0.7629510948347615,0.09155413138023505
1539131507744919,-0.213626306553806,0.3967345693140487,0.8239871824216607
1539131507760900,-0.213626306553806,0.33569848172737693,1.4343480582895154
1539131507776886,-0.5188067444876197,0.15259021896690683,2.166781109330941
1539131507792866,-0.5188067444876197,-0.2746623941404778,2.7161058976118966
1539131507808846,-0.213626306553806,-0.6408789196611906,3.2043945983061803
1539131507824826,0.15259021896690683,-0.7629510948347615,3.814755474174035
1539131507840807,-0.213626306553806,-0.45777065690094787,4.180971999694748
1539131507856787,-0.6408789196611906,0.3967345693140487,3.7537193865873633
1539131507872767,-0.45777065690094787,1.1291676203554744,3.0823224231326094
1539131507888747,0.15259021896690683,1.1902037079423735,2.8381780727854675
1539131507904728,0.5798428320745188,0.8239871824216607,3.0212863355459376
1539131507920708,0.33569848172737693,0.3967345693140487,3.2654306858930795
1539131507936688,0.5798428320745188,0.15259021896690683,3.3875028610666504
1539131507952668,1.739528496223329,-0.5188067444876197,3.4485389486533222
1539131507968649,2.227817196917613,-1.0681315327688026,3.814755474174035
1539131507984629,1.1291676203554744,-0.5798428320745188,3.814755474174035
1539131508000609,-0.33569848172737693,0.8239871824216607,3.0212863355459376
1539131508016589,-0.09155413138023505,1.3733119707026162,2.410925459678083
1539131508032570,1.3733119707026162,-0.15259021896690683,2.410925459678083
1539131508048550,2.655069810025225,-2.7161058976118966,2.7161058976118966
1539131508064530,2.655069810025225,-4.486152437628789,2.3498893720911838
1539131508080510,1.6174563210497581,-4.303044174868319,0.9460593575952316
1539131508096466,0.33569848172737693,-2.8992141603723667,-1.0070954451819034
1539131508112446,-0.3967345693140487,-1.8616006713969,-2.5940337224383256
1539131508128426,-0.2746623941404778,-2.105745021744042,-3.1433585107195086
1539131508144406,0.213626306553806,-3.0212863355459376,-3.3264667734797513
1539131508160387,0.33569848172737693,-2.8992141603723667,-3.997863736934505
1539131508176367,-0.213626306553806,-1.1291676203554744,-5.157549401083315
1539131508192347,-1.0070954451819034,1.0681315327688026,-5.462729839017356
1539131508208327,-1.4343480582895154,1.6784924086366573,-4.058899824521177
1539131508224308,-0.8850232700083325,0.03051804379333589,-1.2512397955290453
1539131508240288,0.45777065690094787,-2.227817196917613,1.1291676203554744
1539131508256268,1.4953841458761872,-2.7161058976118966,2.227817196917613
1539131508272248,1.3733119707026162,-1.5564202334630863,2.532997634851654
1539131508288229,0.213626306553806,-0.6408789196611906,3.4485389486533222
1539131508304209,-0.8239871824216607,-1.0070954451819034,5.157549401083315
1539131508320189,-1.0681315327688026,-1.9226367589837992,5.95101853971164
1539131508336169,-0.3967345693140487,-2.04470893415737,4.974441138323073
1539131508352150,0.5798428320745188,-0.7019150072480898,2.7771419851987957
1539131508368130,0.8850232700083325,1.1902037079423735,1.1291676203554744
1539131508384110,0.09155413138023505,2.4719615472647547,1.0681315327688026
1539131508400090,-1.1291676203554744,2.8381780727854675,1.8616006713969
1539131508416076,-1.6174563210497581,2.8381780727854675,2.166781109330941
1539131508432057,-0.7629510948347615,2.5940337224383256,2.105745021744042
1539131508448037,0.9460593575952316,1.4953841458761872,2.3498893720911838
1539131508464017,2.04470893415737,-0.09155413138023505,3.0823224231326094
1539131508479997,1.8616006713969,-1.6174563210497581,3.936827649347606
1539131508495978,1.0070954451819034,-2.04470893415737,3.997863736934505
1539131508511958,0.213626306553806,-1.2512397955290453,2.7161058976118966
1539131508527938,0.2746623941404778,-0.3967345693140487,1.0681315327688026
1539131508543918,1.0070954451819034,-0.3967345693140487,0.15259021896690683
1539131508559898,1.2512397955290453,-1.2512397955290453,-0.15259021896690683
1539131508575879,0.8239871824216607,-1.8616006713969,-0.7019150072480898
1539131508591859,0.5188067444876197,-1.6174563210497581,-1.8005645838102282
1539131508607839,0.7019150072480898,-0.8239871824216607,-2.7771419851987957
1539131508623819,0.45777065690094787,-0.03051804379333589,-3.0212863355459376
1539131508639800,-0.3967345693140487,0.213626306553806,-2.655069810025225
1539131508655780,-0.8239871824216607,-0.15259021896690683,-2.105745021744042
1539131508671760,-0.213626306553806,-0.7629510948347615,-1.6784924086366573
1539131508687740,0.8239871824216607,-1.1902037079423735,-1.4953841458761872
1539131508703721,1.2512397955290453,-1.3122758831159445,-1.0681315327688026
1539131508719701,0.8239871824216607,-1.0681315327688026,-0.33569848172737693
1539131508735656,0.3967345693140487,-0.7019150072480898,0.33569848172737693
1539131508751637,0.3967345693140487,-0.6408789196611906,0.8239871824216607
1539131508767617,0.9460593575952316,-0.9460593575952316,1.2512397955290453
1539131508783597,1.4343480582895154,-1.3122758831159445,1.4953841458761872
1539131508799577,1.4343480582895154,-0.8850232700083325,1.4953841458761872
1539131508815558,0.8239871824216607,0.7629510948347615,0.7019150072480898
1539131508831538,0.09155413138023505,3.2043945983061803,-0.5188067444876197
1539131508847518,-0.09155413138023505,5.2185854886702145,-1.5564202334630863
1539131508863498,1.0070954451819034,5.584802014190927,-1.739528496223329
1539131508879479,2.7161058976118966,4.60822461280236,-1.1291676203554744
1539131508895459,3.6316472114137923,3.570611123826893,-0.213626306553806
1539131508911439,2.7771419851987957,3.997863736934505,0.45777065690094787
1539131508927419,1.1902037079423735,4.852368963149502,1.3733119707026162
1539131508943400,0.9460593575952316,4.791332875562603,2.5940337224383256
1539131508959380,2.655069810025225,2.04470893415737,4.242008087281647
1539131508975360,4.730296787975931,-2.7161058976118966,6.073090714885211
1539131508991340,5.462729839017356,-6.927595941100208,6.9886320286868795
1539131509007321,4.119935912108076,-8.697642481116873,6.500343327992596
1539131509023301,1.983672846570471,-7.843137254901876,4.730296787975931
1539131509039281,0.7019150072480898,-6.012054627298312,2.105745021744042
1539131509055267,0.8239871824216607,-4.852368963149502,-0.3967345693140487
1539131509071247,1.6174563210497581,-4.730296787975931,-2.3498893720911838
1539131509087227,1.4343480582895154,-4.42511635004189,-3.2654306858930795
1539131509103208,0.15259021896690683,-3.0823224231326094,-4.180971999694748
1539131509119188,-1.3122758831159445,-0.8239871824216607,-4.9134050507361735
1539131509135168,-1.9226367589837992,1.1291676203554744,-5.096513313496644
1539131509151148,-1.6784924086366573,1.9226367589837992,-4.547188525215461
1539131509167129,-0.5188067444876197,1.8616006713969,-3.4485389486533222
1539131509183109,0.8239871824216607,1.6174563210497581,-2.166781109330941
1539131509199089,1.5564202334630863,1.8005645838102282,-0.8850232700083325
1539131509215069,0.8850232700083325,2.532997634851654,0.45777065690094787
1539131509231050,-0.213626306553806,3.3264667734797513,1.8005645838102282
1539131509247030,-0.5188067444876197,4.242008087281647,2.532997634851654
1539131509263010,0.15259021896690683,4.974441138323073,2.532997634851654
1539131509278990,1.0070954451819034,5.401693751430457,2.227817196917613
1539131509294971,1.1291676203554744,5.584802014190927,2.04470893415737
1539131509310951,0.45777065690094787,5.462729839017356,2.532997634851654
1539131509326931,-0.213626306553806,5.279621576256886,3.0212863355459376
1539131509342911,-0.5188067444876197,5.3406576638437855,2.9602502479590385
1539131509358892,-0.2746623941404778,5.523765926604028,2.288853284504512
1539131509374878,0.15259021896690683,5.706874189364498,1.4343480582895154
1539131509390858,-0.09155413138023505,5.645838101777599,1.1291676203554744
1539131509406838,-0.7019150072480898,4.791332875562603,1.3733119707026162
1539131509422818,-0.8850232700083325,2.8992141603723667,1.5564202334630863
1539131509438799,-0.45777065690094787,1.1902037079423735,1.1902037079423735
1539131509454779,0.33569848172737693,0.8239871824216607,0.33569848172737693
1539131509470759,0.5188067444876197,1.6784924086366573,-0.5798428320745188
1539131509486739,-0.2746623941404778,2.3498893720911838,-0.45777065690094787
1539131509502720,-0.7629510948347615,1.983672846570471,0.15259021896690683
1539131509518700,0.09155413138023505,0.9460593575952316,0.5798428320745188
1539131509534680,1.5564202334630863,0.2746623941404778,0.7629510948347615
1539131509550660,2.105745021744042,0.6408789196611906,0.7629510948347615
1539131509566640,1.4953841458761872,1.4953841458761872,0.9460593575952316
1539131509582621,1.0681315327688026,1.5564202334630863,1.6174563210497581
1539131509598601,1.6784924086366573,0.5798428320745188,2.3498893720911838
1539131509614581,2.7771419851987957,-0.5188067444876197,2.3498893720911838
1539131509630561,2.9602502479590385,-0.5798428320745188,1.6784924086366573
1539131509646542,1.8616006713969,0.7019150072480898,0.2746623941404778
1539131509662522,0.2746623941404778,2.227817196917613,-1.0681315327688026
1539131509678502,-0.213626306553806,2.532997634851654,-1.5564202334630863
1539131509694458,0.2746623941404778,1.1291676203554744,-1.4953841458761872
1539131509710438,1.0681315327688026,-0.3967345693140487,-1.4343480582895154
1539131509726418,1.4953841458761872,-1.2512397955290453,-1.6174563210497581
1539131509742398,1.4343480582895154,-1.3733119707026162,-1.6784924086366573
1539131509758379,1.4953841458761872,-1.4953841458761872,-1.4343480582895154
1539131509774359,1.1902037079423735,-2.5940337224383256,-0.8850232700083325
1539131509790339,0.15259021896690683,-2.655069810025225,-1.1902037079423735
1539131509806319,-0.5798428320745188,-1.3122758831159445,-2.9602502479590385
1539131509822300,-1.2512397955290453,0.33569848172737693,-4.60822461280236
1539131509838280,-1.8005645838102282,0.5188067444876197,-5.096513313496644
1539131509854260,-1.4953841458761872,-0.9460593575952316,-4.60822461280236
1539131509870240,-3.2043945983061803,-1.4343480582895154,-3.997863736934505
1539131509886221,-3.997863736934505,0.03051804379333589,-4.303044174868319
1539131509902201,-4.364080262455218,2.105745021744042,-4.730296787975931
1539131509918181,-4.42511635004189,3.2654306858930795,-3.5095750362402214
1539131509934161,-3.692683299000464,2.105745021744042,-2.04470893415737
1539131509950142,-1.3733119707026162,1.0681315327688026,-0.8850232700083325
1539131509966122,-1.0070954451819034,1.4343480582895154,0.9460593575952316
1539131509982102,-2.4719615472647547,2.227817196917613,2.5940337224383256
1539131509998082,-3.1433585107195086,1.8005645838102282,3.7537193865873633
1539131510014068,-1.983672846570471,0.15259021896690683,5.096513313496644
1539131510030048,-0.33569848172737693,-1.739528496223329,5.401693751430457
1539131510046029,0.5188067444876197,-2.410925459678083,4.669260700389032
1539131510062009,0.6408789196611906,-2.04470893415737,3.4485389486533222
1539131510077989,0.45777065690094787,-1.5564202334630863,2.4719615472647547
1539131510093969,0.213626306553806,-1.4953841458761872,1.739528496223329
1539131510109950,-0.03051804379333589,-1.9226367589837992,1.2512397955290453
1539131510125930,0.15259021896690683,-2.7161058976118966,0.7629510948347615
1539131510141910,1.3733119707026162,-3.875791561760934,-0.213626306553806
1539131510157890,2.4719615472647547,-5.279621576256886,-0.8850232700083325
1539131510173871,2.288853284504512,-6.256198977645454,-1.1902037079423735
1539131510189851,1.3122758831159445,-6.317235065232353,-1.8005645838102282
1539131510205831,-0.3967345693140487,-4.9134050507361735,-2.8992141603723667
1539131510221811,-2.410925459678083,-2.166781109330941,-4.547188525215461
1539131510237792,-3.570611123826893,1.1902037079423735,-5.95101853971164
1539131510253772,-3.936827649347606,3.936827649347606,-6.805523765926637
1539131510269752,-3.6316472114137923,5.401693751430457,-7.049668116273779
1539131510285732,-2.5940337224383256,4.974441138323073,-6.561379415579495
1539131510301713,-0.7019150072480898,3.0823224231326094,-5.401693751430457
1539131510317693,1.0681315327688026,1.0070954451819034,-3.4485389486533222
1539131510333648,1.9226367589837992,0.15259021896690683,-1.4343480582895154
1539131510349629,1.3122758831159445,0.6408789196611906,0.3967345693140487
1539131510365609,0.2746623941404778,1.4343480582895154,1.983672846570471
1539131510381589,0.213626306553806,1.3733119707026162,3.3875028610666504
1539131510397569,0.9460593575952316,0.33569848172737693,4.364080262455218
1539131510413550,1.983672846570471,-0.8239871824216607,4.669260700389032
1539131510429530,2.4719615472647547,-1.0070954451819034,4.119935912108076
1539131510445510,2.04470893415737,-0.2746623941404778,3.0212863355459376
1539131510461490,1.0681315327688026,1.2512397955290453,1.6174563210497581
1539131510477470,0.33569848172737693,2.3498893720911838,0.3967345693140487
1539131510493451,-0.03051804379333589,3.0212863355459376,-0.7019150072480898
1539131510509431,0.33569848172737693,3.2043945983061803,-1.8616006713969
1539131510525411,0.8239871824216607,2.7771419851987957,-2.5940337224383256
1539131510541391,1.1902037079423735,1.6784924086366573,-2.655069810025225
1539131510557372,1.4953841458761872,-0.03051804379333589,-2.3498893720911838
1539131510573352,1.3122758831159445,-1.6174563210497581,-2.288853284504512
1539131510589332,0.7629510948347615,-2.655069810025225,-2.5940337224383256
1539131510605312,0.7019150072480898,-3.3875028610666504,-3.2654306858930795
1539131510621293,1.1902037079423735,-4.119935912108076,-3.692683299000464
1539131510637273,1.3122758831159445,-4.60822461280236,-3.692683299000464
1539131510653259,0.7629510948347615,-4.486152437628789,-3.692683299000464
1539131510669239,-0.03051804379333589,-3.936827649347606,-3.5095750362402214
1539131510685219,-0.3967345693140487,-3.6316472114137923,-3.2654306858930795
1539131510701200,-0.09155413138023505,-3.6316472114137923,-2.7771419851987957
1539131510717180,0.5798428320745188,-3.997863736934505,-2.105745021744042
1539131510733160,1.0070954451819034,-4.180971999694748,-1.6174563210497581
1539131510749140,0.9460593575952316,-4.119935912108076,-1.3733119707026162
1539131510765121,0.7019150072480898,-3.2654306858930795,-1.2512397955290453
1539131510781101,0.213626306553806,-1.9226367589837992,-1.0681315327688026
1539131510797081,-0.09155413138023505,-0.8239871824216607,-0.7019150072480898
1539131510813061,-0.03051804379333589,-0.2746623941404778,-0.45777065690094787
1539131510829042,0.3967345693140487,0.2746623941404778,-0.33569848172737693
1539131510845022,0.7019150072480898,0.9460593575952316,-0.33569848172737693
1539131510861002,0.7019150072480898,1.4343480582895154,0.09155413138023505
1539131510876982,0.8239871824216607,1.2512397955290453,0.7629510948347615
1539131510892963,1.1291676203554744,0.6408789196611906,1.6784924086366573
1539131510908943,1.0681315327688026,0.5188067444876197,1.983672846570471
1539131510924923,0.6408789196611906,1.6784924086366573,1.1291676203554744
1539131510940903,0.2746623941404778,3.3875028610666504,0.09155413138023505
1539131510956884,0.33569848172737693,4.180971999694748,0.09155413138023505
1539131510972869,0.6408789196611906,3.3264667734797513,1.1291676203554744
1539131510988850,0.6408789196611906,1.739528496223329,2.04470893415737
1539131511004830,0.7019150072480898,0.7019150072480898,2.105745021744042
1539131511020810,0.8239871824216607,0.7019150072480898,1.5564202334630863
1539131511036790,0.9460593575952316,1.0070954451819034,1.0681315327688026
1539131511052771,0.8239871824216607,0.7629510948347615,1.1291676203554744
1539131511068751,0.9460593575952316,-0.5188067444876197,1.8005645838102282
1539131511084731,1.1902037079423735,-1.983672846570471,2.04470893415737
1539131511100711,1.3733119707026162,-2.532997634851654,1.5564202334630863
1539131511116692,1.4343480582895154,-2.227817196917613,0.5798428320745188
1539131511132672,1.0070954451819034,-1.6174563210497581,-0.213626306553806
1539131511148652,0.45777065690094787,-1.2512397955290453,-0.5798428320745188
1539131511164632,0.09155413138023505,-1.2512397955290453,-0.8239871824216607
1539131511180613,0.09155413138023505,-1.6174563210497581,-1.1291676203554744
1539131511196593,0.5798428320745188,-1.9226367589837992,-1.4953841458761872
1539131511212573,1.0681315327688026,-1.739528496223329,-1.6174563210497581
1539131511228553,1.1291676203554744,-1.1291676203554744,-1.4953841458761872
1539131511244534,0.3967345693140487,-0.5798428320745188,-0.9460593575952316
1539131511260514,-0.03051804379333589,-0.9460593575952316,0.09155413138023505
1539131511276494,0.3967345693140487,-1.4343480582895154,0.7019150072480898
1539131511292450,0.9460593575952316,-1.0070954451819034,0.3967345693140487
1539131511308430,0.7019150072480898,1.0070954451819034,-0.45777065690094787
1539131511324410,-0.33569848172737693,3.0823224231326094,-1.0681315327688026
1539131511340390,-1.0681315327688026,3.936827649347606,-0.7629510948347615
1539131511356371,-0.45777065690094787,3.2043945983061803,0.09155413138023505
1539131511372351,0.6408789196611906,1.5564202334630863,0.8850232700083325
1539131511388331,1.1902037079423735,-0.03051804379333589,1.739528496223329
1539131511404311,0.5798428320745188,-0.9460593575952316,2.5940337224383256
1539131511420292,-0.6408789196611906,-1.1291676203554744,2.7771419851987957
1539131511436272,-1.0681315327688026,-1.0681315327688026,2.288853284504512
1539131511452252,-0.213626306553806,-1.5564202334630863,1.6174563210497581
1539131511468232,1.0070954451819034,-2.410925459678083,1.1291676203554744
1539131511484213,1.4343480582895154,-2.8381780727854675,0.6408789196611906
1539131511500193,0.7019150072480898,-2.3498893720911838,0.03051804379333589
1539131511516173,0.03051804379333589,-1.9226367589837992,-0.45777065690094787
1539131511532153,0.03051804379333589,-2.227817196917613,-0.7019150072480898
1539131511548133,0.5798428320745188,-2.9602502479590385,-1.2512397955290453
1539131511564114,0.5188067444876197,-2.5940337224383256,-2.288853284504512
1539131511580094,-0.09155413138023505,-1.3122758831159445,-3.3875028610666504
1539131511596074,-0.7019150072480898,-0.7629510948347615,-3.5095750362402214
1539131511612060,-0.6408789196611906,-1.6784924086366573,-2.655069810025225
1539131511628040,0.03051804379333589,-2.8992141603723667,-2.166781109330941
1539131511644021,0.5798428320745188,-2.8381780727854675,-2.7771419851987957
1539131511660001,0.5188067444876197,-1.5564202334630863,-3.6316472114137923
1539131511675981,-0.09155413138023505,-0.3967345693140487,-3.6316472114137923
1539131511691961,-0.7019150072480898,-0.213626306553806,-2.5940337224383256
1539131511707942,-0.6408789196611906,-0.7629510948347615,-1.4953841458761872
1539131511723922,-0.03051804379333589,-1.0070954451819034,-0.8239871824216607
1539131511739902,0.5798428320745188,-0.6408789196611906,-0.5798428320745188
1539131511755882,0.9460593575952316,-0.15259021896690683,0.15259021896690683
1539131511771863,1.0681315327688026,-0.2746623941404778,1.6784924086366573
1539131511787843,0.9460593575952316,-0.8850232700083325,3.3875028610666504
1539131511803823,0.7629510948347615,-1.1902037079423735,3.997863736934505
1539131511819803,0.7629510948347615,-0.45777065690094787,3.692683299000464
1539131511835784,0.7629510948347615,0.5188067444876197,3.3264667734797513
1539131511851764,0.7629510948347615,0.5188067444876197,3.692683299000464
1539131511867744,0.8850232700083325,-0.7019150072480898,4.669260700389032
1539131511883724,1.1291676203554744,-2.04470893415737,4.791332875562603
1539131511899705,1.3122758831159445,-2.105745021744042,3.6316472114137923
1539131511915685,3.2043945983061803,-0.2746623941404778,-0.2746623941404778
1539131511931640,4.242008087281647,2.04470893415737,-4.119935912108076
1539131511947620,3.0823224231326094,4.60822461280236,-6.073090714885211
1539131511963600,-0.6408789196611906,5.828946364538069,-4.42511635004189
1539131511979580,-1.3733119707026162,5.706874189364498,-3.6316472114137923
1539131511995559,-1.4343480582895154,4.364080262455218,-2.655069810025225
1539131512011539,-0.45777065690094787,2.288853284504512,-1.6784924086366573
1539131512027519,0.45777065690094787,-0.2746623941404778,-0.2746623941404778
1539131512043499,-0.09155413138023505,-1.983672846570471,0.9460593575952316
1539131512059478,-1.8005645838102282,-2.7161058976118966,1.8616006713969
1539131512075458,-2.166781109330941,-3.0823224231326094,1.5564202334630863
1539131512091438,-0.15259021896690683,-2.288853284504512,-1.0681315327688026
1539131512107418,1.3122758831159445,-1.9226367589837992,-2.532997634851654
1539131512123397,1.6784924086366573,-2.166781109330941,-2.655069810025225
1539131512139377,1.3733119707026162,-2.532997634851654,-2.410925459678083
1539131512155357,-0.5798428320745188,-2.166781109330941,-1.8616006713969
1539131512171337,-2.288853284504512,-1.1902037079423735,-1.9226367589837992
1539131512187317,-2.410925459678083,-0.8239871824216607,-1.8005645838102282
1539131512203296,-1.3733119707026162,-1.739528496223329,-0.3967345693140487
1539131512219276,-0.15259021896690683,-3.0212863355459376,1.6174563210497581
1539131512235256,0.15259021896690683,-3.814755474174035,4.058899824521177
1539131512251251,0.5188067444876197,-3.997863736934505,5.462729839017356
1539131512267231,0.7019150072480898,-3.4485389486533222,6.256198977645454
1539131512283211,0.8239871824216607,-2.5940337224383256,6.256198977645454
1539131512299192,0.8239871824216607,-1.4343480582895154,5.279621576256886
1539131512315172,0.9460593575952316,-0.15259021896690683,3.570611123826893
1539131512331152,1.0070954451819034,1.1902037079423735,1.6784924086366573
1539131512347132,0.7629510948347615,2.288853284504512,0.213626306553806
1539131512363113,0.33569848172737693,3.4485389486533222,-1.0681315327688026
1539131512379093,-0.09155413138023505,4.303044174868319,-1.983672846570471
1539131512395073,0.09155413138023505,4.119935912108076,-2.227817196917613
1539131512411053,0.5798428320745188,3.1433585107195086,-1.8616006713969
1539131512427034,0.8850232700083325,2.166781109330941,-1.2512397955290453
1539131512443014,0.7629510948347615,1.4343480582895154,-0.2746623941404778
1539131512458994,0.6408789196611906,0.45777065690094787,0.8239871824216607
1539131512474974,0.6408789196611906,-0.7629510948347615,2.04470893415737
1539131512490955,1.1291676203554744,-2.04470893415737,2.8992141603723667
1539131512506935,1.3733119707026162,-3.1433585107195086,3.2654306858930795
1539131512522915,1.0070954451819034,-3.5095750362402214,2.9602502479590385
1539131512538895,0.03051804379333589,-2.5940337224383256,1.6174563210497581
1539131512554875,-1.0070954451819034,-0.8239871824216607,-0.09155413138023505
1539131512570861,-1.4953841458761872,0.09155413138023505,-0.7019150072480898
1539131512586842,-2.04470893415737,-0.09155413138023505,0.03051804379333589
1539131512602822,-2.5940337224383256,-0.5798428320745188,0.5798428320745188
1539131512618802,-2.105745021744042,-1.4953841458761872,0.2746623941404778
1539131512634782,-0.213626306553806,-2.9602502479590385,0.09155413138023505
1539131512650763,1.8005645838102282,-4.303044174868319,0.03051804379333589
1539131512666743,2.4719615472647547,-4.547188525215461,0.03051804379333589
1539131512682723,1.4953841458761872,-3.6316472114137923,0.213626306553806
1539131512698703,-0.15259021896690683,-1.8005645838102282,-0.15259021896690683
1539131512714684,-1.0070954451819034,0.2746623941404778,-1.1902037079423735
1539131512730664,-0.45777065690094787,1.6174563210497581,-2.166781109330941
1539131512746644,0.45777065690094787,1.739528496223329,-2.3498893720911838
1539131512762624,0.7629510948347615,1.5564202334630863,-1.8616006713969
1539131512778605,0.45777065690094787,1.4953841458761872,-1.0070954451819034
1539131512794585,-0.213626306553806,1.6174563210497581,0.09155413138023505
1539131512810565,-0.6408789196611906,1.739528496223329,1.0681315327688026
1539131512826545,-0.213626306553806,1.0681315327688026,1.739528496223329
1539131512842526,1.1291676203554744,-0.5188067444876197,2.5940337224383256
1539131512858506,2.105745021744042,-1.9226367589837992,3.3875028610666504
1539131512874486,1.6784924086366573,-1.739528496223329,3.5095750362402214
1539131512890442,0.2746623941404778,-0.45777065690094787,3.0212863355459376
1539131512906421,-0.45777065690094787,0.6408789196611906,2.410925459678083
1539131512922401,0.213626306553806,0.5798428320745188,1.5564202334630863
1539131512938381,1.739528496223329,-0.6408789196611906,0.15259021896690683
1539131512954361,2.5940337224383256,-1.3733119707026162,-1.4953841458761872
1539131512970340,1.6174563210497581,-1.3733119707026162,-2.166781109330941
1539131512986320,0.6408789196611906,-0.8850232700083325,-2.288853284504512
1539131513002300,-0.33569848172737693,-0.33569848172737693,-1.8616006713969
1539131513018280,-1.6784924086366573,0.03051804379333589,-0.8850232700083325
1539131513034259,-2.288853284504512,0.03051804379333589,-0.213626306553806
1539131513050239,-1.9226367589837992,-0.5798428320745188,0.33569848172737693
1539131513066219,-1.1902037079423735,-1.1291676203554744,0.7629510948347615
1539131513082199,-0.8850232700083325,-2.288853284504512,1.6784924086366573
1539131513098178,-0.5188067444876197,-3.3875028610666504,2.166781109330941
1539131513114158,-0.3967345693140487,-4.42511635004189,2.4719615472647547
1539131513130138,0.2746623941404778,-5.401693751430457,2.166781109330941
1539131513146118,1.2512397955290453,-5.523765926604028,0.9460593575952316
1539131513162098,1.8005645838102282,-4.547188525215461,-0.7629510948347615
1539131513178077,1.9226367589837992,-3.1433585107195086,-2.166781109330941
1539131513194057,1.4953841458761872,-1.5564202334630863,-3.2654306858930795
1539131513210052,0.7019150072480898,-0.03051804379333589,-4.058899824521177
1539131513226032,0.45777065690094787,0.9460593575952316,-4.058899824521177
1539131513242013,0.6408789196611906,1.6174563210497581,-3.7537193865873633
1539131513257993,0.8239871824216607,2.532997634851654,-3.3875028610666504
1539131513273973,0.8850232700083325,2.8992141603723667,-2.7161058976118966
1539131513289953,1.0681315327688026,2.105745021744042,-1.5564202334630863
1539131513305934,1.4953841458761872,0.5798428320745188,-0.3967345693140487
1539131513321914,2.04470893415737,-0.7629510948347615,0.33569848172737693
1539131513337894,2.227817196917613,-1.1291676203554744,0.5188067444876197
1539131513353874,1.8005645838102282,-0.7629510948347615,0.33569848172737693
1539131513369855,1.0681315327688026,-0.15259021896690683,0.09155413138023505
1539131513385835,0.7019150072480898,0.213626306553806,-0.09155413138023505
1539131513401815,1.1902037079423735,-0.45777065690094787,0.2746623941404778
1539131513417795,1.983672846570471,-2.04470893415737,0.7019150072480898
1539131513433776,2.532997634851654,-3.3875028610666504,1.0681315327688026
1539131513449756,2.3498893720911838,-3.7537193865873633,1.2512397955290453
1539131513465736,1.3122758831159445,-3.1433585107195086,1.2512397955290453
1539131513481716,-0.2746623941404778,-2.105745021744042,1.1902037079423735
1539131513497697,-1.0070954451819034,-1.1902037079423735,0.7019150072480898
1539131513513677,-0.45777065690094787,-0.8239871824216607,0.09155413138023505
1539131513529632,0.33569848172737693,-1.0681315327688026,-0.2746623941404778
1539131513545612,0.5798428320745188,-1.4343480582895154,-0.5188067444876197
1539131513561592,0.33569848172737693,-1.3733119707026162,-0.9460593575952316
1539131513577571,0.2746623941404778,-0.8850232700083325,-1.4953841458761872
1539131513593551,-24.26184481574728,-17.853055619134693,9.67421988250544
1539131513609531,6.500343327992596,-0.03051804379333589,22.125581750209676
1539131513625511,-17.54787518120088,2.8992141603723667,-10.284580758373295
1539131513641491,-9.918364232852582,16.815442130159454,-1.0681315327688026
1539131513657470,-24.200808728160382,22.61387045090396,9.063859006637585
1539131513673450,-46.906233310444804,36.346990157930804,-5.828946364538069
1539131513689430,-61.432822156099746,40.070191500724604,-26.947432669565842
1539131513705410,-59.29655909056237,31.097886625467254,-49.10353246356908
1539131513721389,-36.530098420691274,12.176699473563758,-66.37674525062948
1539131513737369,-4.9134050507361735,-15.594720378423744,-71.6868848706797
1539131513753349,23.346303501945386,-44.8310063324941,-63.81322957198449
1539131513769329,40.68055237659246,-67.47539482719162,-44.892042420081
1539131513785308,42.38956282902245,-76.20355535210183,-22.125581750209676
1539131513801288,30.792706187533213,-70.83237964446471,-3.7537193865873633
1539131513817268,13.824673838406852,-57.09925993743809,7.354848554207592
1539131513833248,0.33569848172737693,-40.92469672693983,13.336385137712568
1539131513849243,-2.8381780727854675,-25.36049439230942,15.472648203250174
1539131513865223,1.9226367589837992,-11.871519035629717,15.350576028076603
1539131513881202,9.67421988250544,-0.2746623941404778,15.10643167772946
1539131513897182,15.350576028076603,10.589761196307336,15.045395590142562
1539131513913162,16.937514305333025,21.026932173647538,15.777828641183987
1539131513929142,15.838864728770886,29.816128786144645,17.54787518120088
1539131513945121,13.946746013580423,37.01838712138533,19.684138246738257
1539131513961101,12.848096437018285,42.633707179369594,21.51522087434182
1539131513977081,12.848096437018285,46.60105287251076,22.79697871366443
1539131513993061,13.519493400473038,48.371099412527656,23.95666437781324
1539131514009040,14.129854276340893,48.06591897459339,24.994277866788707
1539131514025020,14.618142977035177,46.11276417181648,25.787747005416804
1539131514041000,15.045395590142562,42.57267109178292,26.276035706111088
1539131514056980,15.411612115663274,37.506675822079615,26.82536049439227
1539131514072960,15.411612115663274,31.52513923857464,27.008468757152514
1539131514088939,14.679179064621849,25.23842221713585,26.459143968871558
1539131514104919,12.4208438239109,19.1348134584573,25.17738612954895
1539131514120899,8.758678568703772,13.275349050125897,23.407339589532285
1539131514136879,4.9134050507361735,7.476920729381163,20.965896086060866
1539131514152858,1.6174563210497581,1.739528496223329,17.60891126878755
1539131514168853,-0.7019150072480898,-4.180971999694748,13.397421225299468
1539131514184833,-2.655069810025225,-9.613183794918768,8.51453421835663
1539131514200813,-4.119935912108076,-14.251926451514464,2.9602502479590385
1539131514216793,-5.76791027695117,-17.48683909361398,-2.7161058976118966
1539131514232772,-7.965209430075447,-18.76859693293659,-7.904173342488775
1539131514248752,-9.796292057679011,-19.317921721217544,-12.359807736324
1539131514264732,-10.89494163424115,-19.9893186846723,-15.594720378423744
1539131514280712,-10.772869459067579,-20.904859998473967,-17.79201953154802
1539131514296692,-9.55214770733187,-21.27107652399468,-19.378957808804444
1539131514312671,-6.622415503166167,-21.69832913710229,-20.477607385366582
1539131514328651,-2.655069810025225,-22.61387045090396,-20.477607385366582
1539131514344631,1.1291676203554744,-23.407339589532285,-19.073777370870403
1539131514360611,3.692683299000464,-22.919050888838,-16.632333867398984
1539131514376590,4.058899824521177,-20.660715648126825,-12.848096437018285
1539131514392570,2.288853284504512,-16.632333867398984,-8.51453421835663
1539131514408550,-0.6408789196611906,-11.444266422522333,-4.242008087281647
1539131514424530,-2.9602502479590385,-6.378271152819025,-0.33569848172737693
1539131514440509,-3.3264667734797513,-1.8005645838102282,2.288853284504512
1539131514456489,-1.8005645838102282,2.7161058976118966,3.2043945983061803
1539131514472469,0.213626306553806,7.17174029144735,3.0823224231326094
1539131514488403,1.8005645838102282,10.955977721828049,3.0823224231326094
1539131514504383,3.0212863355459376,12.909132524605184,4.058899824521177
1539131514520362,3.875791561760934,13.45845731288614,5.584802014190927
1539131514536342,4.42511635004189,13.702601663233281,6.9886320286868795
1539131514552322,4.180971999694748,14.251926451514464,7.537956816968062
1539131514568302,3.692683299000464,14.496070801861606,7.721065079728305
1539131514584282,4.058899824521177,13.824673838406852,7.721065079728305
1539131514600261,4.791332875562603,12.176699473563758,7.782101167315204
1539131514616241,5.2185854886702145,9.918364232852582,7.843137254901876
1539131514632221,4.669260700389032,7.537956816968062,7.843137254901876
1539131514648201,3.7537193865873633,5.279621576256886,7.4158846417944915
1539131514664180,2.8992141603723667,3.2654306858930795,6.256198977645454
1539131514680160,2.410925459678083,1.5564202334630863,4.364080262455218
1539131514696140,1.6784924086366573,0.5798428320745188,2.105745021744042
1539131514712120,0.45777065690094787,0.2746623941404778,-0.2746623941404778
1539131514728099,-0.5798428320745188,-0.15259021896690683,-1.9226367589837992
1539131514744079,-0.8239871824216607,-1.6174563210497581,-2.7161058976118966
1539131514760059,-0.5188067444876197,-3.5095750362402214,-2.7161058976118966
1539131514776039,-0.2746623941404778,-5.096513313496644,-2.3498893720911838
1539131514792019,-0.7629510948347615,-6.195162890058782,-1.8616006713969
1539131514808014,-1.4953841458761872,-6.805523765926637,-1.4343480582895154
1539131514823993,-1.9226367589837992,-7.17174029144735,-1.1291676203554744
1539131514839973,-1.739528496223329,-6.927595941100208,-1.0681315327688026
1539131514855953,-1.3733119707026162,-6.195162890058782,-1.3733119707026162
1539131514871933,-1.0070954451819034,-4.791332875562603,-2.04470893415737
1539131514887912,-0.7019150072480898,-2.7771419851987957,-2.7771419851987957
1539131514903892,-0.45777065690094787,-1.0681315327688026,-3.1433585107195086
1539131514919872,-0.5798428320745188,-0.09155413138023505,-2.655069810025225
1539131514935852,-0.8850232700083325,0.45777065690094787,-1.983672846570471
1539131514951831,-1.0070954451819034,1.0681315327688026,-1.2512397955290453
1539131514967811,-0.45777065690094787,1.8616006713969,-0.6408789196611906
1539131514983791,0.3967345693140487,2.227817196917613,0.15259021896690683
1539131514999771,1.1902037079423735,2.105745021744042,1.0070954451819034
1539131515015751,1.4953841458761872,1.5564202334630863,2.227817196917613
1539131515031730,1.0681315327688026,1.1902037079423735,3.1433585107195086
1539131515047710,0.5188067444876197,1.1291676203554744,3.3875028610666504
1539131515063690,0.5798428320745188,1.4343480582895154,2.7771419851987957
1539131515079670,1.3122758831159445,1.4343480582895154,2.288853284504512
1539131515095649,1.739528496223329,1.0070954451819034,2.166781109330941
1539131515111629,1.4953841458761872,0.6408789196611906,2.105745021744042
1539131515127624,0.8239871824216607,0.6408789196611906,1.6784924086366573
1539131515143604,0.3967345693140487,0.8239871824216607,1.3122758831159445
1539131515159584,0.3967345693140487,0.6408789196611906,1.0070954451819034
1539131515175563,0.5798428320745188,0.03051804379333589,0.9460593575952316
1539131515191543,0.33569848172737693,-0.7629510948347615,0.7019150072480898
1539131515207523,-0.15259021896690683,-1.2512397955290453,0.15259021896690683
1539131515223503,-0.213626306553806,-1.6174563210497581,-0.3967345693140487
1539131515239483,0.213626306553806,-1.983672846570471,-0.8850232700083325
1539131515255462,0.3967345693140487,-1.8616006713969,-1.2512397955290453
1539131515271442,-0.15259021896690683,-1.6174563210497581,-1.3122758831159445
1539131515287422,-0.7019150072480898,-1.6174563210497581,-1.2512397955290453
1539131515303402,-0.5798428320745188,-1.6174563210497581,-1.4953841458761872
1539131515319381,-0.03051804379333589,-1.3122758831159445,-2.04470893415737
1539131515335361,0.33569848172737693,-0.5798428320745188,-2.7771419851987957
1539131515351341,0.15259021896690683,-0.09155413138023505,-2.9602502479590385
1539131515367321,-0.3967345693140487,-0.213626306553806,-2.410925459678083
1539131515383300,-0.7629510948347615,-0.7019150072480898,-1.8616006713969
1539131515399280,-0.7019150072480898,-1.0681315327688026,-1.4953841458761872
1539131515415260,-0.03051804379333589,-1.1902037079423735,-1.5564202334630863
1539131515431240,0.33569848172737693,-1.2512397955290453,-1.3122758831159445
1539131515447204,0.15259021896690683,-0.9460593575952316,-0.6408789196611906
1539131515463184,-0.6408789196611906,-0.45777065690094787,0.09155413138023505
1539131515479164,-1.0681315327688026,-0.5798428320745188,1.1291676203554744
1539131515495144,-0.3967345693140487,-1.3122758831159445,1.8616006713969
1539131515511123,0.7019150072480898,-2.227817196917613,2.288853284504512
1539131515527103,1.2512397955290453,-2.288853284504512,2.166781109330941
1539131515543083,0.9460593575952316,-1.4343480582895154,1.739528496223329
1539131515559063,0.33569848172737693,-0.3967345693140487,1.1902037079423735
1539131515575042,-0.03051804379333589,0.3967345693140487,0.7019150072480898
1539131515591022,-0.03051804379333589,0.8239871824216607,0.3967345693140487
1539131515607002,0.09155413138023505,1.0070954451819034,0.09155413138023505
1539131515622982,0.2746623941404778,0.9460593575952316,-0.15259021896690683
1539131515638961,0.45777065690094787,0.9460593575952316,-0.2746623941404778
1539131515654941,0.45777065690094787,1.1902037079423735,-0.15259021896690683
1539131515670921,0.3967345693140487,1.3122758831159445,0.03051804379333589
1539131515686901,0.33569848172737693,1.1291676203554744,0.45777065690094787
1539131515702880,0.5188067444876197,0.5798428320745188,1.0681315327688026
1539131515718860,0.8239871824216607,-0.213626306553806,1.4343480582895154
1539131515734840,1.0070954451819034,-1.0070954451819034,1.5564202334630863
1539131515750820,1.1291676203554744,-1.4953841458761872,1.5564202334630863
1539131515766815,1.0681315327688026,-1.8005645838102282,1.1902037079423735
1539131515782795,0.9460593575952316,-1.9226367589837992,0.45777065690094787
1539131515798774,0.7019150072480898,-1.6174563210497581,-0.3967345693140487
1539131515814754,0.5188067444876197,-1.1902037079423735,-1.2512397955290453
1539131515830734,0.45777065690094787,-0.9460593575952316,-1.739528496223329
1539131515846714,0.45777065690094787,-1.0681315327688026,-1.6784924086366573
1539131515862693,0.09155413138023505,-0.8850232700083325,-1.6784924086366573
1539131515878673,-0.6408789196611906,-0.2746623941404778,-2.105745021744042
1539131515894653,-0.8239871824216607,0.33569848172737693,-2.655069810025225
1539131515910633,0.09155413138023505,0.7019150072480898,-2.7161058976118966
1539131515926612,0.7019150072480898,0.7019150072480898,-2.105745021744042
1539131515942592,0.09155413138023505,0.6408789196611906,-0.8850232700083325
1539131515958572,-0.8239871824216607,0.5188067444876197,0.33569848172737693
1539131515974552,-0.8239871824216607,0.5798428320745188,0.8850232700083325
1539131515990532,0.15259021896690683,0.8239871824216607,0.8239871824216607
1539131516006511,1.1902037079423735,1.1291676203554744,0.8239871824216607
1539131516022491,1.983672846570471,0.6408789196611906,1.3122758831159445
1539131516038471,2.166781109330941,-1.0070954451819034,2.227817196917613
1539131516054451,2.04470893415737,-2.8381780727854675,2.8992141603723667
1539131516070430,1.6784924086366573,-3.3875028610666504,2.5940337224383256
1539131516086395,1.2512397955290453,-2.410925459678083,1.6174563210497581
1539131516102375,0.5188067444876197,-1.0070954451819034,1.1291676203554744
1539131516118354,-0.5188067444876197,-0.6408789196611906,1.1902037079423735
1539131516134334,-1.4953841458761872,-1.1291676203554744,1.2512397955290453
1539131516150314,-1.4953841458761872,-1.739528496223329,0.5188067444876197
1539131516166294,-0.45777065690094787,-1.6784924086366573,-0.9460593575952316
1539131516182273,0.5798428320745188,-1.2512397955290453,-1.983672846570471
1539131516198253,0.213626306553806,-0.6408789196611906,-2.166781109330941
1539131516214233,-1.4343480582895154,0.09155413138023505,-1.8616006713969
1539131516230213,-2.5940337224383256,0.45777065690094787,-1.739528496223329
1539131516246193,-2.105745021744042,0.6408789196611906,-2.105745021744042
1539131516262172,-0.3967345693140487,0.33569848172737693,-2.410925459678083
1539131516278152,0.6408789196611906,-0.3967345693140487,-2.166781109330941
1539131516294132,1.0070954451819034,-1.3122758831159445,-1.4343480582895154
1539131516310112,1.0070954451819034,-1.8005645838102282,-1.0070954451819034
1539131516326091,0.9460593575952316,-1.5564202334630863,-0.7629510948347615
1539131516342071,0.2746623941404778,-0.6408789196611906,-0.33569848172737693
1539131516358051,-0.6408789196611906,0.2746623941404778,0.2746623941404778
1539131516374031,-1.1291676203554744,0.2746623941404778,1.1902037079423735
1539131516390010,-0.8239871824216607,-0.5188067444876197,2.04470893415737
1539131516406005,-0.33569848172737693,-1.1902037079423735,2.410925459678083
1539131516421985,-0.33569848172737693,-1.0070954451819034,2.288853284504512
1539131516437965,-0.6408789196611906,-0.03051804379333589,1.739528496223329
1539131516453945,-0.5798428320745188,0.3967345693140487,1.739528496223329
1539131516469925,0.09155413138023505,-1.2512397955290453,3.2043945983061803
1539131516485904,0.5188067444876197,-4.242008087281647,4.791332875562603
1539131516501884,0.6408789196611906,-6.378271152819025,4.9134050507361735
1539131516517864,0.33569848172737693,-5.828946364538069,2.8381780727854675
1539131516533844,0.03051804379333589,-3.0823224231326094,-0.5798428320745188
1539131516549823,-1.1291676203554744,-0.03051804379333589,-3.3264667734797513
1539131516565803,-2.655069810025225,1.8005645838102282,-4.669260700389032
1539131516581783,-3.814755474174035,2.166781109330941,-5.401693751430457
1539131516597763,-3.692683299000464,2.288853284504512,-6.683451590753066
1539131516613742,-2.532997634851654,3.0823224231326094,-8.51453421835663
1539131516629722,-1.5564202334630863,3.875791561760934,-9.430075532158298
1539131516645702,-1.1291676203554744,3.2043945983061803,-8.087281605249018
1539131516661682,-0.9460593575952316,0.3967345693140487,-5.157549401083315
1539131516677662,-0.5798428320745188,-3.2654306858930795,-1.8616006713969
1539131516693641,-0.03051804379333589,-5.76791027695117,0.213626306553806
1539131516709621,0.5188067444876197,-6.500343327992596,1.3122758831159445
1539131516725616,0.8239871824216607,-6.256198977645454,1.983672846570471
1539131516741596,0.8850232700083325,-5.523765926604028,2.5940337224383256
1539131516757576,0.7629510948347615,-4.730296787975931,2.7161058976118966
1539131516773555,0.6408789196611906,-3.5095750362402214,2.227817196917613
1539131516789535,0.3967345693140487,-1.6784924086366573,1.3733119707026162
1539131516805515,0.15259021896690683,0.3967345693140487,0.7019150072480898
1539131516821495,-0.33569848172737693,1.9226367589837992,1.1902037079423735
1539131516837474,-0.9460593575952316,2.3498893720911838,2.3498893720911838
1539131516853454,-1.4953841458761872,1.8616006713969,3.5095750362402214
1539131516869434,-1.3122758831159445,1.3122758831159445,3.814755474174035
1539131516885414,-0.2746623941404778,1.2512397955290453,3.0823224231326094
1539131516901394,0.6408789196611906,1.4343480582895154,2.3498893720911838
1539131516917373,0.8850232700083325,0.9460593575952316,2.4719615472647547
1539131516933353,0.5188067444876197,-0.2746623941404778,3.2654306858930795
1539131516949333,0.2746623941404778,-1.3733119707026162,3.570611123826893
1539131516965313,0.2746623941404778,-1.4343480582895154,2.532997634851654
1539131516981292,0.7019150072480898,-0.5188067444876197,0.8239871824216607
1539131516997272,0.8239871824216607,0.213626306553806,-0.45777065690094787
1539131517013252,0.8239871824216607,-0.33569848172737693,-0.5798428320745188
1539131517029232,0.6408789196611906,-1.6784924086366573,-0.5188067444876197
1539131517045196,0.6408789196611906,-2.166781109330941,-1.3733119707026162
1539131517061176,0.7019150072480898,-1.1291676203554744,-2.9602502479590385
1539131517077156,0.3967345693140487,0.33569848172737693,-3.6316472114137923
1539131517093135,-0.45777065690094787,0.45777065690094787,-2.655069810025225
1539131517109115,-1.4953841458761872,-1.0681315327688026,-0.8850232700083325
1539131517125095,-1.8005645838102282,-3.0823224231326094,-0.09155413138023505
1539131517141075,-1.1902037079423735,-4.242008087281647,-0.7629510948347615
1539131517157055,0.03051804379333589,-4.364080262455218,-2.04470893415737
1539131517173034,0.45777065690094787,-3.936827649347606,-2.655069810025225
1539131517189014,-0.15259021896690683,-3.3875028610666504,-2.04470893415737
1539131517204994,-1.1291676203554744,-2.8992141603723667,-1.0681315327688026
1539131517220974,-1.3733119707026162,-2.7161058976118966,-0.3967345693140487
1539131517236953,-0.09155413138023505,-3.2043945983061803,-0.213626306553806
1539131517252933,1.6174563210497581,-3.3875028610666504,-0.213626306553806
1539131517268913,1.9226367589837992,-2.410925459678083,-0.3967345693140487
1539131517284893,0.7019150072480898,-0.3967345693140487,-0.5798428320745188
1539131517300872,-1.0070954451819034,1.6174563210497581,-0.5798428320745188
1539131517316852,-1.5564202334630863,2.7161058976118966,-0.5798428320745188
1539131517332832,-0.6408789196611906,2.532997634851654,-0.5188067444876197
1539131517348812,0.8239871824216607,1.8616006713969,-0.213626306553806
1539131517364807,1.8005645838102282,1.3122758831159445,0.3967345693140487
1539131517380787,1.8616006713969,1.0681315327688026,1.3733119707026162
1539131517396766,1.4953841458761872,0.8239871824216607,2.4719615472647547
1539131517412746,1.1291676203554744,0.5188067444876197,3.3264667734797513
1539131517428726,1.3122758831159445,0.03051804379333589,3.5095750362402214
1539131517444706,1.983672846570471,-0.3967345693140487,3.1433585107195086
1539131517460685,2.655069810025225,-0.5188067444876197,2.4719615472647547
1539131517476665,2.7771419851987957,-0.45777065690094787,1.983672846570471
1539131517492645,2.3498893720911838,-0.15259021896690683,1.8005645838102282
1539131517508625,1.8616006713969,0.45777065690094787,1.5564202334630863
1539131517524604,1.4953841458761872,1.0681315327688026,1.0070954451819034
1539131517540584,1.3733119707026162,1.1902037079423735,0.5188067444876197
1539131517556564,1.4953841458761872,0.8850232700083325,-0.213626306553806
1539131517572544,1.6174563210497581,0.7019150072480898,-0.8239871824216607
1539131517588523,1.6784924086366573,0.5798428320745188,-1.1902037079423735
1539131517604503,1.2512397955290453,0.5798428320745188,-1.1902037079423735
1539131517620483,0.45777065690094787,0.3967345693140487,-1.1291676203554744
1539131517636463,0.213626306553806,0.33569848172737693,-1.3122758831159445
1539131517652443,0.8239871824216607,0.45777065690094787,-1.6784924086366573
1539131517668422,1.6174563210497581,0.6408789196611906,-1.8616006713969
1539131517684387,1.6174563210497581,0.7629510948347615,-1.1902037079423735
1539131517700367,0.7019150072480898,0.3967345693140487,0.33569848172737693
