Timestamp (microseconds),Accel X (g),Accel Y (g),Accel Z (g)
1539731780139984,0.9562523842221715,0.04254215304798947,-0.19378957808804476
1539731780155985,0.948439765011063,0.06952010376134865,-0.1745021744106201
1539731780171987,0.9521019302662701,0.1146868085755699,-0.13189898527504385
1539731780187989,0.964919508659495,0.13409628442816857,-0.11114671549553679
1539731780203991,0.9701686121919586,0.11944762340733917,-0.12921339742122528
1539731780219992,0.9782253757534143,0.09076066224155,-0.15411612115663376
1539731780235994,0.9844510566872664,0.08404669260700359,-0.17608911268787653
1539731780251996,0.9774929427023729,0.08709849698634287,-0.1745021744106201
1539731780267997,0.9671168078126193,0.07672236209658934,-0.14532692454413665
1539731780283999,0.9562523842221715,0.09637598229953426,-0.1464255741206988
1539731780300001,0.9661402304112308,0.12420843823910843,-0.15423819333180733
1539731780316002,0.9848172732127871,0.12103456168459559,-0.12323186083772031
1539731780332004,0.97602807660029,0.11126878767070991,-0.10894941634241251
1539731780348006,0.97261005569543,0.09613183794918712,-0.12005798428320746
1539731780364008,0.97602807660029,0.06317235065232296,-0.13018997482261385
1539731780380009,0.9873807888914321,0.059632257572289404,-0.13983367666132596
1539731780396011,0.9826199740596628,0.07086289768825793,-0.14325169756618594
1539731780412013,0.9804226749065386,0.07000839246204293,-0.11969176775768675
1539731780428014,0.9784695201037614,0.07110704203860507,-0.11187914854657821
1539731780444016,0.9765163653009843,0.06561379415579438,-0.12005798428320746
1539731780460022,0.9923857480735485,0.0672007324330508,-0.12396429388876173
1539731780476023,0.9710231174181736,0.06500343327992653,-0.13690394445716025
1539731780492025,0.9763942931258107,0.07452506294346506,-0.11297779812314035
1539731780508027,0.9940947585259785,0.07745479514763076,-0.09796292057679112
1539731780524028,0.9973907072556649,0.06768902113374509,-0.10284580758373396
1539731780540030,0.9878690775921264,0.06073090714885154,-0.13055619134813456
1539731780556032,0.98286411841001,0.05902189669642155,-0.13604943923094526
1539731780572034,0.9792019531548029,0.06561379415579438,-0.12310978866254674
1539731780588035,0.9812771801327536,0.08392462043183002,-0.11554131380178534
1539731780604037,0.985427634088655,0.08477912565804502,-0.1144426642252232
1539731780620039,0.9903105210955978,0.06756694895857152,-0.1266498817425803
1539731780636040,0.9892118715190357,0.05035477225909801,-0.14447241931792165
1539731780652042,0.9843289845120928,0.04864576180666802,-0.16205081254291587
1539731780668044,0.9721217669947357,0.06366063935301725,-0.16119630731670087
1539731780684045,0.9582055390249486,0.07989623865110218,-0.14581521324483093
1539731780700047,0.9506370641641873,0.09405661097123641,-0.1275043869687953
1539731780716049,0.9521019302662701,0.09271381704432713,-0.13226520180056456
1539731780732051,0.9525902189669644,0.08868543526359929,-0.1480125123979552
1539731780748052,0.9562523842221715,0.07061875333791079,-0.15790035858701446
1539731780764054,0.9486839093614101,0.062317845426107965,-0.16180666819256873
1539731780780059,0.945021744106203,0.06146334019989297,-0.16290531776913086
1539731780796061,0.9550316624704358,0.06915388723582794,-0.162294956893263
1539731780812063,0.97261005569543,0.08368047608148288,-0.15753414206149374
1539731780828065,0.9901884489204242,0.08722056916151644,-0.15655756466010518
1539731780844066,1.0056916151674677,0.07672236209658934,-0.16461432822156086
1539731780860068,1.0097199969481956,0.07122911421377864,-0.18756389715419264
1539731780876070,0.9944609750514992,0.07086289768825793,-0.1928130006866562
1539731780892071,0.9868925001907378,0.07696650644693648,-0.17816433966582723
1539731780908073,0.9801785305561914,0.08868543526359929,-0.17389181353475225
1539731780924075,0.9770046540016786,0.1004043640802621,-0.1832913710231172
1539731780940076,0.9712672617685207,0.10394445716029566,-0.1876859693293662
1539731780956078,0.9607690547035936,0.10321202410925423,-0.18280308232242293
1539731780972080,0.9547875181200887,0.09967193102922067,-0.1817044327458608
1539731780988082,0.9483176928358894,0.09796292057679068,-0.18829633020523406
1539731781004083,0.938185702296483,0.10809491111619707,-0.19928282597085545
1539731781020085,0.933058670939193,0.11883726253147131,-0.1948882276646069
1539731781036087,0.9394064240482187,0.1117570763714042,-0.18060578316929865
1539731781052088,0.9580834668497751,0.11041428244449492,-0.17425803006027296
1539731781068090,0.9790798809796293,0.11773861295490917,-0.17169451438162797
1539731781084092,1.0011749446860456,0.11529716945143775,-0.16717784390020585
1539731781100158,1.0114290074006256,0.10162508583199781,-0.17694361791409152
1539731781116160,1.0060578316929885,0.09234760051880642,-0.1940337224383919
1539731781132162,0.9926298924238957,0.08880750743877286,-0.18805218585488692
1539731781148163,0.9767605096513314,0.09295796139467427,-0.17267109178301654
1539731781164165,0.9622339208056765,0.1091935606927592,-0.15912108033875016
1539731781180167,0.9508812085145344,0.11395437552452847,-0.1450827801937895
1539731781196169,0.9380636301213094,0.10601968413824636,-0.14605935759517807
1539731781212170,0.9335469596398873,0.09881742580300568,-0.1535057602807659
1539731781228172,0.9406271457999544,0.09735255970092282,-0.15252918287937733
1539731781244174,0.9503929198138401,0.08966201266498786,-0.14312962539101237
1539731781260175,0.9622339208056765,0.08856336308842572,-0.13824673838406953
1539731781276177,0.9813992523079271,0.088197146562905,-0.14068818188754095
1539731781292179,0.9934843976501107,0.07733272297245719,-0.15118638895246805
1539731781308180,0.9944609750514992,0.07330434119172935,-0.15484855420767518
1539731781324182,0.9821316853589686,0.07208361943999364,-0.15301747158007162
1539731781340184,0.9727321278706036,0.07550164034485363,-0.1526512550545509
1539731781356186,0.9665064469367515,0.09246967269397999,-0.15387197680628661
1539731781372187,0.9621118486305029,0.10846112764171778,-0.1535057602807659
1539731781388189,0.9711451895933472,0.10687418936446136,-0.15619134813458446
1539731781404191,0.9694361791409172,0.08075074387731718,-0.17132829785610726
1539731781420318,0.9679713130388343,0.053406576638437286,-0.19037155718318477
1539731781436320,0.9633325703822386,0.031067368581673804,-0.20062561989776473
1539731781452323,0.9656519417105365,0.028503852903028815,-0.21319905394064254
1539731781468325,0.9710231174181736,0.053284504463263715,-0.21808194094758537
1539731781484327,0.9695582513160907,0.09271381704432713,-0.20770580605783184
1539731781500329,0.9711451895933472,0.12701609826810145,-0.18573281452658863
1539731781516331,0.9793240253299764,0.16791027695124772,-0.16803234912642084
1539731781532333,0.9702906843671322,0.18402380407415908,-0.16131837949187444
1539731781548336,0.9503929198138401,0.17706569008926554,-0.1703517204547187
1539731781564338,0.9440451667048144,0.14935530632486493,-0.17486839093614082
1539731781580340,0.948439765011063,0.11566338597695847,-0.18316929884794364
1539731781596342,0.9590600442511636,0.09185931181811213,-0.1952544441901276
1539731781612344,0.9628442816815443,0.07818722819867219,-0.20025940337224402
1539731781628347,0.9647974364843215,0.07745479514763076,-0.18646524757763006
1539731781644349,0.9840848401617457,0.10199130235751852,-0.17816433966582723
1539731781660351,0.9917753871976807,0.1117570763714042,-0.18341344319829078
1539731781676353,0.9879911497673,0.0974746318760964,-0.17376974135957868
1539731781692355,0.9733424887464714,0.08599984740978073,-0.17132829785610726
1539731781708357,0.9571068894483865,0.09430075532158355,-0.16961928740367727
1539731781724360,0.9626001373311972,0.1109025711451892,-0.16681162737468513
1539731781740417,0.9607690547035936,0.11969176775768631,-0.15387197680628661
1539731781756420,0.9721217669947357,0.09088273441672357,-0.16217288471808944
1539731781772422,0.9938506141756314,0.07916380560006075,-0.1841458762493322
1539731781788425,0.9849393453879607,0.07147325856412579,-0.1837796597238115
1539731781804428,0.9656519417105365,0.09723048752574925,-0.12469672693980316
1539731781820430,0.9816433966582743,0.10577553978789922,-0.09784084840161755
1539731781836433,0.9920195315480278,0.10028229190508853,-0.1165178912031739
1539731781852436,0.9821316853589686,0.08270389868009431,-0.1627832455939573
1539731781868438,0.9612573434042879,0.06768902113374509,-0.15948729686427088
1539731781884441,0.9655298695353629,0.06158541237506654,-0.1392233157854581
1539731781900444,0.9591821164263372,0.09222552834363285,-0.13580529488059812
1539731781916446,0.9572289616235601,0.09918364232852639,-0.12933546959639886
1539731781932449,0.9556420233463037,0.0794079499504079,-0.12079041733424889
1539731781948452,0.9615014877546351,0.07953002212558147,-0.13116655222400242
1539731781964454,0.9868925001907378,0.09344625009536855,-0.14081025406271452
1539731781980457,1.0006866559853513,0.10284580758373352,-0.13238727397573813
1539731781996460,1.0012970168612192,0.0945448996719307,-0.13897917143511096
1539731782012462,1.0076447699702449,0.0814831769283586,-0.15069810025177377
1539731782028465,0.9923857480735485,0.07074082551308436,-0.1572899977111466
1539731782044468,0.9844510566872664,0.0575570305943387,-0.15033188372625306
1539731782060577,0.9761501487754636,0.06646829938200938,-0.13324177920195313
1539731782076580,0.9712672617685207,0.07586785687037434,-0.13470664530403598
1539731782092583,0.9665064469367515,0.06671244373235652,-0.13324177920195313
1539731782108586,0.9595483329518579,0.04888990615701516,-0.1316548409246967
1539731782124590,0.9606469825284201,0.054383154039825854,-0.13897917143511096
1539731782140593,0.9673609521629665,0.06207370107576082,-0.13934538796063167
1539731782156596,0.978591592278935,0.08282597085526788,-0.1366598001068131
1539731782172599,0.9861600671396964,0.09686427100022854,-0.13226520180056456
1539731782188602,0.9838406958113985,0.08636606393530144,-0.13006790264744028
1539731782204605,0.9759060044251164,0.05902189669642155,-0.12945754177157243
1539731782220608,0.9766384374761579,0.04888990615701516,-0.1375143053330281
1539731782236611,0.9812771801327536,0.058533607995727266,-0.14105439841306167
1539731782252615,0.980300602731365,0.062439917601281536,-0.1380025940337224
1539731782268618,0.9813992523079271,0.07049668116273722,-0.13641565575646597
1539731782284621,0.9805447470817121,0.0718394750896465,-0.13946746013580524
1539731782300624,0.9748073548485543,0.06036469062333083,-0.13995574883649953
1539731782316627,0.9672388799877929,0.05218585488670158,-0.14483863584344236
1539731782332630,0.9728542000457772,0.05999847409781012,-0.15033188372625306
1539731782348633,0.96406500343328,0.06036469062333083,-0.14825665674830235
1539731782364637,0.9619897764553293,0.05926604104676869,-0.14105439841306167
1539731782380767,0.9688258182650493,0.06707866025787723,-0.13849088273441668
1539731782396771,0.96919203479057,0.06842145418478651,-0.13568322270542454
1539731782412775,0.9741969939726864,0.061097123674372256,-0.13702601663233382
1539731782428778,0.9893339436942092,0.06378271152819082,-0.1438620584420538
1539731782444782,0.9918974593728542,0.06353856717784367,-0.14325169756618594
1539731782460785,0.98970016021973,0.06573586633096795,-0.1426413366903181
1539731782476789,0.9833524071107043,0.07440299076829149,-0.14740215152208735
1539731782492793,0.9796902418554971,0.06939803158617508,-0.14776836804760807
1539731782508796,0.97602807660029,0.062195773250934394,-0.14203097581445023
1539731782524800,0.9798123140306707,0.0634164950026701,-0.15252918287937733
1539731782540804,0.9776150148775464,0.06182955672541368,-0.1509422446021209
1539731782556807,0.9804226749065386,0.05474937056534657,-0.1471580071717402
1539731782572811,0.9746852826733807,0.06146334019989297,-0.1488670176241702
1539731782588814,0.9732204165712979,0.07537956816968006,-0.1476462958724345
1539731782604818,0.9730983443961243,0.07403677424277078,-0.1412985427634088
1539731782620822,0.9690699626153965,0.07196154726482007,-0.1467917906462195
1539731782636825,0.9710231174181736,0.06390478370336439,-0.1522850385290302
1539731782652829,0.971755550469215,0.06182955672541368,-0.14813458457312878
1539731782668832,0.9735866330968186,0.07281605249103507,-0.1485008010986495
1539731782684836,0.9759060044251164,0.08282597085526788,-0.15155260547798877
1539731782700927,0.9727321278706036,0.07586785687037434,-0.1488670176241702
1539731782716931,0.973464560921645,0.06610208285648866,-0.14874494544899663
1539731782732936,0.9732204165712979,0.07074082551308436,-0.15216296635385662
1539731782748940,0.9750514991989014,0.0718394750896465,-0.15240711070420376
1539731782764944,0.97773708705272,0.07672236209658934,-0.14789044022278164
1539731782780948,0.980300602731365,0.08465705348287145,-0.15045395590142663
1539731782796952,0.9822537575341421,0.08245975432974717,-0.15045395590142663
1539731782812956,0.9833524071107043,0.07379262989242363,-0.15167467765316234
1539731782828960,0.980300602731365,0.07830930037384576,-0.1517967498283359
1539731782844964,0.9824979018844893,0.07415884641794435,-0.14862287327382306
1539731782860968,0.9822537575341421,0.07147325856412579,-0.1426413366903181
1539731782876972,0.9805447470817121,0.08502327000839216,-0.14117647058823524
1539731782892976,0.976882581826505,0.08599984740978073,-0.14288548104066523
1539731782908980,0.9722438391699093,0.0680552376592658,-0.13702601663233382
1539731782924985,0.96919203479057,0.06463721675440581,-0.1430075532158388
1539731782940989,0.96406500343328,0.07452506294346506,-0.14532692454413665
1539731782956993,0.9521019302662701,0.08966201266498786,-0.12933546959639886
1539731782972997,0.9634546425574122,0.10748455024032921,-0.12457465476462959
1539731782989001,0.9733424887464714,0.11261158159761919,-0.12726024261844815
1539731783005005,0.985427634088655,0.09527733272297212,-0.1493553063248645
1539731783021057,0.9804226749065386,0.08892957961394643,-0.17267109178301654
1539731783037061,0.9822537575341421,0.08807507438773143,-0.1820706492713815
1539731783053065,0.9730983443961243,0.08953994048981428,-0.17315938048371082
1539731783069069,0.9607690547035936,0.09625391012436069,-0.16644541084916442
1539731783085073,0.9563744563973451,0.10980392156862706,-0.1627832455939573
1539731783101077,0.9623559929808501,0.11639581902799989,-0.15619134813458446
1539731783117081,0.9746852826733807,0.11920347905699202,-0.1636377508201723
1539731783133085,0.9688258182650493,0.1088273441672385,-0.17352559700923154
1539731783149089,0.9636987869077593,0.0995498588540471,-0.17132829785610726
1539731783165094,0.9562523842221715,0.10357824063477494,-0.1652246890974287
1539731783181098,0.9547875181200887,0.12066834515907487,-0.16290531776913086
1539731783197102,0.9599145494773786,0.12872510872053144,-0.15655756466010518
1539731783213106,0.9590600442511636,0.1267719539177543,-0.1517967498283359
1539731783229110,0.9757839322499429,0.1289692530708786,-0.16083009079118016
1539731783245114,0.9730983443961243,0.12823682001983716,-0.17132829785610726
1539731783261118,0.9693141069657436,0.12408636606393486,-0.1636377508201723
1539731783277122,0.9638208590829329,0.11956969558251274,-0.14483863584344236
1539731783293126,0.9647974364843215,0.12823682001983716,-0.13995574883649953
1539731783309130,0.9756618600747693,0.13263141832608571,-0.14825665674830235
1539731783325134,0.973464560921645,0.11810482948042988,-0.1517967498283359
1539731783341186,0.97431906614786,0.10589761196307279,-0.1560692759594109
1539731783357191,0.9773708705271993,0.12372014953841415,-0.1602197299153123
1539731783373195,0.9782253757534143,0.12103456168459559,-0.14410620279240094
1539731783389200,0.9774929427023729,0.11163500419623062,-0.13360799572747384
1539731783405204,0.9762722209506371,0.11493095292591704,-0.15374990463111304
1539731783421209,0.9716334782940415,0.10809491111619707,-0.1589990081635766
1539731783437214,0.964919508659495,0.10431067368581637,-0.14923323414969092
1539731783453218,0.9665064469367515,0.11993591210803345,-0.14435034714274808
1539731783469223,0.9682154573891815,0.12396429388876129,-0.14947737850003806
1539731783485227,0.9661402304112308,0.1184710460059506,-0.14532692454413665
1539731783501232,0.9730983443961243,0.11322194247348705,-0.15399404898146019
1539731783517236,0.9663843747615779,0.11078049897001563,-0.16876478217746227
1539731783533241,0.9612573434042879,0.10724040588998207,-0.16119630731670087
1539731783549245,0.9682154573891815,0.11139085984588348,-0.15423819333180733
1539731783565250,0.96748302433814,0.12201113908598415,-0.15973144121461802
1539731783581255,0.9690699626153965,0.12274357213702558,-0.1602197299153123
1539731783597259,0.9660181582360572,0.11480888075074347,-0.1560692759594109
1539731783613264,0.9668726634622722,0.11126878767070991,-0.16205081254291587
1539731783629268,0.9630884260318915,0.12018005645838059,-0.16620126649881728
1539731783645273,0.9694361791409172,0.12005798428320702,-0.16461432822156086
1539731783661346,0.9644312199588008,0.12237735561150487,-0.16180666819256873
1539731783677351,0.9618677042801558,0.12945754177157287,-0.16839856565194156
1539731783693355,0.9616235599298086,0.12860303654535787,-0.1627832455939573
1539731783709360,0.9627222095063708,0.12408636606393486,-0.16583504997329657
1539731783725364,0.9461203936827651,0.12970168612192,-0.16583504997329657
1539731783741369,0.9496604867627987,0.1264057373922336,-0.16681162737468513
1539731783757373,0.9591821164263372,0.12457465476462914,-0.16852063782711513
1539731783773378,0.9728542000457772,0.12030212863355416,-0.18243686579690221
1539731783789383,0.978591592278935,0.12335393301289344,-0.18731975280384505
1539731783805387,0.9793240253299764,0.12689402609292788,-0.18756389715419264
1539731783821392,0.9796902418554971,0.13470664530403642,-0.17633325703822367
1539731783837396,0.9789578088044557,0.14520485236896352,-0.17889677271686866
1539731783853401,0.9748073548485543,0.15472648203250206,-0.17584496833752938
1539731783869405,0.9724879835202564,0.16107423514152774,-0.17474631876096725
1539731783885410,0.9702906843671322,0.1558251316090642,-0.1669336995498587
1539731783901414,0.9652857251850158,0.1515526054779892,-0.17132829785610726
1539731783917419,0.955275806820783,0.14081025406271497,-0.16766613260090013
1539731783933424,0.9561303120469979,0.14142061493858282,-0.15973144121461802
1539731783949428,0.9562523842221715,0.15216296635385707,-0.15826657511253517
1539731783965433,0.9555199511711301,0.16009765774013918,-0.15619134813458446
1539731783981475,0.9593041886015108,0.15521477073319634,-0.1467917906462195
1539731783997480,0.9636987869077593,0.14972152285038565,-0.15033188372625306
1539731784013485,0.9628442816815443,0.1372701609826814,-0.1576562142366673
1539731784029489,0.9591821164263372,0.1369039444571607,-0.15411612115663376
1539731784045494,0.9679713130388343,0.132265201800565,-0.15326161593041876
1539731784061498,0.9641870756084536,0.1410543984130621,-0.14996566720073234
1539731784077503,0.9695582513160907,0.14251926451514496,-0.14947737850003806
1539731784093507,0.9671168078126193,0.13836881055924355,-0.14532692454413665
1539731784109512,0.9667505912870986,0.13910124361028497,-0.1509422446021209
1539731784125517,0.9665064469367515,0.14386205844205424,-0.1514305333028152
1539731784141521,0.9705348287174793,0.14215304798962425,-0.14776836804760807
1539731784157526,0.9827420462348364,0.14129854276340925,-0.15619134813458446
1539731784173530,0.9823758297093157,0.14715800717174066,-0.166567483024338
1539731784189535,0.9699244678416115,0.14801251239795565,-0.1560692759594109
1539731784205539,0.9687037460898758,0.14679179064621994,-0.15545891508354304
1539731784221544,0.9557640955214772,0.15313954375524563,-0.16437018387121372
1539731784237548,0.9494163424124515,0.14605935759517852,-0.1732814526588844
1539731784253553,0.9472190432593273,0.14129854276340925,-0.17730983443961224
1539731784269558,0.9434348058289466,0.15094224460212136,-0.18451209277485292
1539731784285562,0.9466086823834594,0.1532616159304192,-0.1846341649500265
1539731784301635,0.9491721980621044,0.14898908979934422,-0.18609903105210934
1539731784317640,0.9479514763103687,0.13995574883649997,-0.18780804150453978
1539731784333645,0.9529564354924851,0.13665980010681356,-0.19879453727016116
1539731784349650,0.9564965285725187,0.13299763485160643,-0.20270084687571543
1539731784365656,0.9566186007476922,0.1381246662088964,-0.19830624856946688
1539731784381661,0.9626001373311972,0.14557106889448423,-0.18878461890592835
1539731784397666,0.9695582513160907,0.14813458457312922,-0.19049362935835834
1539731784413671,0.9718776226443886,0.14496070801861638,-0.1948882276646069
1539731784429676,0.9713893339436943,0.13702601663233427,-0.20648508430609613
1539731784445681,0.9661402304112308,0.12982375829709358,-0.20990310521095612
1539731784461686,0.9699244678416115,0.1281147478446636,-0.20563057907988114
1539731784477691,0.9634546425574122,0.14142061493858282,-0.19830624856946688
1539731784493696,0.9591821164263372,0.14496070801861638,-0.19134813458457334
1539731784509701,0.9583276112001222,0.14813458457312922,-0.18988326848249049
1539731784525706,0.9607690547035936,0.14422827496757495,-0.19256885633630905
1539731784541711,0.9594262607766844,0.135683222705425,-0.1931792172121769
1539731784557716,0.9503929198138401,0.132265201800565,-0.1902494850080112
1539731784573721,0.9502708476386665,0.13495078965438356,-0.18439002059967935
1539731784589726,0.9536888685435265,0.13958953231097926,-0.18255893797207579
1539731784605731,0.9602807660028994,0.14251926451514496,-0.1832913710231172
1539731784621795,0.9710231174181736,0.1410543984130621,-0.1817044327458608
1539731784637800,0.968337529564355,0.13092240787365572,-0.1902494850080112
1539731784653805,0.9608911268787672,0.12445258258945557,-0.19012741283283763
1539731784669810,0.9623559929808501,0.12909132524605216,-0.18536659800106792
1539731784685815,0.9560082398718244,0.13458457312886285,-0.18109407186999293
1539731784701820,0.9451438162813766,0.1369039444571607,-0.17987335011825722
1539731784717826,0.9342793926909287,0.1372701609826814,-0.1727931639581901
1539731784733831,0.9273212787060352,0.1398336766613264,-0.16351567864499872
1539731784749836,0.9384298466468302,0.15228503852903064,-0.15790035858701446
1539731784765841,0.9618677042801558,0.16949721522850414,-0.16009765774013873
1539731784781846,0.9877470054169528,0.16620126649881772,-0.16888685435263584
1539731784797851,1.0058136873426413,0.14850080109864994,-0.18878461890592835
1539731784813856,1.0037384603646906,0.1310444800488293,-0.20990310521095612
1539731784829861,0.9894560158693828,0.11859311818112417,-0.21783779659723823
1539731784845866,0.9704127565423057,0.12628366521706003,-0.20099183642328544
1539731784861871,0.9572289616235601,0.1427634088654921,-0.1841458762493322
1539731784877876,0.9440451667048144,0.15680170901045276,-0.17389181353475225
1539731784893881,0.9412375066758223,0.1520408941786835,-0.17438010223544653
1539731784909886,0.9408712901503016,0.1386129549095907,-0.18109407186999293
1539731784925891,0.9480735484855423,0.132265201800565,-0.1973296711680783
1539731784941955,0.9546654459449151,0.12603952086671288,-0.20672922865644328
1539731784957961,0.9629663538567179,0.12359807736324058,-0.2024567025253683
1539731784973966,0.9651636530098422,0.12970168612192,-0.19476615548943332
1539731784989972,0.9619897764553293,0.13373006790264785,-0.18231479362172864
1539731785005977,0.9624780651560236,0.14251926451514496,-0.17987335011825722
1539731785021983,0.9600366216525522,0.1448386358434428,-0.1837796597238115
1539731785037988,0.9593041886015108,0.13617151140611927,-0.18609903105210934
1539731785053994,0.9555199511711301,0.13128862439917643,-0.17901884489204223
1539731785069999,0.9497825589379723,0.13470664530403642,-0.1765774013885708
1539731785086005,0.9485618371862365,0.13751430533302855,-0.1779201953154801
1539731785102010,0.9550316624704358,0.1482566567483028,-0.18280308232242293
1539731785118016,0.9633325703822386,0.14288548104066567,-0.1846341649500265
1539731785134021,0.9688258182650493,0.1284809643701843,-0.1881742580300605
1539731785150027,0.9719996948195622,0.11700617990386775,-0.19208056763561476
1539731785166032,0.9701686121919586,0.1146868085755699,-0.1858548867017622
1539731785182038,0.97431906614786,0.11834897383077703,-0.17987335011825722
1539731785198043,0.9701686121919586,0.12945754177157287,-0.1707179369802394
1539731785214049,0.9662623025864043,0.12579537651636574,-0.16266117341878372
1539731785230054,0.9597924773022051,0.12188906691081058,-0.15838864728770874
1539731785246060,0.9622339208056765,0.12664988174258074,-0.16009765774013873
1539731785262085,0.9672388799877929,0.13202105745021786,-0.1669336995498587
1539731785278090,0.9684596017395286,0.1310444800488293,-0.17254901960784297
1539731785294096,0.9643091477836272,0.12237735561150487,-0.16925307087815655
1539731785310101,0.9601586938277258,0.12396429388876129,-0.1686427100022887
1539731785326107,0.9663843747615779,0.13421835660334214,-0.16913099870298298
1539731785342112,0.9688258182650493,0.1398336766613264,-0.165712977798123
1539731785358118,0.9677271686884872,0.12799267566949002,-0.161440451667048
1539731785374123,0.96406500343328,0.12249942778667844,-0.15509269855802232
1539731785390129,0.9643091477836272,0.130556191348135,-0.15240711070420376
1539731785406134,0.9605249103532465,0.1381246662088964,-0.1426413366903181
1539731785422140,0.9626001373311972,0.13678187228198713,-0.1342183566033417
1539731785438145,0.9669947356374458,0.1360494392309457,-0.14618142977035165
1539731785454151,0.9710231174181736,0.13482871747921,-0.16083009079118016
1539731785470156,0.9735866330968186,0.12713817044327502,-0.15912108033875016
1539731785486162,0.97602807660029,0.12042420080872773,-0.14654764629587236
1539731785502167,0.9639429312581065,0.11407644769970204,-0.1547264820325016
1539731785518173,0.9605249103532465,0.10296787975890709,-0.14483863584344236
1539731785534178,0.9671168078126193,0.11700617990386775,-0.12506294346532387
1539731785550184,0.9784695201037614,0.12249942778667844,-0.11590753032730605
1539731785566189,0.9810330357824064,0.14215304798962425,-0.1115129320210575
1539731785582244,1.0052033264667735,0.17206073090714913,-0.14361791409170666
1539731785598250,0.9694361791409172,0.12457465476462914,-0.14544899671931022
1539731785614256,0.9710231174181736,0.08197146562905289,-0.13018997482261385
1539731785630262,0.9494163424124515,0.06146334019989297,-0.13763637750820168
1539731785646268,0.9710231174181736,0.09784084840161711,-0.15069810025177377
1539731785662274,0.9986114290074006,0.09820706492713782,-0.16131837949187444
1539731785678280,0.9813992523079271,0.07757686732280433,-0.17181658655680154
1539731785694286,0.9953154802777142,0.09515526054779855,-0.18133821622034008
1539731785710292,0.9805447470817121,0.13482871747921,-0.13995574883649953
1539731785726298,0.945021744106203,0.1544823376821549,-0.09613183794918756
1539731785742304,0.9571068894483865,0.168398565651942,-0.0733043411917298
1539731785758310,0.9721217669947357,0.1788967727168691,-0.09649805447470827
1539731785774316,0.9750514991989014,0.15301747158007206,-0.12689402609292744
1539731785790322,0.97773708705272,0.10077058060578281,-0.13971160448615239
1539731785806328,0.9618677042801558,0.06146334019989297,-0.1400778210116731
1539731785822334,0.9500267032883194,0.0663462272068358,-0.1283588921950103
1539731785838340,0.9545433737697415,0.06952010376134865,-0.13690394445716025
1539731785854346,0.9718776226443886,0.10565346761272565,-0.1493553063248645
1539731785870352,0.9859159227893493,0.13617151140611927,-0.14911116197451735
1539731785886358,0.9884794384679942,0.12799267566949002,-0.1426413366903181
1539731785902404,0.9606469825284201,0.09564354924849283,-0.13849088273441668
1539731785918410,0.9557640955214772,0.08221560997940003,-0.1404440375371938
1539731785934416,0.9635767147325858,0.10199130235751852,-0.15619134813458446
1539731785950422,0.9651636530098422,0.1284809643701843,-0.1433737697413595
1539731785966428,0.9788357366292821,0.13177691309987072,-0.13189898527504385
1539731785982434,0.9733424887464714,0.12994583047226715,-0.12567330434119173
1539731785998440,0.97773708705272,0.10675211718928779,-0.12713817044327458
1539731786014446,0.9799343862058443,0.11908140688181845,-0.14239719233997095
1539731786030452,0.9817654688334478,0.13311970702678,-0.16180666819256873
1539731786046458,0.9867704280155642,0.11639581902799989,-0.1455710688944838
1539731786062464,0.9793240253299764,0.11224536507209848,-0.13385214007782098
1539731786078470,0.9778591592278936,0.12982375829709358,-0.13348592355230027
1539731786094476,0.9732204165712979,0.13287556267643286,-0.1228656443121996
1539731786110482,0.9744411383230336,0.14093232623788854,-0.12518501564049744
1539731786126488,0.9721217669947357,0.13958953231097926,-0.13568322270542454
1539731786142494,0.9713893339436943,0.1301899748226143,-0.13653772793163954
1539731786158500,0.9596704051270315,0.12164492256046344,-0.14154268711375595
1539731786174506,0.9597924773022051,0.12176699473563701,-0.14142061493858238
1539731786190512,0.9669947356374458,0.12567330434119217,-0.15069810025177377
1539731786206518,0.9671168078126193,0.12799267566949002,-0.15777828641184088
1539731786222564,0.9660181582360572,0.12994583047226715,-0.15155260547798877
1539731786238570,0.9627222095063708,0.12530708781567146,-0.1526512550545509
1539731786254576,0.9693141069657436,0.12372014953841415,-0.1572899977111466
1539731786270582,0.9634546425574122,0.1251850156404979,-0.16461432822156086
1539731786286588,0.9660181582360572,0.12445258258945557,-0.1644922560463873
1539731786302594,0.9593041886015108,0.1109025711451892,-0.15533684290836947
1539731786318600,0.9654077973601893,0.11859311818112417,-0.14825665674830235
1539731786334606,0.9693141069657436,0.13128862439917643,-0.15667963683527875
1539731786350612,0.9752956435492486,0.14923323414969136,-0.15374990463111304
1539731786366618,0.9695582513160907,0.1482566567483028,-0.14251926451514452
1539731786382624,0.9715114061188679,0.1427634088654921,-0.14923323414969092
1539731786398630,0.9723659113450829,0.13238727397573857,-0.15533684290836947
1539731786414636,0.9655298695353629,0.13080033569848215,-0.14923323414969092
1539731786430642,0.9687037460898758,0.14544899671931066,-0.13299763485160598
1539731786446648,0.9746852826733807,0.16400396734569345,-0.11847104600595104
1539731786462654,0.97773708705272,0.16510261692225559,-0.12481879911497673
1539731786478660,0.98115510795758,0.1587548638132299,-0.14520485236896308
1539731786494666,0.9784695201037614,0.15631342030975848,-0.15973144121461802
1539731786510672,0.9759060044251164,0.1486228732738235,-0.17901884489204223
1539731786526678,0.9763942931258107,0.15143053330281564,-0.1779201953154801
1539731786542694,0.96406500343328,0.1389791714351114,-0.15069810025177377
1539731786558700,0.9678492408636608,0.14972152285038565,-0.11773861295490962
1539731786574706,0.9619897764553293,0.18841840238040763,-0.12213321126115817
1539731786590712,0.9633325703822386,0.1830472266727705,-0.12262149996185245
1539731786606718,0.9645532921339743,0.14728007934691423,-0.12066834515907532
1539731786622724,0.9645532921339743,0.13934538796063212,-0.1354390783550774
1539731786638730,0.9745632104982072,0.13556115053025142,-0.1359273670557717
1539731786654736,0.9767605096513314,0.12921339742122573,-0.12603952086671244
1539731786670742,0.9718776226443886,0.15179674982833635,-0.12481879911497673
1539731786686748,0.9701686121919586,0.15728999771114704,-0.1173723964293889
1539731786702754,0.9619897764553293,0.1369039444571607,-0.1135881589990082
1539731786718760,0.9566186007476922,0.13299763485160643,-0.11969176775768675
1539731786734766,0.9594262607766844,0.1474021515220878,-0.11834897383077747
1539731786750772,0.9541771572442208,0.13873502708476426,-0.10870527199206537
1539731786766778,0.9536888685435265,0.13653772793163999,-0.11505302510109106
1539731786782784,0.9445334554055087,0.13556115053025142,-0.12799267566948958
1539731786798790,0.9533226520180058,0.13629358358129284,-0.11883726253147175
1539731786814796,0.9589379720759901,0.1423971923399714,-0.11407644769970249
1539731786830802,0.9882352941176471,0.1591210803387506,-0.12420843823910888
1539731786846808,0.9926298924238957,0.14898908979934422,-0.13763637750820168
1539731786862854,0.9792019531548029,0.12201113908598415,-0.14728007934691378
1539731786878860,0.98457312886244,0.11590753032730561,-0.16168459601739515
1539731786894867,0.9859159227893493,0.14203097581445068,-0.16180666819256873
1539731786910873,0.9740749217975129,0.14264133669031853,-0.13006790264744028
1539731786926880,0.9766384374761579,0.13421835660334214,-0.11798275730525676
1539731786942886,0.9762722209506371,0.13824673838406998,-0.127870603494316
1539731786958892,0.96406500343328,0.11602960250247918,-0.13739223315785454
1539731786974899,0.9600366216525522,0.10199130235751852,-0.14837872892347592
1539731786990905,0.9652857251850158,0.12323186083771986,-0.1467917906462195
1539731787006912,0.9706569008926529,0.14410620279240138,-0.1350728618295567
1539731787022918,0.9823758297093157,0.14032196536202068,-0.1325093461509117
1539731787038925,0.9822537575341421,0.11224536507209848,-0.14251926451514452
1539731787054931,0.9792019531548029,0.10052643625543567,-0.1535057602807659
1539731787070938,0.9745632104982072,0.0995498588540471,-0.14630350194552522
1539731787086944,0.9787136644541086,0.11041428244449492,-0.13360799572747384
1539731787102951,0.9817654688334478,0.13739223315785498,-0.1337300679026474
1539731787118957,0.9655298695353629,0.13238727397573857,-0.13617151140611883
1539731787134964,0.9688258182650493,0.10772869459067635,-0.13116655222400242
1539731787150970,0.9746852826733807,0.11126878767070991,-0.13983367666132596
1539731787166977,0.9771267261768521,0.13177691309987072,-0.14239719233997095
1539731787183014,0.9773708705271993,0.12494087129014986,-0.12774853131914243
1539731787199020,0.9755397878995957,0.11200122072175134,-0.13556115053025097
1539731787215026,0.9645532921339743,0.09893949797817925,-0.14691386282139307
1539731787231033,0.9677271686884872,0.08307011520561502,-0.15497062638284875
1539731787247039,0.9652857251850158,0.10553139543755208,-0.15497062638284875
1539731787263046,0.9630884260318915,0.11834897383077703,-0.13311970702677955
1539731787279052,0.973464560921645,0.1205462729839013,-0.11578545815213248
1539731787295059,0.9705348287174793,0.12286564431219915,-0.12726024261844815
1539731787311065,0.9745632104982072,0.1155413138017849,-0.14142061493858238
1539731787327072,0.9773708705271993,0.09808499275196425,-0.14996566720073234
1539731787343078,0.9779812314030671,0.08758678568703715,-0.15216296635385662
1539731787359085,0.9766384374761579,0.09893949797817925,-0.14813458457312878
1539731787375091,0.9805447470817121,0.11773861295490917,-0.1371480888075074
1539731787391098,0.9784695201037614,0.12652780956740717,-0.12762645914396886
1539731787407104,0.9676050965133136,0.1205462729839013,-0.1240863660639353
1539731787423111,0.9633325703822386,0.11236743724727205,-0.12445258258945602
1539731787439117,0.9608911268787672,0.1050431067368578,-0.13775844968337525
1539731787455124,0.9645532921339743,0.09991607537956781,-0.1476462958724345
1539731787471130,0.9658960860608836,0.10370031280994851,-0.14923323414969092
1539731787487136,0.9678492408636608,0.11114671549553634,-0.14691386282139307
1539731787503173,0.971755550469215,0.12066834515907487,-0.14203097581445023
1539731787519180,0.9789578088044557,0.12750438696879574,-0.13299763485160598
1539731787535186,0.9812771801327536,0.11871519035629774,-0.1375143053330281
1539731787551193,0.9788357366292821,0.11163500419623062,-0.14752422369726093
1539731787567199,0.9735866330968186,0.10479896238651065,-0.15155260547798877
1539731787583206,0.9706569008926529,0.09845120927748496,-0.15289539940489805
1539731787599212,0.9667505912870986,0.09771877622644354,-0.14740215152208735
1539731787615219,0.9627222095063708,0.10724040588998207,-0.14618142977035165
1539731787631225,0.9672388799877929,0.1138323033493549,-0.13897917143511096
1539731787647232,0.9690699626153965,0.11480888075074347,-0.13690394445716025
1539731787663238,0.9723659113450829,0.10894941634241206,-0.14752422369726093
1539731787679245,0.978591592278935,0.09698634317540211,-0.15008773937590592
1539731787695251,0.9667505912870986,0.09515526054779855,-0.14703593499656664
1539731787711258,0.9661402304112308,0.11407644769970204,-0.14019989318684667
1539731787727264,0.966628519111925,0.12884718089570502,-0.14056610971236738
1539731787743270,0.9644312199588008,0.11456473640039633,-0.13690394445716025
1539731787759277,0.9488059815365837,0.09234760051880642,-0.13995574883649953
1539731787775283,0.9579613946746015,0.09430075532158355,-0.14190890363927666
1539731787791290,0.9719996948195622,0.09503318837262498,-0.1442282749675745
1539731787807296,0.9818875410086214,0.09527733272297212,-0.14862287327382306
1539731787823303,0.9939726863508049,0.09893949797817925,-0.14666971847104593
1539731787839309,0.9903105210955978,0.08551155870908644,-0.14776836804760807
1539731787855316,0.9899443045700771,0.09039444571602928,-0.15594720378423732
1539731787871322,0.9910429541466392,0.09918364232852639,-0.16046387426565945
1539731787887329,0.9792019531548029,0.09137102311741785,-0.14373998626688023
1539731787903335,0.9690699626153965,0.08844129091325215,-0.1412985427634088
1539731787919342,0.9616235599298086,0.10955977721827992,-0.14947737850003806
1539731787935348,0.9660181582360572,0.12188906691081058,-0.14911116197451735
1539731787951355,0.9716334782940415,0.10833905546654421,-0.13556115053025097
1539731787967361,0.9721217669947357,0.10455481803616351,-0.14117647058823524
1539731787983368,0.9805447470817121,0.11029221026932134,-0.16156252384222158
1539731787999374,0.9799343862058443,0.0995498588540471,-0.16998550392919798
1539731788015380,0.9690699626153965,0.08941786831464071,-0.14837872892347592
1539731788031387,0.9688258182650493,0.10321202410925423,-0.13971160448615239
1539731788047393,0.9718776226443886,0.11126878767070991,-0.1502098115510795
1539731788063400,0.9698023956664379,0.088197146562905,-0.1560692759594109
1539731788079406,0.9701686121919586,0.08258182650492074,-0.15997558556496516
1539731788095413,0.9729762722209507,0.09771877622644354,-0.15948729686427088
1539731788111419,0.9750514991989014,0.10553139543755208,-0.15753414206149374
1539731788127426,0.9752956435492486,0.0974746318760964,-0.1535057602807659
1539731788143463,0.9733424887464714,0.09271381704432713,-0.15374990463111304
1539731788159469,0.9680933852140079,0.09515526054779855,-0.15753414206149374
1539731788175476,0.9654077973601893,0.10675211718928779,-0.15118638895246805
1539731788191482,0.9682154573891815,0.1184710460059506,-0.14361791409170666
1539731788207489,0.9693141069657436,0.12042420080872773,-0.1409323262378881
1539731788223495,0.9685816739147022,0.10479896238651065,-0.16412603952086657
1539731788239502,0.9706569008926529,0.08392462043183002,-0.18011749446860437
1539731788255508,0.9730983443961243,0.08136110475318503,-0.18341344319829078
1539731788271515,0.9773708705271993,0.09552147707331926,-0.16375982299534586
1539731788287521,0.9744411383230336,0.1100480659189742,-0.1476462958724345
1539731788303527,0.9744411383230336,0.1184710460059506,-0.14081025406271452
1539731788319534,0.9752956435492486,0.11456473640039633,-0.1493553063248645
1539731788335540,0.9676050965133136,0.09698634317540211,-0.15777828641184088
1539731788351547,0.9667505912870986,0.08368047608148288,-0.15777828641184088
1539731788367553,0.9707789730678265,0.09820706492713782,-0.15924315251392374
1539731788383560,0.970046540016785,0.11139085984588348,-0.1497215228503852
1539731788399566,0.9678492408636608,0.11358815899900776,-0.1345845731288624
1539731788415573,0.96748302433814,0.11834897383077703,-0.1502098115510795
1539731788431579,0.968337529564355,0.1071183337148085,-0.1593652246890973
1539731788447586,0.970901045243,0.09161516746776499,-0.15960936903944445
1539731788463653,0.9719996948195622,0.09515526054779855,-0.16241702906843658
1539731788479660,0.9735866330968186,0.1091935606927592,-0.16046387426565945
1539731788495667,0.9767605096513314,0.1079728389410235,-0.15240711070420376
1539731788511674,0.9723659113450829,0.10345616845960137,-0.1547264820325016
1539731788527681,0.9754177157244222,0.1062638284885935,-0.16534676127260228
1539731788543688,0.9694361791409172,0.10431067368581637,-0.16339360646982515
1539731788559695,0.9677271686884872,0.09735255970092282,-0.15887693598840302
1539731788575702,0.9679713130388343,0.0974746318760964,-0.15509269855802232
1539731788591709,0.9699244678416115,0.10540932326237851,-0.15497062638284875
1539731788607716,0.9774929427023729,0.11810482948042988,-0.14483863584344236
1539731788623723,0.9774929427023729,0.11493095292591704,-0.1467917906462195
1539731788639730,0.9721217669947357,0.10663004501411422,-0.1552147707331959
1539731788655737,0.9711451895933472,0.10565346761272565,-0.15582513160906375
1539731788671743,0.9671168078126193,0.09857328145265853,-0.15118638895246805
1539731788687750,0.9678492408636608,0.09918364232852639,-0.14984359502555877
1539731788703757,0.9677271686884872,0.10675211718928779,-0.14825665674830235
1539731788719764,0.9704127565423057,0.11151293202105705,-0.14911116197451735
1539731788735771,0.9702906843671322,0.11663996337834703,-0.1531395437552452
1539731788751778,0.9610131990539408,0.1088273441672385,-0.15289539940489805
1539731788767785,0.9546654459449151,0.09784084840161711,-0.1493553063248645
1539731788783783,0.9547875181200887,0.09344625009536855,-0.15680170901045232
1539731788799790,0.9645532921339743,0.09771877622644354,-0.16302738994430443
1539731788815796,0.97944609750515,0.10357824063477494,-0.17230487525749583
1539731788831803,0.99140917067216,0.10382238498512208,-0.1799954222934308
1539731788847810,0.9893339436942092,0.10370031280994851,-0.17096208133058655
1539731788863817,0.9846952010376135,0.09930571450369996,-0.16034180209048587
1539731788879824,0.985427634088655,0.1024795910582128,-0.15338368810559233
1539731788895831,0.9732204165712979,0.10772869459067635,-0.1505760280766002
1539731788911838,0.9711451895933472,0.10016021972991496,-0.14532692454413665
1539731788927845,0.9688258182650493,0.10199130235751852,-0.13446250095368883
1539731788943852,0.9698023956664379,0.10968184939345349,-0.13324177920195313
1539731788959859,0.970901045243,0.11505302510109061,-0.13116655222400242
1539731788975866,0.970901045243,0.1088273441672385,-0.13311970702677955
1539731788991873,0.9662623025864043,0.10272373540855995,-0.1388570992599374
1539731789007880,0.9577172503242544,0.09076066224155,-0.14312962539101237
1539731789023887,0.9530785076676587,0.09124895094224428,-0.13958953231097881
1539731789039894,0.9604028381780729,0.1109025711451892,-0.13495078965438312
1539731789055901,0.9749294270237279,0.13165484092469715,-0.1362935835812924
1539731789071908,0.9816433966582743,0.12176699473563701,-0.14105439841306167
1539731789087915,0.9816433966582743,0.1012588693064771,-0.14740215152208735
1539731789103942,0.9809109636072328,0.09246967269397999,-0.1593652246890973
1539731789119949,0.9773708705271993,0.09015030136568214,-0.1598535133897916
1539731789135956,0.9695582513160907,0.09820706492713782,-0.15301747158007162
1539731789151963,0.9680933852140079,0.10492103456168422,-0.14142061493858238
1539731789167970,0.9744411383230336,0.11212329289692491,-0.14496070801861594
1539731789183977,0.9776150148775464,0.11566338597695847,-0.15423819333180733
1539731789199984,0.9735866330968186,0.09002822919050857,-0.1509422446021209
1539731789215991,0.97431906614786,0.08795300221255786,-0.15619134813458446
1539731789231998,0.9781033035782407,0.10186923018234495,-0.15790035858701446
1539731789248005,0.9774929427023729,0.09344625009536855,-0.1476462958724345
1539731789264012,0.9712672617685207,0.09942778667887353,-0.15082017242694734
1539731789280019,0.9693141069657436,0.10223544670786566,-0.15497062638284875
1539731789296026,0.9656519417105365,0.09625391012436069,-0.1522850385290302
1539731789312033,0.9699244678416115,0.09442282749675712,-0.15680170901045232
1539731789328040,0.9711451895933472,0.09723048752574925,-0.15582513160906375
1539731789344047,0.9776150148775464,0.09967193102922067,-0.15338368810559233
1539731789360054,0.9759060044251164,0.09771877622644354,-0.14532692454413665
1539731789376061,0.9711451895933472,0.10003814755474139,-0.15033188372625306
1539731789392068,0.9669947356374458,0.10382238498512208,-0.15790035858701446
1539731789408074,0.9638208590829329,0.10064850843060924,-0.15777828641184088
1539731789424102,0.9698023956664379,0.09723048752574925,-0.15912108033875016
1539731789440109,0.9746852826733807,0.1041886015106428,-0.16058594644083302
1539731789456116,0.9800564583810178,0.09723048752574925,-0.1505760280766002
1539731789472123,0.9804226749065386,0.09723048752574925,-0.14996566720073234
1539731789488130,0.9749294270237279,0.09893949797817925,-0.16290531776913086
1539731789504137,0.9732204165712979,0.09637598229953426,-0.1564354924849316
1539731789520144,0.9728542000457772,0.10028229190508853,-0.15448233768215447
1539731789536151,0.9755397878995957,0.10455481803616351,-0.15960936903944445
1539731789552158,0.97773708705272,0.09649805447470783,-0.1581445029373616
1539731789568165,0.9741969939726864,0.08575570305943359,-0.15411612115663376
1539731789584172,0.9716334782940415,0.10101472495612995,-0.15497062638284875
1539731789600179,0.9694361791409172,0.10614175631341993,-0.14691386282139307
1539731789616186,0.9693141069657436,0.0986953536278321,-0.14483863584344236
1539731789632193,0.9635767147325858,0.08722056916151644,-0.1442282749675745
1539731789648200,0.9695582513160907,0.07879758907454004,-0.15594720378423732
1539731789664207,0.9611352712291144,0.08160524910353217,-0.1514305333028152
1539731789680214,0.9647974364843215,0.09918364232852639,-0.14190890363927666
1539731789696220,0.9741969939726864,0.12188906691081058,-0.12811474784466315
1539731789712227,0.9813992523079271,0.12152285038528987,-0.1380025940337224
1539731789728234,0.9912870984969864,0.09784084840161711,-0.15240711070420376
1539731789744262,0.9903105210955978,0.08551155870908644,-0.16974135957885084
1539731789760269,0.9818875410086214,0.09185931181811213,-0.17523460746166153
1539731789776276,0.9745632104982072,0.09649805447470783,-0.1644922560463873
1539731789792283,0.973464560921645,0.10577553978789922,-0.15533684290836947
1539731789808290,0.9629663538567179,0.09674219882505497,-0.15570305943389018
1539731789824297,0.9668726634622722,0.10443274586098994,-0.1602197299153123
1539731789840304,0.9745632104982072,0.11444266422522276,-0.15997558556496516
1539731789856311,0.9733424887464714,0.10443274586098994,-0.14862287327382306
1539731789872318,0.96406500343328,0.10162508583199781,-0.14373998626688023
1539731789888325,0.9626001373311972,0.1176165407797356,-0.1526512550545509
1539731789904332,0.9586938277256429,0.10370031280994851,-0.16009765774013873
1539731789920339,0.9599145494773786,0.08746471351186358,-0.1607080186160066
1539731789936346,0.9583276112001222,0.08380254825665645,-0.17047379262989226
1539731789952353,0.9616235599298086,0.09100480659189714,-0.16888685435263584
1539731789968360,0.9596704051270315,0.09552147707331926,-0.1543602655069809
1539731789984367,0.9673609521629665,0.09784084840161711,-0.1569237811856259
1539731790000373,0.9612573434042879,0.09222552834363285,-0.17486839093614082
1539731790016380,0.9652857251850158,0.0936903944457157,-0.17682154573891795
1539731790032387,0.9610131990539408,0.1050431067368578,-0.18023956664377794
1539731790048394,0.9600366216525522,0.12542915999084503,-0.1727931639581901
1539731790064392,0.9684596017395286,0.13849088273441712,-0.166567483024338
1539731790080399,0.9696803234912643,0.1461814297703521,-0.17022964827954512
1539731790096406,0.9656519417105365,0.13482871747921,-0.1732814526588844
1539731790112413,0.9701686121919586,0.11859311818112417,-0.1858548867017622
1539731790128420,0.97431906614786,0.12359807736324058,-0.19916075379568188
1539731790144426,0.9756618600747693,0.13373006790264785,-0.20563057907988114
1539731790160433,0.9690699626153965,0.12469672693980272,-0.20062561989776473
1539731790176440,0.9569848172732129,0.12103456168459559,-0.19037155718318477
1539731790192447,0.9595483329518579,0.13263141832608571,-0.1923247119859619
1539731790208454,0.954421301594568,0.1310444800488293,-0.18878461890592835
1539731790224461,0.9519798580910965,0.11895933470664488,-0.1795071335927365
1539731790240468,0.9506370641641873,0.1222552834363313,-0.17438010223544653
1539731790256475,0.9618677042801558,0.1205462729839013,-0.17816433966582723
1539731790272482,0.9733424887464714,0.12860303654535787,-0.19330128938735047
1539731790288489,0.9667505912870986,0.13336385137712714,-0.20404364080262472
1539731790304496,0.9698023956664379,0.13702601663233427,-0.20013733119707044
1539731790320503,0.9615014877546351,0.12335393301289344,-0.18194857709620793
1539731790336510,0.9550316624704358,0.09430075532158355,-0.162294956893263
1539731790352517,0.9560082398718244,0.08416876478217716,-0.163149462119478
1539731790368524,0.964919508659495,0.10260166323338638,-0.18439002059967935
1539731790384552,0.9723659113450829,0.12945754177157287,-0.1919584954604412
1539731790400559,0.9790798809796293,0.13141069657435,-0.17755397878995938
1539731790416566,0.9816433966582743,0.11663996337834703,-0.16168459601739515
1539731790432572,0.9790798809796293,0.11078049897001563,-0.1636377508201723
1539731790448579,0.9744411383230336,0.1155413138017849,-0.17779812314030652
1539731790464586,0.9687037460898758,0.1301899748226143,-0.17511253528648796
1539731790480593,0.9651636530098422,0.13421835660334214,-0.16888685435263584
1539731790496600,0.9245136186770431,0.14056610971236783,-0.1957427328908219
1539731790512607,0.933913176165408,0.034851606012054503,-0.1732814526588844
1539731790528614,0.9280537117570766,0.05511558709086728,-0.20770580605783184
1539731790544621,0.9368429083695737,0.053284504463263715,-0.2225986114290075
1539731790560628,0.9466086823834594,0.05499351491569371,-0.23077744716563675
1539731790576635,0.9619897764553293,0.06622415503166224,-0.21527428091859324
1539731790592642,0.9843289845120928,0.06964217593652222,-0.17181658655680154
1539731790608649,0.9934843976501107,0.08136110475318503,-0.12249942778667888
1539731790624656,0.9975127794308385,0.07293812466620864,-0.0733043411917298
1539731790640663,0.9960479133287556,0.07501335164415934,-0.04046692607003877
1539731790656670,0.9867704280155642,0.06817730983443937,-0.0020141908903639205
1539731790672677,0.9943389028763256,0.06500343327992653,0.013488975356679589
1539731790688684,1.0003204394598306,0.05914396887159512,0.01373311970702673
1539731790704712,0.9839627679865721,0.054505226214999425,0.015442130159456724
1539731790720718,0.9898222323949035,0.04754711223010588,-0.015075913633936011
1539731790736725,0.9969024185549706,0.04522774090180803,-0.03692683299000521
1539731790752732,1.0004425116350042,0.017151140611886717,-0.05938811322194226
1539731790768739,1.0066681925688563,0.011413748378728883,-0.08062867170214405
1539731790784746,1.0106965743495842,0.004455634393835339,-0.09356832227054257
1539731790800753,1.0229037918669412,-0.006408789196612474,-0.09442282749675757
1539731790816760,1.025833524071107,-0.012512397955291021,-0.07953002212558191
1539731790832767,1.0304722667277026,-0.02264438849469741,-0.0686655985351341
1539731790848774,1.0253452353704127,-0.027283131151293105,-0.03607232776379021
1539731790864781,1.014724956130312,-0.03424124513618665,0.024841687647821686
1539731790880788,1.0307164110780498,-0.049134050507362304,0.08087281605249075
1539731790896795,1.0497596704051269,-0.07025253681239052,0.13470664530403642
1539731790912802,1.0640421149004347,-0.07501335164415979,0.132265201800565
1539731790928809,1.066239414053559,-0.06768902113374553,0.09234760051880642
1539731790944816,1.062211032272831,-0.06939803158617552,0.0365606164644845
1539731790960823,1.0640421149004347,-0.04107728694590662,-0.030823224231326662
1539731790976830,1.064774547951476,-0.005310139620050336,-0.10663004501411466
1539731790992837,1.052567330434119,0.029480430304417382,-0.15130846112764162
1539731791008844,1.0497596704051269,0.07232776379034078,-0.19842832074464045
1539731791024871,1.0270542458228427,0.124330510414282,-0.2158846417944611
1539731791040879,1.0158236057068741,0.1549706263828492,-0.207095445181964
1539731791056886,1.0200961318379491,0.17193865873197556,-0.17230487525749583
1539731791072894,1.0194857709620813,0.17291523613336413,-0.13897917143511096
1539731791088901,1.0006866559853513,0.17279316395819055,-0.10382238498512253
1539731791104909,0.9879911497673,0.16327153429465202,-0.08184939345387976
1539731791120916,0.9668726634622722,0.1814602883955141,-0.0888075074387733
1539731791136923,0.9568627450980394,0.16888685435263628,-0.09796292057679112
1539731791152931,0.944167238879988,0.13153276874952358,-0.10589761196307323
1539731791168938,0.9274433508812088,0.13714808880750784,-0.1464255741206988
1539731791184946,0.894361791409171,0.11956969558251274,-0.166567483024338
1539731791200953,0.9007095445181967,0.12689402609292788,-0.1876859693293662
1539731791216961,0.9418478675516901,0.13495078965438356,-0.2091706721599147
1539731791232968,0.9970244907301442,0.16021972991531275,-0.2507972838941024
1539731791248975,1.0977340352483402,0.15484855420767563,-0.33893339436942105
1539731791264983,1.183672846570535,0.1544823376821549,-0.45416952773327246
1539731791280990,1.22041657129778,0.19269092851148262,-0.6122529945830473
1539731791296998,1.2974441138323032,0.3239185168230714,-0.8081788357366291
1539731791313005,1.3881437399862673,0.37116044861524333,-0.9812771801327536
1539731791329012,1.440024414435035,0.5744106202792398,-1.1250782024872206
1539731791345001,1.616418707560845,0.670481422140841,-1.1021286335545892
1539731791361008,1.8265049210345614,0.5803921568627448,-0.8053711757076369
1539731791377015,4.0,-3.9998779278248264,4.0
1539731791393022,0.4251163500419626,-0.2305333028152896,1.9032883192187384
1539731791409029,0.9406271457999544,0.27740901808194085,-0.5907682917524988
1539731791425036,0.6332494087129019,0.6218966964217589,-0.457709620813306
1539731791441043,0.8642099641412981,0.5706263828488591,-0.1450827801937895
1539731791457049,1.037186236362249,0.47357900358587024,0.14984359502555922
1539731791473056,1.0331578545815212,-0.02667277027542525,0.5523155565728235
1539731791489063,0.9997100785839628,-0.7876707103074692,0.4896925307087816
1539731791505070,1.0308384832532234,-0.8954604409857327,0.17242694743266984
1539731791521077,0.9773708705271993,-0.22247653925383393,0.169253070878157
1539731791537084,0.9530785076676587,-0.0015259021896696368,-0.003356984817273201
1539731791553091,0.9435568780041201,-0.07904173342488763,-0.14203097581445023
1539731791569098,0.9021744106202796,0.0021362630655374915,-0.34100862134737175
1539731791585105,0.899488822766461,0.054627298390172996,-0.4733348592355231
1539731791601112,0.9259784847791259,0.08075074387731718,-0.542793926909285
1539731791617119,0.9408712901503016,0.12542915999084503,-0.5762417029068438
1539731791633126,0.9611352712291144,0.132265201800565,-0.5467002365148392
1539731791649133,0.9792019531548029,0.12799267566949002,-0.4817578393224995
1539731791665161,0.9966582742046235,0.11615167467765275,-0.39642938887617296
1539731791681168,1.013015945677882,0.09344625009536855,-0.32123292896925326
1539731791697176,1.000198367284657,0.059876401922636546,-0.2554360265506981
1539731791713183,0.9855497062638285,0.025940337224383825,-0.20892652780956755
1539731791729190,0.9840848401617457,-0.010681315327687457,-0.1753566796368351
1539731791745198,0.9832303349355307,-0.03997863736934448,-0.17462424658579367
1539731791761205,0.9698023956664379,-0.05609216449225585,-0.2108796826123447
1539731791777213,0.942458228427558,-0.06353856717784412,-0.23321889066910817
1539731791793220,0.9315938048371102,-0.08136110475318548,-0.25555809872587165
1539731791809228,0.934767681391623,-0.06939803158617552,-0.24408331425955598
1539731791825235,0.9334248874647137,-0.04449530785076661,-0.21808194094758537
1539731791841242,0.9429465171282523,-0.028381780727855244,-0.1846341649500265
1539731791857250,0.9497825589379723,-0.0017700465400167786,-0.15509269855802232
1539731791873257,0.9606469825284201,-0.02252231631952384,-0.12896925307087814
1539731791889265,0.9868925001907378,-0.24701304646372169,3.0518043793392735E-4
1539731791905272,0.9889677271686885,-0.6540016784924085,0.22943465323872747
1539731791921280,0.9483176928358894,-0.22479591058213177,-0.11676203555352105
1539731791937287,0.9597924773022051,0.013244831006332447,-0.24750133516441597
1539731791953294,0.9602807660028994,0.06280613412680225,-0.2676432440680552
1539731791969302,0.9688258182650493,0.09027237354085571,-0.26483558403906304
1539731791985321,0.9964141298542764,0.1129777981231399,-0.2571450370031281
1539731792001328,1.017288471808957,0.12469672693980272,-0.24139772640573742
1539731792017336,1.0196078431372548,0.11163500419623062,-0.22919050888838033
1539731792033343,1.006179903868162,0.008850232700083893,-0.17596704051270295
1539731792049350,1.0124055848020141,-0.17486839093614082,-0.07269398031586194
1539731792065358,0.988845654993515,-0.1981841763942933,-0.05889982452124798
1539731792081365,0.9770046540016786,-0.05633630884260299,-0.15118638895246805
1539731792097373,0.9728542000457772,0.025940337224383825,-0.21283283741512182
1539731792113380,0.9639429312581065,0.062317845426107965,-0.24554818036163883
1539731792129387,0.9439230945296408,0.08343633173113574,-0.2456702525368124
1539731792145395,0.9500267032883194,0.07452506294346506,-0.21979095140001537
1539731792161402,0.9568627450980394,0.03204394598306237,-0.1727931639581901
1539731792177410,0.9622339208056765,-0.03289845120927737,-0.1359273670557717
1539731792193417,0.9638208590829329,-0.03607232776379021,-0.1555809872587166
1539731792209425,0.9560082398718244,0.016540779736018862,-0.21112382696269183
1539731792225432,0.9511253528648815,0.05767910276951227,-0.243228809033341
1539731792241439,0.9632104982070651,0.04571602960250232,-0.22076752880140393
1539731792257447,0.9615014877546351,0.0071412222476539,-0.17816433966582723
1539731792273454,0.9574731059739072,0.0025024795910582043,-0.1430075532158388
1539731792289462,0.9662623025864043,0.055848020141908705,-0.13238727397573813
1539731792305481,0.9762722209506371,0.11859311818112417,-0.14056610971236738
1539731792321488,0.9563744563973451,0.1386129549095907,-0.15973144121461802
1539731792337495,0.9840848401617457,0.13800259403372284,-0.18573281452658863
1539731792353503,0.9907988097962921,0.12603952086671288,-0.18512245365072078
1539731792369510,1.0128938735027084,0.0928358892195007,-0.1867093919279772
1539731792385518,0.9938506141756314,0.04901197833218873,-0.1455710688944838
1539731792401525,0.9849393453879607,0.0327763790341038,-0.17169451438162797
1539731792417533,1.025223163195239,0.010803387502861028,-0.2969405661097122
1539731792433540,0.9723659113450829,-0.05535973144121442,-0.20404364080262472
1539731792449547,0.8714122224765388,-0.2213778896772718,-0.3496757457846953
1539731792465555,0.9160906385900667,-0.19916075379568188,-0.381048294804303
1539731792481562,0.9600366216525522,-0.10626382848859395,-0.3524834058136874
1539731792497570,0.9866483558403907,0.006652933546959616,-0.30218966964217575
1539731792513577,0.9978789959563592,0.08868543526359929,-0.22113374532692465
1539731792529585,1.0039826047150378,0.19928282597085545,-0.12481879911497673
1539731792545592,1.0168001831082627,0.23358510719462888,-0.05621423666742942
1539731792561599,1.035233081559472,0.20587472343022828,-0.03839169909208806
1539731792577607,1.0368200198367283,0.18072785534447267,-0.08831921873807902
1539731792593614,0.8917982757305261,-0.03143358510719452,-0.08429083695735118
1539731792609622,0.96406500343328,-0.07598992904554835,-0.17645532921339724
1539731792625610,0.952712291142138,-0.04315251392385733,-0.21783779659723823
1539731792641617,0.9643091477836272,-0.05609216449225585,-0.23175402456702532
1539731792657625,0.9646753643091479,-0.09991607537956826,-0.242374303807126
1539731792673632,0.9813992523079271,-0.06890974288548124,-0.25690089265278093
1539731792689640,0.9689478904402229,-0.011779964904249596,-0.26227206836041805
1539731792705647,0.9495384145876251,-0.026184481574730967,-0.24811169604028382
1539731792721655,0.9730983443961243,-0.055848020141908705,-0.21820401312275894
1539731792737662,0.9784695201037614,-0.05267414358739586,-0.2571450370031281
1539731792753669,0.9783474479285879,-0.06878767071030767,-0.2692301823453116
1539731792769677,0.9870145723659114,-0.10943770504310679,-0.2991378652628365
1539731792785684,1.0153353170061798,-0.0838025482566569,-0.33600366216525535
1539731792801692,0.9730983443961243,-0.08453498130769832,-0.2780193789578087
1539731792817699,1.0006866559853513,-0.09539940489814613,-0.17779812314030652
1539731792833706,0.9613794155794615,-0.07061875333791123,-0.13873502708476382
1539731792849714,0.9495384145876251,-0.004333562218661768,-0.17462424658579367
1539731792865721,0.9831082627603571,0.1155413138017849,-0.20782787823300541
1539731792881729,0.9812771801327536,0.2549477378500038,-0.16168459601739515
1539731792897736,0.9601586938277258,0.1856107423514155,-0.04364080262455161
1539731792913744,0.973464560921645,-0.040222781719691625,-0.018005645838101714
1539731792929751,0.9463645380331123,-0.13470664530403598,-0.13958953231097881
1539731792945770,0.9355001144426645,-0.07293812466620908,-0.29010452429999223
1539731792961777,0.9264667734798202,-0.03961242084382377,-0.30560769054703574
1539731792977785,0.9530785076676587,-0.07440299076829193,-0.19256885633630905
1539731792993792,1.0058136873426413,-0.1409323262378881,-0.11505302510109106
1539731793009800,0.9724879835202564,-0.2633707179369802,-0.14325169756618594
1539731793025807,0.948439765011063,-0.012756542305638163,-0.21222247653925397
1539731793041814,1.038895246814679,0.004333562218661768,-0.16815442130159441
1539731793057822,0.9749294270237279,-0.04840161745632088,-0.09869535362783255
1539731793073829,0.9066910811017017,-0.11285572594796678,-0.023498893720912406
1539731793089837,0.9043717097734039,-0.06475928892957983,-0.019836728465705278
1539731793105844,0.8620126649881739,-0.08612191958495474,-0.08526741435873975
1539731793121852,0.8820325017166404,-0.08990615701533544,-0.13202105745021742
1539731793137859,0.9120622568093388,-0.12140077821011674,-0.09417868314641042
1539731793153866,1.078446631570916,-0.21576256961928753,0.24969863431754025
1539731793169874,1.0169222552834363,-0.15912108033875016,0.06158541237506654
1539731793185881,1.0524452582589454,-0.09222552834363329,-0.08441290913252475
1539731793201889,0.9942168307011521,-0.007873655298695326,-0.07769893949797835
1539731793217896,0.9826199740596628,0.0919813839932857,-0.12079041733424889
1539731793233904,1.0034943160143435,0.09100480659189714,-0.15826657511253517
1539731793249911,0.9898222323949035,-0.04058899824521234,-0.15570305943389018
1539731793265930,0.9838406958113985,-0.20025940337224402,-0.1749904631113144
1539731793281937,0.9978789959563592,-0.29120317387655437,-0.16620126649881728
1539731793297945,1.0100862134737163,-0.20929274433508827,-0.14166475928892952
1539731793313952,1.0522011139085983,-0.05902189669642155,-0.14105439841306167
1539731793329959,1.0453650720988783,0.03070115205615309,-0.06341649500267055
1539731793345967,1.0556191348134583,4.272526131074983E-4,7.934691386282111E-4
1539731793361974,0.9983672846570535,-0.10968184939345393,0.026916914625772392
1539731793377982,0.9334248874647137,-0.12530708781567101,-0.027283131151293105
1539731793393989,0.9261005569542995,-0.0867322804608226,-0.08990615701533544
1539731793409997,0.9090104524299996,-0.044007019150072324,-0.08856336308842616
1539731793426004,0.9355001144426645,-0.015320057984283153,-0.02911421377889667
1539731793442011,0.9787136644541086,-0.04058899824521234,0.02398718242160669
1539731793458019,0.9978789959563592,-0.05938811322194226,0.01495384145876244
1539731793474026,1.010452429999237,-0.04986648355840373,-0.04254215304798947
1539731793490034,1.0211947814145113,-0.055848020141908705,-0.08929579613946759
1539731793506041,1.0229037918669412,-0.06305027847714983,-0.13055619134813456
1539731793522049,1.0075226977950713,-0.12042420080872818,-0.09954985885404755
1539731793538056,1.0116731517509727,-0.17218280308232226,-0.03717097734035235
1539731793554063,0.9835965514610514,-0.13568322270542454,-0.020569161516746703
1539731793570071,0.9671168078126193,-0.053162432288090145,-0.03472953383688093
1539731793586090,0.9679713130388343,-0.009338521400778177,-0.019836728465705278
1539731793602097,0.950148775463493,9.15541313801782E-4,-0.015686274509803866
1539731793618105,0.9408712901503016,-0.02276646066987098,-0.02008087281605242
1539731793634112,0.9815213244831007,-0.07989623865110262,0.0061646448462653325
1539731793650119,0.9866483558403907,-0.10406652933546967,6.713969634546402E-4
1539731793666127,0.9981231403067063,-0.05511558709086728,-0.03985656519417091
1539731793682134,1.0039826047150378,-0.016540779736018862,-0.02386511024643312
1539731793698142,0.9855497062638285,-0.02288853284504455,0.018493934538795997
1539731793714149,1.0069123369192035,-0.04766918440527945,0.015320057984283153
1539731793730157,0.98286411841001,-0.06988632028686981,-0.019348439765010994
1539731793746164,0.9959258411535821,-0.07855344472419334,-0.0567025253681237
1539731793762171,0.9898222323949035,-0.09503318837262542,-0.06475928892957983
1539731793778179,0.9668726634622722,-0.11871519035629818,-0.046570534828717314
1539731793794186,0.9816433966582743,-0.10540932326237895,-0.037781338216220206
1539731793810194,0.9774929427023729,-0.08563363088426046,-0.04852368963149445
1539731793826201,0.9933623254749371,-0.08514534218356618,-0.035095750362401645
1539731793842208,1.0219272144655527,-0.042908369573510186,-0.041443503471427334
1539731793858216,1.0357213702601662,0.006530861371786045,-0.03204394598306237
1539731793874223,1.0319371328297855,-0.036194399938963784,0.050720988784618726
1539731793890231,1.0086213473716334,-0.08917372396429402,0.10528725108720494
1539731793906219,0.9744411383230336,-0.10614175631342038,0.029968719005111666
1539731793922227,0.9729762722209507,-0.17962920576791008,-0.0724498359655148
1539731793938234,0.9423361562523844,-0.26141756313420306,-0.1375143053330281
1539731793954241,0.9583276112001222,-0.24298466468299385,-0.1543602655069809
1539731793970249,0.9652857251850158,-0.18683146410315077,-0.0753795681696805
1539731793986256,0.9636987869077593,-0.13690394445716025,0.031311512932020946
1539731794002264,0.98115510795758,-0.061097123674372256,0.06903181506065437
1539731794018271,1.0257114518959334,-0.05865568017090084,0.04901197833218873
1539731794034278,1.0603799496452275,-0.06903181506065481,0.014343480582894585
1539731794050286,1.0644083314259554,-0.09771877622644398,0.004943923094529623
1539731794066293,1.0100862134737163,-0.14520485236896308,0.06292820630197582
1539731794082301,0.9910429541466392,-0.1249408712901503,0.0499885557335773
1539731794098308,0.9690699626153965,-0.08062867170214405,0.03033493553063238
1539731794114316,0.97431906614786,-0.08404669260700404,0.0424200808728159
1539731794130323,0.9729762722209507,-0.07879758907454049,0.07904173342488718
1539731794146330,0.9452658884565501,-0.08831921873807902,0.09222552834363285
1539731794162338,0.9389181353475244,-0.13495078965438312,0.05999847409781012
1539731794178345,0.9633325703822386,-0.18390173189898507,0.0037232013427939137
1539731794194353,0.9477073319600215,-0.21405355916685753,-0.030945296406500233
1539731794210360,0.9765163653009843,-0.18341344319829078,-0.04058899824521234
1539731794226379,0.9651636530098422,-0.126161593041886,0.021179522392614558
1539731794242386,0.9618677042801558,-0.1123674372472725,0.08307011520561502
1539731794258394,0.9508812085145344,-0.09393453879606328,0.07721065079728362
1539731794274401,0.9701686121919586,-0.06268406195162912,0.020691233691920274
1539731794290409,0.9840848401617457,-0.08978408484016187,-0.014587624933241727
1539731794306416,0.9918974593728542,-0.10894941634241251,-0.023010605020218122
1539731794322424,0.9815213244831007,-0.11432059205004963,-0.00982681010147246
1539731794338431,0.9678492408636608,-0.10614175631342038,-0.004821850919356052
1539731794354438,0.9738307774471657,-0.09015030136568258,-0.010070954451819603
1539731794370446,0.9511253528648815,-0.06146334019989297,-0.028503852903028815
1539731794386453,0.9909208819714657,-0.057312886243991557,-0.03533989471274879
1539731794402461,0.9976348516060121,-0.09942778667887398,-0.004821850919356052
1539731794418468,1.0175326161593041,-0.1589990081635766,0.009216449225604606
1539731794434476,1.0233920805676355,-0.15960936903944445,-0.04437323567559304
1539731794450483,1.0163118944075684,-0.11309987029831392,-0.07232776379034123
1539731794466490,1.0285191119249255,-0.06805523765926624,-0.05096513313496587
1539731794482498,1.0489051651789119,-0.035095750362401645,-0.018005645838101714
1539731794498505,1.0590371557183182,-0.0020141908903639205,-0.014587624933241727
1539731794514513,1.0513466086823833,-0.02642862592507811,-0.05523765926604085
1539731794530520,1.0475623712520026,-0.055848020141908705,-0.10199130235751896
1539731794546569,1.0237582970931562,-0.0745250629434655,-0.10516517891203181
1539731794562577,1.0159456778820477,-0.05682459754329727,-0.0838025482566569
1539731794578584,1.010452429999237,-0.029724574654764524,-0.06280613412680269
1539731794594592,0.9906767376211185,-0.03973449301899734,-0.04632639047837017
1539731794610599,0.948439765011063,-0.06451514457923269,-0.045349813076981604
1539731794626607,0.9292744335088123,-0.0745250629434655,-0.06305027847714983
1539731794642614,0.9274433508812088,-0.036316472114137355,-0.09027237354085615
1539731794658621,0.9158464942397195,-0.05120927748531301,-0.08685435263599617
1539731794674629,0.9058365758754867,-0.11322194247348749,-0.04449530785076661
1539731794690636,0.9120622568093388,-0.1060196841382468,-0.04449530785076661
1539731794706644,0.9397726405737394,-0.05548180361638799,-0.0567025253681237
1539731794722651,0.9645532921339743,-0.07037460898756409,-0.04473945220111375
1539731794738659,0.9939726863508049,-0.093446250095369,-0.030823224231326662
1539731794754666,1.005325398641947,-0.07867551689936692,-0.06182955672541368
1539731794770673,1.007034409094377,-0.08392462043183047,-0.06414892805371197
1539731794786681,1.0171663996337834,-0.09076066224155044,-0.03680476081483164
1539731794802688,1.0136263065537499,-0.09320210574502186,-0.03985656519417091
1539731794818696,1.0117952239261463,-0.07135118638895266,-0.0567025253681237
1539731794834703,1.0161898222323948,-0.04254215304798947,-0.053284504463263715
1539731794850710,1.002761882963302,-0.024597543297474544,-0.04779125658045302
1539731794866729,0.9904325932707714,-0.012146181429770309,-0.03704890516517878
1539731794882737,0.9778591592278936,-0.01641870756084529,-0.03167772945754166
1539731794898744,0.9735866330968186,-0.017883573662928143,-0.040344853894865196
1539731794914752,0.9685816739147022,-0.0060425726710917615,-0.033752956435492365
1539731794930759,0.9677271686884872,-0.010193026626993174,-0.01617456321049815
1539731794946766,0.96748302433814,-0.030090791180285237,-0.03851377126726163
1539731794962774,1.0082551308461127,-0.05865568017090084,-0.07379262989242408
1539731794978781,1.0187533379110398,-0.11456473640039677,-0.08245975432974761
1539731794994789,1.0211947814145113,-0.12481879911497673,-0.09466697184710471
1539731795010796,1.027786678873884,-0.10272373540856039,-0.09002822919050901
1539731795026804,1.0186312657358663,-0.08636606393530188,-0.06768902113374553
1539731795042811,1.0054474708171206,-0.06073090714885154,-0.05230792706187515
1539731795058818,0.9928740367742428,-0.04742504005493231,-0.03729304951552592
1539731795074826,0.978591592278935,-0.05035477225909801,-0.028137636377508102
1539731795090833,0.9641870756084536,-0.04351873044937804,-0.022034027618829555
1539731795106841,0.9514915693904022,-0.04986648355840373,-0.015564202334630295
1539731795122848,0.9577172503242544,-0.05548180361638799,-0.012878614480811734
1539731795138856,0.970901045243,-0.07220569161516766,-0.02276646066987098
1539731795154863,0.98286411841001,-0.09088273441672401,-0.02935835812924381
1539731795170870,0.9995880064087892,-0.09039444571602973,-0.03289845120927737
1539731795186859,1.0021515220874342,-0.07208361943999408,-0.02398718242160669
1539731795202866,1.0175326161593041,-0.06976424811169624,-0.001037613488975353
1539731795218874,1.0171663996337834,-0.05413900968947871,-0.0109254596780346
1539731795234881,1.0154573891813534,-0.050476844434271584,-0.01641870756084529
1539731795250888,1.0056916151674677,-0.053406576638437286,-0.0020141908903639205
1539731795266896,0.9918974593728542,-0.04510566872663446,-0.00836194399938961
1539731795282903,0.9821316853589686,-0.04827954528114731,-0.012756542305638163
1539731795298911,0.9695582513160907,-0.07574578469520121,-0.0061646448462653325
1539731795314918,0.955275806820783,-0.08599984740978117,-0.00848401617456318
1539731795330926,0.9701686121919586,-0.049134050507362304,-0.0289921416037231
1539731795346933,0.9816433966582743,-0.038879987792782345,-0.02777141985198739
1539731795362940,0.9846952010376135,-0.07220569161516766,-0.015564202334630295
1539731795378948,0.9948271915770199,-0.10296787975890753,-0.025574120698863112
1539731795394955,1.0038605325398642,-0.11212329289692535,-0.051819638361180864
1539731795410963,0.9931181811245899,-0.11407644769970249,-0.0613412680247194
1539731795426970,0.9767605096513314,-0.11309987029831392,-0.05279621576256943
1539731795442978,0.9715114061188679,-0.10382238498512253,-0.031067368581673804
1539731795458985,0.9833524071107043,-0.10174715800717182,-0.030090791180285237
1539731795474992,0.9960479133287556,-0.0858777752346076,-0.014099336232547444
1539731795491000,1.0351110093842983,-0.04217593652246876,-0.01617456321049815
1539731795507019,0.9608911268787672,-0.034973678187228074,0.02423132677195383
1539731795523026,0.9452658884565501,-0.017639429312581,0.05511558709086728
1539731795539034,1.0047150377660792,0.01483176928358887,0.01641870756084529
1539731795555041,1.005325398641947,0.033752956435492365,-0.015930418860151008
1539731795571048,1.0265659571221484,-0.007629510948348184,-0.02801556420233453
1539731795587056,1.0298619058518348,-0.07232776379034123,-0.00848401617456318
1539731795603063,0.9970244907301442,-0.12176699473563746,-0.010803387502861028
1539731795619071,0.9976348516060121,-0.12323186083772031,-0.033752956435492365
1539731795635078,1.0015411612115663,-0.10418860151064324,-0.07953002212558191
1539731795651085,0.9929961089494164,-0.10077058060578326,-0.09393453879606328
1539731795667093,0.9982452124818799,-0.12274357213702602,-0.06646829938200982
1539731795683100,1.0031280994888228,-0.11371023117418178,9.15541313801782E-4
1539731795699108,0.9934843976501107,-0.09613183794918756,0.040100709544518054
1539731795715115,1.0026398107881285,-0.10455481803616395,0.07086289768825793
1539731795731123,0.9759060044251164,-0.026184481574730967,0.05157549401083372
1539731795747130,0.9619897764553293,0.07843137254901933,0.04596017395284946
1539731795763137,0.9762722209506371,0.07342641336690292,0.07782101167315147
1539731795779145,0.97431906614786,0.0022583352407110624,0.13702601663233427
1539731795795152,0.9663843747615779,-0.04583810177767589,0.09015030136568214
1539731795811160,1.0014190890363928,-0.05804531929503298,-0.029724574654764524
1539731795827179,0.9821316853589686,-0.12677195391775387,-0.10199130235751896
1539731795843186,1.0117952239261463,-0.17901884489204223,-0.08270389868009476
1539731795859193,1.00166323338674,-0.1961089494163426,-0.023498893720912406
1539731795875201,0.9915312428473335,-0.15570305943389018,0.0020141908903639205
1539731795891208,0.9910429541466392,-0.10003814755474183,0.00579842832074462
1539731795907216,0.9910429541466392,-0.055848020141908705,0.005676356145571049
1539731795923223,0.9953154802777142,-0.03216601815823594,0.01898222323949028
1539731795939231,0.9922636758983749,-0.04571602960250232,0.04180971999694805
1539731795955238,0.983718623636225,-0.0631723506523234,0.04364080262455161
1539731795971245,0.9767605096513314,-0.054627298390172996,0.02923628595407024
1539731795987253,0.9827420462348364,-0.03546196688792236,0.022034027618829555
1539731796003260,0.9966582742046235,-0.020935378042267416,0.030945296406500233
1539731796019268,1.001907377737087,-0.041687647821774476,0.048157473105973736
1539731796035275,1.0052033264667735,-0.07171740291447337,0.05035477225909801
1539731796051283,0.9992217898832685,-0.0838025482566569,0.027527275501640247
1539731796067290,0.9961699855039292,-0.09002822919050901,0.005188067444876765
1539731796083297,0.9865262836652171,-0.09515526054779899,0.009460593575951748
1539731796099305,0.9937285420004578,-0.08160524910353262,0.0252079041733424
1539731796115312,0.985427634088655,-0.07391470206759765,0.0357061112382695
1539731796131320,0.9855497062638285,-0.07879758907454049,0.0499885557335773
1539731796147338,0.9876249332417792,-0.09100480659189758,0.046692607003890885
1539731796163346,0.9876249332417792,-0.08819714656290545,0.03070115205615309
1539731796179353,0.9878690775921264,-0.08783093003738474,0.03033493553063238
1539731796195361,0.9958037689784085,-0.06659037155718339,0.03668268863965807
1539731796211368,0.9894560158693828,-0.054383154039825854,0.04473945220111375
1539731796227376,0.98628213931487,-0.06256198977645555,0.0470588235294116
1539731796243383,0.9981231403067063,-0.07061875333791123,0.036438544289310926
1539731796259390,0.9961699855039292,-0.08868543526359973,0.020569161516746703
1539731796275398,0.9984893568322271,-0.10870527199206537,0.01617456321049815
1539731796291405,1.0006866559853513,-0.10846112764171822,0.006408789196612474
1539731796307413,0.9843289845120928,-0.07806515602349906,0.0017700465400167786
1539731796323420,0.9787136644541086,-0.06439307240405912,0.02020294499122599
1539731796339428,0.9778591592278936,-0.06854352635996053,0.04718089570458517
1539731796355435,0.9829861905851836,-0.07122911421377909,0.05609216449225585
1539731796371442,0.98970016021973,-0.08599984740978117,0.05535973144121442
1539731796387450,1.0066681925688563,-0.10553139543755252,0.03961242084382377
1539731796403457,0.9978789959563592,-0.1240863660639353,0.003479056992446772
1539731796419465,0.9964141298542764,-0.13739223315785454,-0.0026245517662317752
1539731796435472,0.9873807888914321,-0.13031204699778742,0.012634470130464592
1539731796451480,0.9898222323949035,-0.0858777752346076,0.020935378042267416
1539731796467468,0.9859159227893493,-0.04876783398184159,0.042908369573510186
1539731796483475,0.9942168307011521,-0.03411917296101308,0.04840161745632088
1539731796499483,0.9442893110551616,-0.05658045319295013,0.03167772945754166
1539731796515490,0.9804226749065386,-0.09149309529259186,0.026306553749904538
1539731796531498,0.980300602731365,-0.10333409628442825,0.02667277027542525
1539731796547505,0.9843289845120928,-0.09466697184710471,0.02032501716639956
1539731796563512,1.0023956664377813,-0.07464713511863907,0.0214236667429617
1539731796579520,1.0060578316929885,-0.07147325856412623,0.02679484245059882
1539731796595527,0.9964141298542764,-0.08697642481116974,0.024353398947127403
1539731796611535,0.9929961089494164,-0.0955214770733197,0.01483176928358887
1539731796627542,0.98457312886244,-0.08978408484016187,0.00579842832074462
1539731796643550,0.9809109636072328,-0.08929579613946759,0.013244831006332447
1539731796659557,0.9843289845120928,-0.08087281605249119,0.019104295414663852
1539731796675564,0.9894560158693828,-0.07257190814068837,0.012878614480811734
1539731796691572,0.9840848401617457,-0.0733043411917298,0.010681315327687457
1539731796707579,0.9861600671396964,-0.07708857862211049,0.00982681010147246
1539731796723587,0.9912870984969864,-0.07782101167315192,0.006897077897306758
1539731796739594,0.9951934081025406,-0.0820935378042269,0.0017700465400167786
1539731796755602,0.9910429541466392,-0.09222552834363329,0.0022583352407110624
1539731796771609,0.9976348516060121,-0.08892957961394687,0.002868696116578917
1539731796787628,0.9934843976501107,-0.0838025482566569,0.001037613488975353
1539731796803635,0.9923857480735485,-0.08868543526359973,-0.005188067444876765
1539731796819643,0.9937285420004578,-0.08844129091325259,-0.006286717021438903
1539731796835650,0.9961699855039292,-0.08807507438773188,-0.010437170977340315
1539731796851657,1.0011749446860456,-0.08746471351186402,-0.015197985809109582
1539731796867665,1.004226749065385,-0.0875867856870376,-0.015564202334630295
1539731796883672,0.9859159227893493,-0.10247959105821325,0.006530861371786045
1539731796899680,0.9859159227893493,-0.11541924162661177,0.022278171969176697
1539731796915687,0.9735866330968186,-0.10846112764171822,0.02386511024643312
1539731796931695,0.9678492408636608,-0.08563363088426046,0.015442130159456724
1539731796947702,0.9822537575341421,-0.05499351491569371,0.011413748378728883
1539731796963709,0.9812771801327536,-0.04888990615701516,0.027405203326466676
1539731796979717,0.9925078202487221,-0.07574578469520121,0.03302052338445094
1539731796995724,0.9940947585259785,-0.08746471351186402,0.00970473792629889
1539731797011732,0.9984893568322271,-0.09967193102922112,-0.023132677195391693
1539731797027739,0.987136644541085,-0.1077286945906768,-0.01739528496223386
1539731797043747,0.9948271915770199,-0.09283588921950114,-0.01629663538567172
1539731797059754,0.9972686350804914,-0.0640268558785384,-0.013855191882200302
1539731797075761,1.0102082856488899,-0.0648813611047534,-0.0015259021896696368
1539731797091769,1.0199740596627755,-0.07183947508964694,-4.272526131074983E-4
1539731797107788,1.001052872510872,-0.09234760051880686,-0.0039673456931410556
1539731797123795,0.9928740367742428,-0.10443274586099038,-0.005432211795223907
1539731797139803,0.976882581826505,-0.08331425955596261,-0.019470511940184565
1539731797155810,0.9607690547035936,-0.07000839246204338,-0.01483176928358887
1539731797171817,0.9745632104982072,-0.06878767071030767,-0.010193026626993174
1539731797187825,0.9833524071107043,-0.04119935912108019,-0.007751583123521755
1539731797203832,0.971755550469215,-0.04486152437628732,0.00836194399938961
1539731797219840,1.0004425116350042,-0.0060425726710917615,-0.02655069810025168
1539731797235847,0.9740749217975129,-0.049134050507362304,0.013977264057373873
1539731797251855,0.9949492637521935,-0.09698634317540256,-0.031189440756847375
1539731797267862,0.9964141298542764,-0.1266498817425803,-0.06463721675440626
1539731797283869,0.9943389028763256,-0.1316548409246967,-0.08319218738078904
1539731797299877,1.0049591821164263,-0.12530708781567101,-0.07269398031586194
1539731797315884,0.9881132219424735,-0.10760662241550323,-0.03985656519417091
1539731797331892,0.9868925001907378,-0.07061875333791123,-0.027405203326466676
1539731797347899,0.9915312428473335,-0.02935835812924381,-0.01104753185320817
1539731797363906,0.9933623254749371,-0.029602502479590953,0.005432211795223907
1539731797379914,0.9912870984969864,-0.04730296787975874,0.002868696116578917
1539731797395921,0.9763942931258107,-0.06817730983443981,-0.024475471122300974
1539731797411929,0.9732204165712979,-0.09369039444571614,-0.04388494697489875
1539731797427917,0.9738307774471657,-0.10992599374380108,-0.04473945220111375
1539731797443925,0.9795681696803236,-0.12018005645838103,-0.04461738002594018
1539731797459932,1.0052033264667735,-0.0993057145037004,-0.04095521477073305
1539731797475939,1.0023956664377813,-0.07733272297245763,-0.018493934538795997
1539731797491947,1.007888914320592,-0.05035477225909801,-0.014343480582894585
1539731797507954,0.9972686350804914,-0.04522774090180803,-0.003356984817273201
1539731797523962,0.99140917067216,-0.05938811322194226,0.005065995269703194
1539731797539969,0.9877470054169528,-0.0424200808728159,0.00323491264209963
1539731797555976,0.9895780880445564,-0.03533989471274879,-0.0016479743648432077
1539731797571984,0.9917753871976807,-0.04132143129625376,0.003356984817273201
1539731797587991,0.9912870984969864,-0.0631723506523234,0.0023804074158846333
1539731797603999,0.990554665445945,-0.0695201037613491,-0.012512397955291021
1539731797620006,0.98628213931487,-0.06793316548409267,-0.03179980163271523
1539731797636014,0.9868925001907378,-0.08514534218356618,-0.025696192874036683
1539731797652021,0.9927519645990692,-0.09662012664988184,-0.021667811093308842
1539731797668028,0.9912870984969864,-0.09539940489814613,-0.025696192874036683
1539731797684036,0.9895780880445564,-0.08770885786221116,-0.030212863355458808
1539731797700043,0.9859159227893493,-0.07928587777523477,-0.02264438849469741
1539731797716051,0.9853055619134814,-0.0736705577172505,-0.013244831006332447
1539731797732058,0.9867704280155642,-0.07940794995040834,-0.010559243152513886
1539731797748108,0.9895780880445564,-0.0858777752346076,-0.023376821545738835
1539731797764115,0.9906767376211185,-0.13189898527504385,-0.02276646066987098
1539731797780122,0.9970244907301442,-0.11419851987487606,-0.032288090333409514
1539731797796130,0.9879911497673,-0.09393453879606328,-0.02423132677195383
1539731797812137,0.9738307774471657,-0.0812390325780119,-0.005920500495918191
1539731797828145,0.9783474479285879,-0.06598001068131554,0.014343480582894585
1539731797844152,0.9789578088044557,-0.033630884260318794,0.007751583123521755
1539731797860159,0.9939726863508049,-0.023376821545738835,-0.003356984817273201
1539731797876167,0.9936064698252842,-0.0394903486686502,-0.002746623941405346
1539731797892174,0.9961699855039292,-0.0613412680247194,-0.012512397955291021
1539731797908182,0.987136644541085,-0.08099488822766476,-0.028259708552681673
1539731797924189,0.9850614175631343,-0.08905165178912045,-0.032410162508583085
1539731797940197,0.9868925001907378,-0.08075074387731762,-0.03179980163271523
1539731797956204,0.9915312428473335,-0.07269398031586194,-0.031311512932020946
1539731797972211,0.9932402532997635,-0.08453498130769832,-0.020569161516746703
1539731797988219,0.9909208819714657,-0.09076066224155044,-0.012634470130464592
1539731798004226,0.9916533150225071,-0.08233768215457404,-0.029846646829938095
1539731798020234,0.9954375524528878,-0.0736705577172505,-0.03607232776379021
1539731798036241,0.9912870984969864,-0.07721065079728406,-0.029480430304417382
1539731798052249,0.9927519645990692,-0.08282597085526833,-0.018127718013275285
1539731798068267,0.9789578088044557,-0.08746471351186402,-0.01617456321049815
1539731798084275,0.9866483558403907,-0.06964217593652267,-0.024719615472648115
1539731798100282,0.9850614175631343,-0.06158541237506654,-0.024475471122300974
1539731798116290,0.9916533150225071,-0.06732280460822482,-0.027161058976119534
1539731798132297,0.9929961089494164,-0.07794308384832549,-0.023620965896085977
1539731798148305,0.9705348287174793,-0.07147325856412623,-0.011779964904249596
1539731798164312,0.9835965514610514,-0.03936827649347663,-0.004943923094529623
1539731798180319,0.9955596246280614,-0.01886015106431671,0.005065995269703194
1539731798196327,0.9973907072556649,-0.03155565728236809,0.022156099794003126
1539731798212334,1.0039826047150378,-0.046814679179064456,0.020569161516746703
1539731798228342,1.0177767605096513,-0.04632639047837017,-0.011291676203555312
1539731798244349,1.0124055848020141,-0.06475928892957983,-0.04205386434729519
1539731798260357,1.0005645838101778,-0.10077058060578326,-0.04901197833218873
1539731798276364,0.9920195315480278,-0.10821698329137108,-0.02789349202716096
1539731798292371,0.9909208819714657,-0.0791638056000612,-0.0018921187151903496
1539731798308379,0.9865262836652171,-0.03985656519417091,0.009948882276646032
1539731798324386,0.9895780880445564,-0.01995880064087885,0.0060425726710917615
1539731798340394,0.983718623636225,-0.04608224612802303,-0.011535820553902454
1539731798356401,0.9892118715190357,-0.07440299076829193,-0.027649347676813818
1539731798372408,0.9965362020294499,-0.061097123674372256,-0.03399710078583951
1539731798388427,0.9971465629053178,-0.013855191882200302,-0.02655069810025168
1539731798404435,1.0032501716639963,0.021179522392614558,-0.010070954451819603
1539731798420442,1.0074006256198977,-0.025574120698863112,0.009460593575951748
1539731798436450,0.9955596246280614,-0.08685435263599617,0.04254215304798947
1539731798452457,1.0028839551384756,-0.06964217593652267,0.012634470130464592
1539731798468464,0.9564965285725187,-0.018371862363622427,-0.03607232776379021
1539731798484472,0.9798123140306707,0.014465552758068156,-0.05426108186465228
1539731798500479,0.9699244678416115,-0.04632639047837017,-0.024353398947127403
1539731798516487,0.9842069123369193,-0.13153276874952313,-0.004455634393835339
1539731798532494,0.9392843518730452,-0.16241702906843658,-0.04339665827420447
1539731798548502,0.9203631647211417,-0.012878614480811734,-0.054505226214999425
1539731798564509,0.8980239566643782,-0.09112687876707115,-0.09906157015335326
1539731798580516,1.0598916609445332,-0.05877775234607441,-0.0039673456931410556
1539731798596524,1.0338902876325626,-0.14203097581445023,0.05767910276951227
1539731798612531,1.0293736171511405,-0.14068818188754095,-0.0039673456931410556
1539731798628539,1.0351110093842983,-0.08453498130769832,-0.07464713511863907
1539731798644546,1.0612344548714425,-0.02667277027542525,-0.08404669260700404
1539731798660554,0.9984893568322271,-0.0733043411917298,-0.001159685664148924
1539731798676561,0.97773708705272,-0.14154268711375595,0.04107728694590662
1539731798692568,0.9771267261768521,-0.16156252384222158,-0.014221408407721015
1539731798708557,1.0058136873426413,-0.11322194247348749,-0.1316548409246967
1539731798724564,1.0345006485084305,-0.07904173342488763,-0.12262149996185245
1539731798740572,1.0060578316929885,-0.10663004501411466,-0.05035477225909801
1539731798756579,1.0170443274586098,-0.09027237354085615,0.011413748378728883
1539731798772586,0.912306401159686,-0.036438544289310926,0.03582818341344307
1539731798788594,0.9186541542687117,-0.024353398947127403,0.06659037155718295
1539731798804601,0.9553978789959565,0.04119935912108019,0.025696192874036683
1539731798820609,0.9715114061188679,0.06317235065232296,0.03167772945754166
1539731798836616,0.96748302433814,-0.062439917601281536,0.046692607003890885
1539731798852624,0.9818875410086214,-0.11883726253147175,-0.04095521477073305
1539731798868631,0.9940947585259785,-0.15533684290836947,-0.15887693598840302
1539731798884638,0.9939726863508049,-0.22540627145799963,-0.16009765774013873
1539731798900646,0.9920195315480278,-0.2540932326237888,-0.0875867856870376
1539731798916653,0.9909208819714657,-0.17303730830853725,-0.05792324711985941
1539731798932661,0.9934843976501107,-0.09649805447470827,-0.062439917601281536
1539731798948668,0.9916533150225071,-0.07647821774624264,-0.051819638361180864
1539731798964676,0.9865262836652171,-0.0715953307392998,-0.01641870756084529
1539731798980683,0.983718623636225,-0.05914396887159512,0.021057450217440987
1539731798996690,0.9879911497673,-0.04827954528114731,0.0071412222476539
1539731799012698,0.9744411383230336,-0.054383154039825854,0.007019150072480329
1539731799028717,0.9752956435492486,-0.060975051499198685,0.0071412222476539
1539731799044724,0.9728542000457772,-0.060852979324025114,0.0017700465400167786
1539731799060732,0.9915312428473335,-0.05499351491569371,-0.0023804074158846333
1539731799076739,1.0141145952544441,-0.06060883497367797,-0.017639429312581
1539731799092746,0.9933623254749371,-0.07904173342488763,-0.01995880064087885
1539731799108754,0.9926298924238957,-0.10516517891203181,-0.0109254596780346
1539731799124761,0.9977569237811856,-0.0980849927519647,-0.018371862363622427
1539731799140769,0.9843289845120928,-0.08526741435873975,-0.01629663538567172
1539731799156776,1.0200961318379491,-0.09918364232852683,-0.011413748378728883
1539731799172783,0.8793469138628218,-0.04852368963149445,0.028503852903028815
1539731799188791,1.030106050202182,-0.09088273441672401,-0.05352864881361086
1539731799204798,0.9671168078126193,-0.12970168612191957,-0.024841687647821686
1539731799220806,0.9895780880445564,-0.11517509727626463,-0.017029068436713146
1539731799236813,0.9525902189669644,-0.0669565880827041,0.02130159456778813
1539731799252821,0.9903105210955978,-0.03692683299000521,0.03704890516517878
1539731799268828,0.9767605096513314,-0.08526741435873975,0.03057907988097952
1539731799284835,0.9812771801327536,-0.1290913252460517,-0.009582665751125319
1539731799300843,0.9922636758983749,-0.14227512016479738,-0.0567025253681237
1539731799316850,0.9966582742046235,-0.10894941634241251,-0.043030441748683756
1539731799332858,0.9988555733577478,-0.10003814755474183,0.007629510948348184
1539731799348877,1.0011749446860456,-0.12811474784466315,0.018249790188448856
1539731799364884,0.988845654993515,-0.1555809872587166,-0.005554283970397478
1539731799380891,0.9855497062638285,-0.13495078965438312,-0.035095750362401645
1539731799396899,0.9801785305561914,-0.07269398031586194,-0.02410925459678026
1539731799412906,0.9933623254749371,-0.04742504005493231,0.03057907988097952
1539731799428914,0.98115510795758,-0.07867551689936692,0.04779125658045302
1539731799444921,0.9789578088044557,-0.10907148851758608,-1.831082627603564E-4
1539731799460929,0.9741969939726864,-0.13702601663233382,-0.03302052338445094
1539731799476936,0.9766384374761579,-0.13934538796063167,-0.03155565728236809
1539731799492943,0.9735866330968186,-0.12518501564049744,-0.0042114900434881974
1539731799508951,0.9759060044251164,-0.11053635461966893,0.005554283970397478
1539731799524958,0.9823758297093157,-0.1001602197299154,-0.015564202334630295
1539731799540966,0.9879911497673,-0.11541924162661177,-0.021179522392614558
1539731799556973,0.9947051194018464,-0.14654764629587236,0.007263294422827471
1539731799572981,0.9989776455329213,-0.13727016098268097,-0.0037232013427939137
1539731799588988,1.0037384603646906,-0.09503318837262542,-0.024475471122300974
1539731799604995,0.9923857480735485,-0.09735255970092327,0.0040894178683146265
1539731799621003,0.9894560158693828,-0.12530708781567101,0.03985656519417091
1539731799637010,0.9848172732127871,-0.12896925307087814,0.023498893720912406
1539731799653018,0.9910429541466392,-0.11590753032730605,-0.005310139620050336
1539731799669036,0.9899443045700771,-0.12738231479362172,-0.023376821545738835
1539731799685044,0.9918974593728542,-0.14630350194552522,-0.009460593575951748
1539731799701051,0.9921416037232014,-0.15619134813458446,-0.0014038300144960658
1539731799717059,0.9912870984969864,-0.13348592355230027,0.002746623941405346
1539731799733066,0.990554665445945,-0.11139085984588393,0.002746623941405346
1539731799749074,0.9912870984969864,-0.11114671549553679,-0.0036011291676203427
1539731799765081,0.98970016021973,-0.12359807736324102,-0.008239871824216038
1539731799781088,0.9867704280155642,-0.1400778210116731,-0.0109254596780346
1539731799797096,0.9812771801327536,-0.1421530479896238,-0.015197985809109582
1539731799813103,0.9766384374761579,-0.12481879911497673,-0.014221408407721015
1539731799829111,0.9824979018844893,-0.10760662241550323,-0.006408789196612474
1539731799845118,0.9882352941176471,-0.09454489967193114,-9.15541313801782E-4
1539731799861126,0.9883573662928207,-0.10028229190508897,0.0071412222476539
1539731799877133,0.9933623254749371,-0.1152971694514382,0.007263294422827471
1539731799893140,0.9932402532997635,-0.1257953765163653,-0.010193026626993174
1539731799909148,0.9855497062638285,-0.13104448004882885,-0.015808346684977437
1539731799925155,0.9832303349355307,-0.13470664530403598,-0.013488975356679589
1539731799941163,0.9818875410086214,-0.12921339742122528,-0.013244831006332447
1539731799957170,0.9746852826733807,-0.12445258258945602,-0.016784924086366004
1539731799973178,0.9818875410086214,-0.12726024261844815,-0.015075913633936011
1539731799989166,0.9835965514610514,-0.12762645914396886,-0.010803387502861028
1539731800005173,0.9848172732127871,-0.12921339742122528,6.103608758678547E-5
1539731800021181,0.9881132219424735,-0.12921339742122528,0.014221408407721015
1539731800037188,0.9948271915770199,-0.13531700617990383,0.009460593575951748
1539731800053196,0.9848172732127871,-0.1467917906462195,-0.002990768291752488
1539731800069203,0.9784695201037614,-0.11749446860456247,0.012634470130464592
1539731800085210,0.968337529564355,-0.08575570305943403,0.028381780727855244
1539731800101218,0.9667505912870986,-0.07391470206759765,0.04742504005493231
1539731800117225,0.9795681696803236,-0.046814679179064456,0.06182955672541368
1539731800133233,0.9866483558403907,-0.039124132143129486,0.07403677424277078
1539731800149240,1.0045929655909056,-0.054627298390172996,0.07489127946898577
1539731800165248,1.0030060273136492,-0.11090257114518964,0.08477912565804502
1539731800181255,1.00166323338674,-0.16583504997329657,0.08538948653391287
1539731800197262,0.9927519645990692,-0.2146639200427254,0.0852674143587393
1539731800213270,0.9899443045700771,-0.24798962386511025,0.08258182650492074
1539731800229277,0.9927519645990692,-0.2625162127107652,0.089906157015335
1539731800245285,1.0160677500572213,-0.2566567483024338,0.11480888075074347
1539731800261292,1.0449988555733576,-0.24042114900434886,0.15338368810559277
1539731800277300,1.0734416723887996,-0.22308690012970178,0.17938506141756339
1539731800293307,1.0808880750743874,-0.23114366369115746,0.19208056763561476
1539731800309326,1.0612344548714425,-0.25177386129549095,0.18756389715419264
1539731800325333,1.0396276798657205,-0.27911802853437084,0.17547875181200911
1539731800341341,1.0272983901731898,-0.3037766079194322,0.17022964827954556
1539731800357348,1.0413366903181505,-0.3081712062256807,0.170107576104372
1539731800373355,1.0522011139085983,-0.31415274280918615,0.18414587624933265
1539731800389363,1.0626993209735254,-0.30719462882429216,0.18670939192797764
1539731800405370,1.061356527046616,-0.2876630807965208,0.1809719996948198
1539731800421378,1.0496375982299533,-0.2713054093232623,0.17279316395819055
1539731800437385,1.034378576333257,-0.2565346761272602,0.15948729686427132
1539731800453393,1.0109407186999313,-0.23407339589532317,0.1511863889524685
1539731800469400,0.9948271915770199,-0.2138094148165104,0.15252918287937778
1539731800485407,0.9945830472266728,-0.17804226749065366,0.1537499046311135
1539731800501415,0.9973907072556649,-0.14789044022278164,0.16449225604638773
1539731800517422,1.0004425116350042,-0.12591744869153887,0.15985351338979203
1539731800533430,0.9882352941176471,-0.12420843823910888,0.15728999771114704
1539731800549437,0.9639429312581065,-0.14239719233997095,0.13836881055924355
1539731800565445,0.9403830014496073,-0.13018997482261385,0.10077058060578281
1539731800581452,0.914869916838331,-0.13348592355230027,0.04962233920805659
1539731800597459,0.8909437705043111,-0.0980849927519647,-0.018371862363622427
1539731800613467,0.902052338445106,-0.05426108186465228,-0.09283588921950114
1539731800629486,0.9040054932478832,0.019226367589837423,-0.17547875181200867
1539731800645493,0.9102311741817353,0.10186923018234495,-0.2771648737315937
1539731800661501,0.8920424200808732,0.1608300907911806,-0.39398794537270154
1539731800677508,0.8904554818036168,0.21857022964827966,-0.5050736247806515
1539731800693515,0.8820325017166404,0.23553826199740602,-0.575631342030976
1539731800709523,0.8833752956435497,0.22919050888838033,-0.580758373388266
1539731800725530,0.9209735255970095,0.24005493247882814,-0.5451132982375828
1539731800741538,0.9937285420004578,0.2448157473105974,-0.4860303654535745
1539731800757545,1.1181200885023266,0.25604638742656594,-0.5008010986495766
1539731800773553,1.297810330357824,0.2609292744335088,-0.6460669871061264
1539731800789560,1.4966659037155718,0.3380788891432056,-0.9623559929808501
1539731800805567,1.7044327458609905,0.28839551384756223,-1.2814526588845654
1539731800821575,1.8951094834821092,0.2499427786678874,-1.2034485389486536
1539731800837582,2.3970702677958347,0.07586785687037434,-0.5620813305867092
1539731800853590,-0.04754711223010588,-3.5401541161211565,4.0
1539731800869597,1.167193102922103,-0.3875181200885023,-0.3264820325017168
1539731800885604,1.1861142900740065,0.6109102006561375,-0.8523689631494622
1539731800901612,0.9378194857709623,-0.13482871747920955,-0.1914702067597469
1539731800917619,0.9928740367742428,-0.0017700465400167786,0.01995880064087885
1539731800933627,1.0601358052948804,-0.18829633020523406,0.22601663233386748
1539731800949676,0.9787136644541086,-0.40033569848172723,0.21173418783855968
1539731800965684,0.9376974135957887,-0.460273136491951,0.046692607003890885
1539731800981692,0.9086442359044788,-0.45465781643396674,-0.09234760051880686
1539731800997700,0.9159685664148931,-0.3082932784008543,-0.16620126649881728
1539731801013708,0.9668726634622722,-0.14618142977035165,-0.18133821622034008
1539731801029716,1.0006866559853513,-3.0518043793392735E-4,-0.15924315251392374
1539731801045724,1.0183871213855191,0.09259174486915356,-0.13824673838406953
1539731801061731,1.0098420691233692,0.09100480659189714,-0.1203021286335546
1539731801077739,0.9909208819714657,0.03326466773479808,-0.11004806591897465
1539731801093747,0.9704127565423057,-0.05621423666742942,-0.09698634317540256
1539731801109755,0.9486839093614101,-0.1576562142366673,-0.07635614557106907
1539731801125763,0.9440451667048144,-0.22784771496147105,-0.05413900968947871
1539731801141771,0.9506370641641873,-0.26556801709010447,-0.041443503471427334
1539731801157779,0.9553978789959565,-0.2637369344625009,-0.029968719005111666
1539731801173787,0.9805447470817121,-0.21564049744411395,-0.025818265049210254
1539731801189795,0.9931181811245899,-0.18744182497901862,-0.006652933546959616
1539731801205803,0.9989776455329213,-0.13910124361028453,-0.007507438773174613
1539731801221810,0.9942168307011521,-0.11895933470664533,-0.01361104753185316
1539731801237818,0.9781033035782407,-0.11932555123216604,-0.0319218738078888
1539731801253826,0.9573510337987337,-0.1308003356984817,-0.038757915617608774
1539731801269806,0.9571068894483865,-0.15252918287937733,-0.0252079041733424
1539731801285813,0.9584496833752958,-0.17254901960784297,6.713969634546402E-4
1539731801301820,0.970046540016785,-0.1890287632562755,0.023376821545738835
1539731801317828,0.9744411383230336,-0.1981841763942933,0.045471885252155175
1539731801333835,0.9765163653009843,-0.1957427328908219,0.04864576180666802
1539731801349843,0.9784695201037614,-0.1837796597238115,0.04376287479972518
1539731801365850,0.9884794384679942,-0.1795071335927365,0.04339665827420447
1539731801381857,0.98970016021973,-0.17352559700923154,0.03985656519417091
1539731801397865,0.9956816968032349,-0.16644541084916442,0.023132677195391693
1539731801413872,0.9873807888914321,-0.16791027695124727,0.014099336232547444
1539731801429880,0.9844510566872664,-0.16437018387121372,-0.0037232013427939137
1539731801445887,0.9834744792858778,-0.16888685435263584,-0.019226367589837423
1539731801461895,0.9773708705271993,-0.16498054474708157,-0.029480430304417382
1539731801477902,0.9771267261768521,-0.15753414206149374,-0.031189440756847375
1539731801493909,0.9690699626153965,-0.13702601663233382,-0.03326466773479808
1539731801509917,0.9685816739147022,-0.12274357213702602,-0.03289845120927737
1539731801525924,0.9738307774471657,-0.11749446860456247,-0.03045700770580595
1539731801541932,0.9787136644541086,-0.12310978866254674,-0.021667811093308842
1539731801557939,0.9868925001907378,-0.12530708781567101,-0.028503852903028815
1539731801573947,0.9827420462348364,-0.1430075532158388,-0.028625925078202386
1539731801589965,0.9889677271686885,-0.15973144121461802,-0.02935835812924381
1539731801605973,0.9934843976501107,-0.1677882047760737,-0.03314259555962451
1539731801621981,0.9925078202487221,-0.17633325703822367,-0.032532234683756656
1539731801637989,0.9901884489204242,-0.1753566796368351,-0.038879987792782345
1539731801653997,0.9956816968032349,-0.16766613260090013,-0.044129091325245895
1539731801670005,0.9959258411535821,-0.163149462119478,-0.04962233920805659
1539731801686013,0.9872587167162585,-0.15289539940489805,-0.054383154039825854
1539731801702021,0.978591592278935,-0.14410620279240094,-0.06512550545510054
1539731801718029,0.973464560921645,-0.13018997482261385,-0.06707866025787768
1539731801734037,0.9694361791409172,-0.132143129625391,-0.039124132143129486
1539731801750044,0.9727321278706036,-0.1560692759594109,0.045471885252155175
1539731801766052,0.9750514991989014,-0.204531929503319,0.12774853131914288
1539731801782060,0.9739528496223393,-0.21405355916685753,0.09503318837262498
1539731801798068,0.9698023956664379,-0.18158236057068722,-0.00579842832074462
1539731801814076,0.97261005569543,-0.14166475928892952,-0.07940794995040834
1539731801830084,0.9800564583810178,-0.11761654077973605,-0.1106584267948425
1539731801846092,0.9890897993438621,-0.11627374685282676,-0.10577553978789966
1539731801862100,0.9948271915770199,-0.14728007934691378,-0.0736705577172505
1539731801878108,0.9945830472266728,-0.1841458762493322,-0.013855191882200302
1539731801894116,0.9949492637521935,-0.19366750591287119,0.014587624933241727
1539731801910125,0.9889677271686885,-0.16375982299534586,-0.005065995269703194
1539731801926133,0.9849393453879607,-0.12164492256046389,-0.055970092317082276
1539731801942141,0.9823758297093157,-0.11126878767071036,-0.08490119783321903
1539731801958149,0.9712672617685207,-0.1409323262378881,-0.059754329747462975
1539731801974157,0.9713893339436943,-0.18109407186999293,-0.009338521400778177
1539731801990165,0.9689478904402229,-0.18744182497901862,0.008239871824216038
1539731802006173,0.9704127565423057,-0.15423819333180733,-0.02410925459678026
1539731802022181,0.9749294270237279,-0.12982375829709314,-0.04608224612802303
1539731802038189,0.9778591592278936,-0.13299763485160598,-0.03729304951552592
1539731802054196,0.9833524071107043,-0.1564354924849316,-0.01861600671396957
1539731802070204,0.9834744792858778,-0.166567483024338,-0.02923628595407024
1539731802086212,0.9776150148775464,-0.16644541084916442,-0.03802548256656735
1539731802102220,0.9783474479285879,-0.163149462119478,-0.024353398947127403
1539731802118228,0.9766384374761579,-0.15826657511253517,-0.018005645838101714
1539731802134236,0.9750514991989014,-0.14911116197451735,-0.028259708552681673
1539731802150244,0.9865262836652171,-0.1517967498283359,-0.03460746166170736
1539731802166252,0.9915312428473335,-0.15680170901045232,-0.03472953383688093
1539731802182260,0.9922636758983749,-0.164858472571908,-0.03704890516517878
1539731802198268,0.9916533150225071,-0.16217288471808944,-0.03595025558861664
1539731802214275,0.9821316853589686,-0.15301747158007162,-0.03802548256656735
1539731802230285,0.9792019531548029,-0.16083009079118016,-0.03265430685893023
1539731802246293,0.97773708705272,-0.1636377508201723,-0.030945296406500233
1539731802262301,0.9756618600747693,-0.15326161593041876,-0.04132143129625376
1539731802278309,0.9792019531548029,-0.14728007934691378,-0.03826962691691449
1539731802294317,0.9783474479285879,-0.1517967498283359,-0.03033493553063238
1539731802310325,0.9805447470817121,-0.15082017242694734,-0.03289845120927737
1539731802326333,0.9765163653009843,-0.15362783245593947,-0.03985656519417091
1539731802342341,0.9799343862058443,-0.16339360646982515,-0.03741512169069949
1539731802358348,0.9815213244831007,-0.16339360646982515,-0.04132143129625376
1539731802374356,0.9834744792858778,-0.16241702906843658,-0.03607232776379021
1539731802390364,0.9810330357824064,-0.16412603952086657,-0.02020294499122599
1539731802406372,0.9790798809796293,-0.15973144121461802,-0.024963759822995257
1539731802422380,0.9739528496223393,-0.14081025406271452,-0.03839169909208806
1539731802438388,0.9672388799877929,-0.13824673838406953,-0.03546196688792236
1539731802454396,0.9599145494773786,-0.14312962539101237,-0.025818265049210254
1539731802470404,0.9685816739147022,-0.1467917906462195,-0.035217822537575216
1539731802486412,0.9783474479285879,-0.16156252384222158,-0.041687647821774476
1539731802502420,0.9882352941176471,-0.1817044327458608,-0.027038986800945963
1539731802518427,0.9975127794308385,-0.1841458762493322,-0.023132677195391693
1539731802534435,1.00166323338674,-0.17511253528648796,-0.02252231631952384
1539731802550415,0.9986114290074006,-0.17669947356374438,-0.015930418860151008
1539731802566422,0.9932402532997635,-0.16009765774013873,-0.04095521477073305
1539731802582430,0.9741969939726864,-0.13641565575646597,-0.04888990615701516
1539731802598437,0.9593041886015108,-0.132143129625391,-0.014587624933241727
1539731802614444,0.9494163424124515,-0.13861295490959025,0.00848401617456318
1539731802630452,0.9523460746166172,-0.15484855420767518,-0.00848401617456318
1539731802646459,0.9632104982070651,-0.17853055619134794,-0.03265430685893023
1539731802662467,0.9776150148775464,-0.20221255817502115,-0.04644846265354374
1539731802678474,0.9933623254749371,-0.21026932173647683,-0.044251163500419466
1539731802694481,0.9997100785839628,-0.2091706721599147,-0.043030441748683756
1539731802710489,0.9977569237811856,-0.21149004348821254,-0.028503852903028815
1539731802726496,0.9983672846570535,-0.20733958953231113,-0.03546196688792236
1539731802742504,0.9827420462348364,-0.19598687724116903,-0.050598916609445155
1539731802758511,0.9706569008926529,-0.17352559700923154,-0.045349813076981604
1539731802774519,0.9613794155794615,-0.1430075532158388,-0.03924620431830306
1539731802790526,0.9626001373311972,-0.12603952086671244,-0.03704890516517878
1539731802806533,0.9695582513160907,-0.13641565575646597,-0.028137636377508102
1539731802822541,0.9789578088044557,-0.1636377508201723,-0.024475471122300974
1539731802838548,0.9853055619134814,-0.17389181353475225,-0.029480430304417382
1539731802854556,0.9911650263218128,-0.16974135957885084,-0.023743038071259548
1539731802870575,0.9889677271686885,-0.16827649347676799,-0.0071412222476539
1539731802886582,0.9892118715190357,-0.1698634317540244,-0.008972304875257464
1539731802902589,0.9788357366292821,-0.1644922560463873,-0.02154573891813527
1539731802918597,0.9722438391699093,-0.1610742351415273,-0.011535820553902454
1539731802934604,0.9669947356374458,-0.1564354924849316,-0.002746623941405346
1539731802950612,0.9738307774471657,-0.14068818188754095,-0.013977264057373873
1539731802966619,0.9761501487754636,-0.1421530479896238,-0.016906996261539575
1539731802982627,0.9754177157244222,-0.16119630731670087,-0.015075913633936011
1539731802998634,0.9724879835202564,-0.16266117341878372,-0.021911955443655984
1539731803014641,0.9719996948195622,-0.15680170901045232,-0.026306553749904538
1539731803030649,0.9746852826733807,-0.14496070801861594,-0.023010605020218122
1539731803046656,0.9723659113450829,-0.14496070801861594,-0.020447089341573133
1539731803062664,0.9855497062638285,-0.15387197680628661,-0.01641870756084529
1539731803078671,0.9833524071107043,-0.1636377508201723,-0.0252079041733424
1539731803094679,0.9805447470817121,-0.1757228961623558,-0.027038986800945963
1539731803110686,0.9838406958113985,-0.17682154573891795,-0.028870069428549527
1539731803126693,0.9810330357824064,-0.17340352483405796,-0.03692683299000521
1539731803142701,0.980300602731365,-0.18439002059967935,-0.01886015106431671
1539731803158708,0.9848172732127871,-0.1893949797817962,-0.01361104753185316
1539731803174716,0.983718623636225,-0.18146028839551365,-0.03216601815823594
1539731803190734,0.9840848401617457,-0.17975127794308365,-0.02264438849469741
1539731803206742,0.98286411841001,-0.17181658655680154,-0.015930418860151008
1539731803222750,0.9788357366292821,-0.16461432822156086,-0.01739528496223386
1539731803238758,0.9745632104982072,-0.17389181353475225,-0.01751735713740743
1539731803254766,0.9705348287174793,-0.1779201953154801,-0.023254749370565264
1539731803270774,0.9694361791409172,-0.17682154573891795,-0.026062409399557396
1539731803286782,0.9723659113450829,-0.16937514305333012,-0.02423132677195383
1539731803302790,0.9761501487754636,-0.16241702906843658,-0.02264438849469741
1539731803318798,0.9781033035782407,-0.164003967345693,-0.023254749370565264
1539731803334806,0.9806668192568857,-0.16668955519951156,-0.027649347676813818
1539731803350813,0.9824979018844893,-0.16925307087815655,-0.02423132677195383
1539731803366821,0.9842069123369193,-0.16717784390020585,-0.02386511024643312
1539731803382829,0.9835965514610514,-0.16705577172503228,-0.028870069428549527
1539731803398837,0.9799343862058443,-0.17291523613336368,-0.024597543297474544
1539731803414845,0.9759060044251164,-0.16668955519951156,-0.02410925459678026
1539731803430853,0.9702906843671322,-0.15704585336079946,-0.0252079041733424
1539731803446861,0.9680933852140079,-0.15289539940489805,-0.01886015106431671
1539731803462869,0.9701686121919586,-0.15411612115663376,-0.018127718013275285
1539731803478877,0.9749294270237279,-0.16156252384222158,-0.02386511024643312
1539731803494885,0.9744411383230336,-0.1715724422064544,-0.02679484245059882
1539731803510894,0.9778591592278936,-0.17584496833752938,-0.024719615472648115
1539731803526902,0.9812771801327536,-0.1732814526588844,-0.02679484245059882
1539731803542910,0.9806668192568857,-0.1753566796368351,-0.025818265049210254
1539731803558918,0.983718623636225,-0.18182650492103436,-0.029602502479590953
1539731803574926,0.9759060044251164,-0.1858548867017622,-0.02789349202716096
1539731803590934,0.97431906614786,-0.1732814526588844,-0.028503852903028815
1539731803606942,0.9689478904402229,-0.15826657511253517,-0.028870069428549527
1539731803622950,0.9718776226443886,-0.1569237811856259,-0.02801556420233453
1539731803638958,0.9739528496223393,-0.1602197299153123,-0.029846646829938095
1539731803654966,0.980300602731365,-0.16668955519951156,-0.036438544289310926
1539731803670973,0.9835965514610514,-0.17425803006027296,-0.03265430685893023
1539731803686981,0.9889677271686885,-0.17084000915541298,-0.027038986800945963
1539731803702989,0.9884794384679942,-0.1652246890974287,-0.028381780727855244
1539731803718997,0.9867704280155642,-0.16046387426565945,-0.034973678187228074
1539731803735005,0.9787136644541086,-0.1660791943236437,-0.0319218738078888
1539731803751013,0.9757839322499429,-0.16791027695124727,-0.02655069810025168
1539731803767021,0.9771267261768521,-0.16046387426565945,-0.026916914625772392
1539731803783029,0.9783474479285879,-0.15960936903944445,-0.027161058976119534
1539731803799037,0.9754177157244222,-0.1644922560463873,-0.023254749370565264
1539731803815045,0.9749294270237279,-0.15619134813458446,-0.027405203326466676
1539731803831054,0.975173571374075,-0.15497062638284875,-0.028625925078202386
1539731803847062,0.9749294270237279,-0.1581445029373616,-0.023254749370565264
1539731803863070,0.9771267261768521,-0.16388189517051943,-0.03472953383688093
1539731803879078,0.9781033035782407,-0.16266117341878372,-0.033875028610665936
1539731803895086,0.9848172732127871,-0.1509422446021209,-0.03033493553063238
1539731803911094,0.9822537575341421,-0.14837872892347592,-0.027527275501640247
1539731803927102,0.98457312886244,-0.15790035858701446,-0.028259708552681673
1539731803943110,0.9792019531548029,-0.16473640039673443,-0.03350881208514522
1539731803959118,0.9770046540016786,-0.1715724422064544,-0.03302052338445094
1539731803975125,0.9765163653009843,-0.16375982299534586,-0.032410162508583085
1539731803991133,0.9728542000457772,-0.1607080186160066,-0.02935835812924381
1539731804007141,0.9687037460898758,-0.16034180209048587,-0.02032501716639956
1539731804023149,0.9647974364843215,-0.15790035858701446,-0.02423132677195383
1539731804039157,0.9682154573891815,-0.1564354924849316,-0.03302052338445094
1539731804055165,0.9722438391699093,-0.15619134813458446,-0.027527275501640247
1539731804071173,0.982009613183795,-0.16119630731670087,-0.020813305867093845
1539731804087181,0.9856717784390021,-0.16766613260090013,-0.020691233691920274
1539731804103189,0.9937285420004578,-0.1677882047760737,-0.032288090333409514
1539731804119197,1.0014190890363928,-0.16791027695124727,-0.04193179217212162
1539731804135204,0.9989776455329213,-0.1727931639581901,-0.04742504005493231
1539731804151214,0.9962920576791028,-0.1636377508201723,-0.04498359655146089
1539731804167222,0.9901884489204242,-0.1547264820325016,-0.03839169909208806
1539731804183230,0.9806668192568857,-0.162294956893263,-0.018249790188448856
1539731804199238,0.97602807660029,-0.17438010223544653,-0.02386511024643312
1539731804215246,0.9704127565423057,-0.17547875181200867,-0.044129091325245895
1539731804231254,0.9630884260318915,-0.16253910124361015,-0.04632639047837017
1539731804247262,0.9584496833752958,-0.1514305333028152,-0.03460746166170736
1539731804263270,0.9624780651560236,-0.13739223315785454,-0.032410162508583085
1539731804279277,0.9687037460898758,-0.1350728618295567,-0.04107728694590662
1539731804295285,0.9754177157244222,-0.14740215152208735,-0.0424200808728159
1539731804311293,0.9800564583810178,-0.1581445029373616,-0.042664225223163044
1539731804327301,0.9813992523079271,-0.16473640039673443,-0.04351873044937804
1539731804343309,0.9807888914320593,-0.162294956893263,-0.04388494697489875
1539731804359317,0.9882352941176471,-0.1531395437552452,-0.0424200808728159
1539731804375325,0.9899443045700771,-0.15191882200350948,-0.03741512169069949
1539731804391333,0.9879911497673,-0.1593652246890973,-0.03070115205615309
1539731804407341,0.9804226749065386,-0.16058594644083302,-0.03692683299000521
1539731804423349,0.9688258182650493,-0.1607080186160066,-0.0327763790341038
1539731804439356,0.96919203479057,-0.15374990463111304,-0.02911421377889667
1539731804455364,0.96748302433814,-0.13763637750820168,-0.027649347676813818
1539731804471374,0.9815213244831007,-0.13653772793163954,-0.028137636377508102
1539731804487382,0.9900663767452507,-0.15570305943389018,-0.03472953383688093
1539731804503390,0.9934843976501107,-0.17975127794308365,-0.05035477225909801
1539731804519398,0.9921416037232014,-0.19220263981078833,-0.059876401922636546
1539731804535406,0.9824979018844893,-0.19378957808804476,-0.06158541237506654
1539731804551414,0.97944609750515,-0.16876478217746227,-0.045349813076981604
1539731804567422,0.9787136644541086,-0.14166475928892952,-0.03338673990997165
1539731804583429,0.9817654688334478,-0.12762645914396886,-0.029480430304417382
1539731804599437,0.9827420462348364,-0.1366598001068131,-0.03057907988097952
1539731804615445,0.9855497062638285,-0.15411612115663376,-0.044007019150072324
1539731804631453,0.9832303349355307,-0.16595712214847014,-0.04254215304798947
1539731804647461,0.9762722209506371,-0.16717784390020585,-0.04107728694590662
1539731804663469,0.9705348287174793,-0.1543602655069809,-0.03546196688792236
1539731804679477,0.9741969939726864,-0.13763637750820168,-0.036194399938963784
1539731804695485,0.9719996948195622,-0.13604943923094526,-0.03424124513618665
1539731804711493,0.9765163653009843,-0.1380025940337224,-0.032410162508583085
1539731804727501,0.9807888914320593,-0.14703593499656664,-0.03607232776379021
1539731804743508,0.9800564583810178,-0.15619134813458446,-0.0386358434424352
1539731804759516,0.9821316853589686,-0.16595712214847014,-0.04083314259555948
1539731804775524,0.9817654688334478,-0.16156252384222158,-0.044007019150072324
1539731804791504,0.980300602731365,-0.1552147707331959,-0.03997863736934448
1539731804807511,0.9767605096513314,-0.14984359502555877,-0.03155565728236809
1539731804823519,0.9721217669947357,-0.1421530479896238,-0.03033493553063238
1539731804839527,0.9741969939726864,-0.13995574883649953,-0.030945296406500233
1539731804855535,0.9838406958113985,-0.15252918287937733,-0.041443503471427334
1539731804871543,0.9937285420004578,-0.1694972152285037,-0.0508430609597923
1539731804887551,1.0009308003356985,-0.19464408331425975,-0.05169756618600729
1539731804903559,0.9936064698252842,-0.19464408331425975,-0.04486152437628732
1539731804919567,0.9823758297093157,-0.17669947356374438,-0.03143358510719452
1539731804935575,0.9778591592278936,-0.15301747158007162,-0.025818265049210254
1539731804951583,0.9713893339436943,-0.1442282749675745,-0.030090791180285237
1539731804967590,0.9693141069657436,-0.15045395590142663,-0.02801556420233453
1539731804983598,0.9695582513160907,-0.163149462119478,-0.034973678187228074
1539731804999606,0.97431906614786,-0.165712977798123,-0.04217593652246876
1539731805015614,0.9763942931258107,-0.166567483024338,-0.03265430685893023
1539731805031622,0.9829861905851836,-0.15716792553597303,-0.027405203326466676
