Timestamp (microseconds),Gyro X (°/s),Gyro Y (°/s),Gyro Z (°/s)
1539731780139984,20.965896086060866,7.4158846417944915,2.655069810025225
1539731780155985,37.628747997253186,6.500343327992596,2.8992141603723667
1539731780171987,39.39879453727008,5.157549401083315,2.4719615472647547
1539731780187989,27.86297398336751,4.486152437628789,0.7629510948347615
1539731780203991,15.10643167772946,5.0354772259097444,-0.5188067444876197
1539731780219992,6.8665598535133086,5.462729839017356,-1.0070954451819034
1539731780235994,7.4158846417944915,6.012054627298312,-0.15259021896690683
1539731780251996,13.58052948805971,6.683451590753066,1.739528496223329
1539731780267997,21.026932173647538,6.744487678339738,3.1433585107195086
1539731780283999,28.351262684061794,6.683451590753066,4.669260700389032
1539731780300001,29.449912260623933,6.561379415579495,6.439307240405924
1539731780316002,20.965896086060866,5.95101853971164,6.927595941100208
1539731780332004,8.819714656290444,5.706874189364498,6.439307240405924
1539731780348006,-2.227817196917613,5.462729839017356,5.828946364538069
1539731780364008,-5.462729839017356,4.974441138323073,5.523765926604028
1539731780380009,-3.2043945983061803,4.42511635004189,5.462729839017356
1539731780396011,-1.3122758831159445,3.5095750362402214,5.279621576256886
1539731780412013,-3.0823224231326094,2.7161058976118966,4.486152437628789
1539731780428014,-6.500343327992596,1.8005645838102282,3.570611123826893
1539731780444016,-8.697642481116873,0.5798428320745188,2.9602502479590385
1539731780460022,-6.744487678339738,-0.213626306553806,3.1433585107195086
1539731780476023,-2.7771419851987957,-0.6408789196611906,3.997863736934505
1539731780492025,-0.3967345693140487,-1.6174563210497581,4.669260700389032
1539731780508027,-3.814755474174035,-3.2043945983061803,4.058899824521177
1539731780524028,-8.697642481116873,-4.242008087281647,2.105745021744042
1539731780540030,-9.369039444571627,-4.791332875562603,0.7019150072480898
1539731780556032,-5.2185854886702145,-5.401693751430457,0.5188067444876197
1539731780572034,-1.2512397955290453,-6.195162890058782,0.45777065690094787
1539731780588035,-3.997863736934505,-7.232776379034021,-0.45777065690094787
1539731780604037,-11.20012207217519,-7.965209430075447,-2.166781109330941
1539731780620039,-18.341344319828977,-8.697642481116873,-3.875791561760934
1539731780636040,-19.501029983978015,-9.124895094224485,-4.852368963149502
1539731780652042,-14.312962539101136,-9.369039444571627,-4.974441138323073
1539731780668044,-7.17174029144735,-9.430075532158298,-4.303044174868319
1539731780684045,-3.1433585107195086,-9.67421988250544,-3.2043945983061803
1539731780700047,-4.303044174868319,-10.101472495613052,-2.4719615472647547
1539731780716049,-9.918364232852582,-10.162508583199724,-2.227817196917613
1539731780732051,-14.435034714274707,-9.85732814526591,-2.227817196917613
1539731780748052,-15.045395590142562,-9.73525597009234,-1.6784924086366573
1539731780764054,-10.89494163424115,-9.491111619745197,-0.9460593575952316
1539731780780059,-4.486152437628789,-9.369039444571627,-0.7019150072480898
1539731780796061,2.5940337224383256,-9.613183794918768,-0.7629510948347615
1539731780812063,4.180971999694748,-9.73525597009234,-1.3122758831159445
1539731780828065,1.3122758831159445,-9.613183794918768,-2.8381780727854675
1539731780844066,-2.5940337224383256,-9.430075532158298,-4.852368963149502
1539731780860068,-4.852368963149502,-8.941786831464015,-6.744487678339738
1539731780876070,-3.0212863355459376,-8.270389868009488,-7.721065079728305
1539731780892071,0.8850232700083325,-8.026245517662346,-8.087281605249018
1539731780908073,3.570611123826893,-7.660028992141633,-8.026245517662346
1539731780924075,5.462729839017356,-6.744487678339738,-8.087281605249018
1539731780940076,5.523765926604028,-5.706874189364498,-8.148317692835917
1539731780956078,4.242008087281647,-4.547188525215461,-7.904173342488775
1539731780972080,4.364080262455218,-3.3264667734797513,-7.598992904554734
1539731780988082,6.683451590753066,-2.288853284504512,-7.049668116273779
1539731781004083,10.955977721828049,-0.8850232700083325,-5.76791027695117
1539731781020085,14.496070801861606,0.7019150072480898,-3.997863736934505
1539731781036087,17.303730830853738,2.04470893415737,-1.983672846570471
1539731781052088,20.23346303501944,3.3264667734797513,-0.213626306553806
1539731781068090,19.684138246738257,3.936827649347606,1.0070954451819034
1539731781084092,15.167467765316132,4.364080262455218,0.8239871824216607
1539731781100158,10.284580758373295,5.2185854886702145,0.03051804379333589
1539731781116160,10.101472495613052,6.073090714885211,-0.33569848172737693
1539731781132162,13.519493400473038,6.256198977645454,0.03051804379333589
1539731781148163,18.158236057068734,6.195162890058782,0.7019150072480898
1539731781164165,18.402380407415876,5.95101853971164,0.7629510948347615
1539731781180167,13.702601663233281,5.645838101777599,0.09155413138023505
1539731781196169,9.796292057679011,5.279621576256886,-0.33569848172737693
1539731781212170,7.965209430075447,4.60822461280236,-0.03051804379333589
1539731781228172,7.843137254901876,3.692683299000464,0.5188067444876197
1539731781244174,8.270389868009488,2.532997634851654,0.6408789196611906
1539731781260175,8.575570305943302,1.4343480582895154,0.5798428320745188
1539731781276177,7.782101167315204,0.15259021896690683,0.03051804379333589
1539731781292179,8.880750743877343,-0.7629510948347615,-0.8850232700083325
1539731781308180,10.223544670786623,-1.9226367589837992,-1.9226367589837992
1539731781324182,12.542915999084471,-2.8381780727854675,-3.2654306858930795
1539731781340184,16.08300907911803,-4.058899824521177,-4.303044174868319
1539731781356186,18.280308232242305,-5.401693751430457,-5.157549401083315
1539731781372187,16.1440451667047,-6.500343327992596,-6.195162890058782
1539731781388189,10.772869459067579,-7.2938124666209205,-7.660028992141633
1539731781404191,8.51453421835663,-7.4158846417944915,-9.185931181811156
1539731781420318,15.10643167772946,-7.354848554207592,-9.979400320439481
1539731781436320,32.13550011444249,-7.232776379034021,-9.491111619745197
1539731781452323,58.9913786526281,-6.805523765926637,-7.537956816968062
1539731781468325,84.19928282597084,-5.76791027695117,-4.60822461280236
1539731781484327,96.77271686884887,-4.730296787975931,-2.105745021744042
1539731781500329,94.81956206607174,-4.364080262455218,-0.3967345693140487
1539731781516331,80.96437018387132,-3.936827649347606,0.15259021896690683
1539731781532333,51.911192492560986,-3.0823224231326094,-0.8850232700083325
1539731781548336,17.914091706721592,-1.8005645838102282,-2.532997634851654
1539731781564338,-12.970168612191856,-1.1291676203554744,-3.570611123826893
1539731781580340,-30.73167009994654,-0.45777065690094787,-3.4485389486533222
1539731781596342,-39.093614099336264,1.0681315327688026,-2.410925459678083
1539731781612344,-36.10284580758389,2.8381780727854675,-1.3122758831159445
1539731781628347,-28.473334859235365,3.570611123826893,-0.15259021896690683
1539731781644349,-24.26184481574728,4.303044174868319,1.4953841458761872
1539731781660351,-26.58121614404513,5.096513313496644,1.6784924086366573
1539731781676353,-31.89135576409558,5.462729839017356,0.5188067444876197
1539731781692355,-35.492484931716035,6.012054627298312,-0.09155413138023505
1539731781708357,-34.76005188067461,6.134126802471883,0.33569848172737693
1539731781724360,-33.41725795376533,6.561379415579495,1.4953841458761872
1539731781740417,-32.01342793926915,7.232776379034021,2.9602502479590385
1539731781756420,-27.74090180819394,7.721065079728305,4.180971999694748
1539731781772422,-20.782787823300396,9.369039444571627,4.60822461280236
1539731781788425,-10.772869459067579,9.430075532158298,5.706874189364498
1539731781804428,1.4343480582895154,7.4158846417944915,7.11070420386045
1539731781820430,8.45349813076973,4.852368963149502,8.880750743877343
1539731781836433,-2.166781109330941,3.3264667734797513,5.584802014190927
1539731781852436,-11.627374685282575,3.0823224231326094,2.3498893720911838
1539731781868438,-12.970168612191856,2.532997634851654,1.6784924086366573
1539731781884441,-6.927595941100208,1.6174563210497581,2.532997634851654
1539731781900444,-2.3498893720911838,1.6784924086366573,3.4485389486533222
1539731781916446,-1.5564202334630863,1.3122758831159445,3.875791561760934
1539731781932449,-0.8850232700083325,0.7019150072480898,3.997863736934505
1539731781948452,1.739528496223329,0.2746623941404778,4.669260700389032
1539731781964454,1.8616006713969,-0.6408789196611906,4.791332875562603
1539731781980457,-3.6316472114137923,-1.1291676203554744,3.814755474174035
1539731781996460,-8.33142595559616,-0.8850232700083325,3.0823224231326094
1539731782012462,-9.67421988250544,-0.5188067444876197,2.5940337224383256
1539731782028465,-4.547188525215461,0.03051804379333589,3.2654306858930795
1539731782044468,6.9886320286868795,-0.2746623941404778,4.852368963149502
1539731782060577,14.618142977035177,-0.7629510948347615,5.462729839017356
1539731782076580,18.524452582589447,-0.8850232700083325,5.645838101777599
1539731782092583,19.623102159151586,-1.0070954451819034,5.096513313496644
1539731782108586,23.407339589532285,-1.3733119707026162,5.2185854886702145
1539731782124590,28.900587472342977,-1.6784924086366573,6.073090714885211
1539731782140593,33.3562218661782,-2.288853284504512,7.049668116273779
1539731782156596,32.86793316548392,-2.8381780727854675,7.049668116273779
1539731782172599,23.7125200274661,-2.8992141603723667,6.744487678339738
1539731782188602,10.650797283894008,-2.7161058976118966,5.401693751430457
1539731782204605,1.0070954451819034,-2.7771419851987957,4.180971999694748
1539731782220608,-2.655069810025225,-3.0823224231326094,3.692683299000464
1539731782236611,-3.0823224231326094,-3.3875028610666504,3.0212863355459376
1539731782252615,-3.6316472114137923,-3.7537193865873633,2.288853284504512
1539731782268618,-7.354848554207592,-3.6316472114137923,1.3733119707026162
1539731782284621,-12.787060349431613,-3.3875028610666504,0.5188067444876197
1539731782300624,-17.42580300602731,-3.2654306858930795,-0.09155413138023505
1539731782316627,-19.256885633630873,-3.2043945983061803,-0.33569848172737693
1539731782332630,-20.843823910887295,-3.2654306858930795,-0.33569848172737693
1539731782348633,-22.79697871366443,-3.0823224231326094,-0.33569848172737693
1539731782364637,-22.49179827573039,-3.1433585107195086,-0.03051804379333589
1539731782380767,-23.163195239185143,-3.2654306858930795,0.3967345693140487
1539731782396771,-24.07873655298681,-3.3264667734797513,0.6408789196611906
1539731782412775,-23.89562829022657,-3.5095750362402214,0.6408789196611906
1539731782428778,-24.01770046540014,-3.6316472114137923,0.5188067444876197
1539731782444782,-25.29945830472252,-3.7537193865873633,0.09155413138023505
1539731782460785,-25.909819180590375,-3.997863736934505,-0.33569848172737693
1539731782476789,-28.96162355992965,-3.814755474174035,-0.33569848172737693
1539731782492793,-30.243381399252257,-3.6316472114137923,-0.33569848172737693
1539731782508796,-28.839551384756078,-3.570611123826893,-0.3967345693140487
1539731782524800,-26.031891355763946,-3.814755474174035,-0.09155413138023505
1539731782540804,-22.919050888838,-3.692683299000464,-0.09155413138023505
1539731782556807,-18.524452582589447,-3.814755474174035,-0.3967345693140487
1539731782572811,-14.557106889448278,-3.936827649347606,-0.5188067444876197
1539731782588814,-11.749446860456146,-3.997863736934505,-0.5188067444876197
1539731782604818,-12.4208438239109,-4.058899824521177,-0.8239871824216607
1539731782620822,-10.406652933546866,-3.4485389486533222,-1.0681315327688026
1539731782636825,-8.270389868009488,-3.4485389486533222,-1.1291676203554744
1539731782652829,-3.936827649347606,-3.4485389486533222,-1.3122758831159445
1539731782668832,-0.9460593575952316,-3.570611123826893,-1.3733119707026162
1539731782684836,-1.1291676203554744,-3.3264667734797513,-1.4953841458761872
1539731782700927,-1.739528496223329,-2.8381780727854675,-1.8616006713969
1539731782716931,-1.3122758831159445,-2.5940337224383256,-1.8616006713969
1539731782732936,1.5564202334630863,-2.288853284504512,-1.4343480582895154
1539731782748940,5.279621576256886,-2.288853284504512,-0.8850232700083325
1539731782764944,8.026245517662346,-1.983672846570471,-0.5798428320745188
1539731782780948,7.904173342488775,-1.3733119707026162,-0.5188067444876197
1539731782796952,7.660028992141633,-0.8850232700083325,-0.7629510948347615
1539731782812956,7.660028992141633,-0.7019150072480898,-1.1291676203554744
1539731782828960,6.744487678339738,-0.5798428320745188,-1.3122758831159445
1539731782844964,6.744487678339738,-0.8850232700083325,-1.3122758831159445
1539731782860968,6.683451590753066,-1.1902037079423735,-2.105745021744042
1539731782876972,4.547188525215461,-1.4953841458761872,-3.0212863355459376
1539731782892976,1.2512397955290453,-1.983672846570471,-3.7537193865873633
1539731782908980,0.8239871824216607,-2.3498893720911838,-4.852368963149502
1539731782924985,3.570611123826893,-2.8992141603723667,-5.462729839017356
1539731782940989,5.828946364538069,-3.570611123826893,-5.95101853971164
1539731782956993,6.378271152819025,-4.730296787975931,-6.500343327992596
1539731782972997,4.058899824521177,-6.134126802471883,-6.561379415579495
1539731782989001,-2.4719615472647547,-7.049668116273779,-7.049668116273779
1539731783005005,-8.575570305943302,-7.17174029144735,-8.209353780422589
1539731783021057,-11.871519035629717,-6.561379415579495,-9.124895094224485
1539731783037061,-13.397421225299468,-6.134126802471883,-9.491111619745197
1539731783053065,-13.153276874952326,-5.462729839017356,-9.979400320439481
1539731783069069,-10.345616845960194,-4.791332875562603,-9.430075532158298
1539731783085073,-6.683451590753066,-4.364080262455218,-8.270389868009488
1539731783101077,-5.0354772259097444,-4.303044174868319,-6.9886320286868795
1539731783117081,-5.523765926604028,-3.5095750362402214,-6.317235065232353
1539731783133085,-5.645838101777599,-2.166781109330941,-5.76791027695117
1539731783149089,-3.7537193865873633,-1.4343480582895154,-5.462729839017356
1539731783165094,-0.03051804379333589,-0.8239871824216607,-4.791332875562603
1539731783181098,3.3264667734797513,-0.5798428320745188,-3.875791561760934
1539731783197102,5.096513313496644,-0.3967345693140487,-3.1433585107195086
1539731783213106,5.096513313496644,-0.15259021896690683,-2.4719615472647547
1539731783229110,2.9602502479590385,0.03051804379333589,-1.8005645838102282
1539731783245114,2.410925459678083,1.0070954451819034,-1.1902037079423735
1539731783261118,4.547188525215461,1.1902037079423735,-0.15259021896690683
1539731783277122,5.0354772259097444,1.0070954451819034,0.9460593575952316
1539731783293126,5.096513313496644,0.9460593575952316,1.4343480582895154
1539731783309130,2.7161058976118966,0.7629510948347615,1.6784924086366573
1539731783325134,1.3733119707026162,0.7019150072480898,1.5564202334630863
1539731783341186,1.3733119707026162,0.33569848172737693,1.2512397955290453
1539731783357191,1.1291676203554744,-0.03051804379333589,1.3733119707026162
1539731783373195,-0.8850232700083325,-0.8239871824216607,1.3122758831159445
1539731783389200,-2.227817196917613,-1.5564202334630863,0.3967345693140487
1539731783405204,-3.6316472114137923,-1.5564202334630863,0.33569848172737693
1539731783421209,-1.8005645838102282,-1.9226367589837992,0.15259021896690683
1539731783437214,1.0681315327688026,-2.7161058976118966,0.03051804379333589
1539731783453218,0.3967345693140487,-3.2654306858930795,0.2746623941404778
1539731783469223,-2.04470893415737,-3.570611123826893,-0.45777065690094787
1539731783485227,-5.523765926604028,-4.119935912108076,-1.0070954451819034
1539731783501232,-7.721065079728305,-4.547188525215461,-1.1291676203554744
1539731783517236,-6.805523765926637,-4.42511635004189,-1.2512397955290453
1539731783533241,-5.0354772259097444,-4.9134050507361735,-1.2512397955290453
1539731783549245,-3.1433585107195086,-5.462729839017356,-1.3733119707026162
1539731783565250,-3.2043945983061803,-5.3406576638437855,-1.3733119707026162
1539731783581255,-3.875791561760934,-5.462729839017356,-1.6784924086366573
1539731783597259,-5.706874189364498,-5.462729839017356,-2.227817196917613
1539731783613264,-6.256198977645454,-5.401693751430457,-2.7771419851987957
1539731783629268,-5.462729839017356,-5.3406576638437855,-3.1433585107195086
1539731783645273,-4.9134050507361735,-5.401693751430457,-3.4485389486533222
1539731783661346,-2.8992141603723667,-5.0354772259097444,-3.4485389486533222
1539731783677351,-0.5188067444876197,-4.730296787975931,-3.0823224231326094
1539731783693355,-0.7629510948347615,-5.096513313496644,-3.0212863355459376
1539731783709360,-2.9602502479590385,-4.9134050507361735,-3.814755474174035
1539731783725364,-6.9886320286868795,-4.180971999694748,-5.279621576256886
1539731783741369,-7.232776379034021,-4.42511635004189,-5.462729839017356
1539731783757373,-5.462729839017356,-3.7537193865873633,-5.706874189364498
1539731783773378,-4.242008087281647,-3.0823224231326094,-6.073090714885211
1539731783789383,-3.814755474174035,-2.227817196917613,-6.9886320286868795
1539731783805387,-2.655069810025225,-1.3122758831159445,-7.2938124666209205
1539731783821392,1.5564202334630863,-0.6408789196611906,-6.561379415579495
1539731783837396,6.256198977645454,-0.03051804379333589,-5.401693751430457
1539731783853401,9.67421988250544,0.7629510948347615,-4.303044174868319
1539731783869405,9.491111619745197,1.1291676203554744,-3.4485389486533222
1539731783885410,6.073090714885211,1.4953841458761872,-3.1433585107195086
1539731783901414,3.4485389486533222,2.3498893720911838,-2.8992141603723667
1539731783917419,4.42511635004189,2.655069810025225,-1.983672846570471
1539731783933424,8.026245517662346,2.3498893720911838,-0.8239871824216607
1539731783949428,10.284580758373295,2.4719615472647547,0.33569848172737693
1539731783965433,11.444266422522333,2.410925459678083,1.1291676203554744
1539731783981475,8.026245517662346,1.9226367589837992,1.3733119707026162
1539731783997480,4.730296787975931,1.6174563210497581,1.4953841458761872
1539731784013485,2.105745021744042,1.2512397955290453,1.5564202334630863
1539731784029489,2.532997634851654,0.33569848172737693,1.9226367589837992
1539731784045494,2.4719615472647547,-0.8850232700083325,2.532997634851654
1539731784061498,1.5564202334630863,-1.6174563210497581,2.227817196917613
1539731784077503,-1.2512397955290453,-2.7771419851987957,1.9226367589837992
1539731784093507,-3.2043945983061803,-3.6316472114137923,1.3122758831159445
1539731784109512,-3.6316472114137923,-4.60822461280236,1.1291676203554744
1539731784125517,-3.3264667734797513,-5.584802014190927,1.1902037079423735
1539731784141521,-4.486152437628789,-6.805523765926637,0.7629510948347615
1539731784157526,-6.8665598535133086,-7.843137254901876,-0.03051804379333589
1539731784173530,-10.650797283894008,-8.6366063935302,-1.1902037079423735
1539731784189535,-13.397421225299468,-10.162508583199724,-1.6174563210497581
1539731784205539,-14.251926451514464,-11.810482948043045,-1.4953841458761872
1539731784221544,-16.693369954985883,-12.23773556115043,-1.2512397955290453
1539731784237548,-16.510261692225413,-12.603952086671143,-0.7629510948347615
1539731784253553,-16.571297779812312,-12.664988174258042,-0.45777065690094787
1539731784269558,-16.02197299153113,-12.176699473563758,0.45777065690094787
1539731784285562,-16.876478217746126,-11.749446860456146,1.1291676203554744
1539731784301635,-16.44922560463874,-10.711833371480907,1.3733119707026162
1539731784317640,-15.716792553597315,-9.491111619745197,1.8005645838102282
1539731784333645,-11.566338597695903,-8.209353780422589,2.166781109330941
1539731784349650,-6.744487678339738,-7.11070420386045,2.8992141603723667
1539731784365656,-3.3875028610666504,-6.134126802471883,3.2654306858930795
1539731784381661,-2.8381780727854675,-5.523765926604028,3.3264667734797513
1539731784397666,-4.180971999694748,-4.730296787975931,3.1433585107195086
1539731784413671,-7.11070420386045,-3.875791561760934,2.410925459678083
1539731784429676,-8.33142595559616,-3.0212863355459376,1.739528496223329
1539731784445681,-5.584802014190927,-2.3498893720911838,1.6174563210497581
1539731784461686,-1.8616006713969,-2.105745021744042,1.4953841458761872
1539731784477691,0.8239871824216607,-1.3733119707026162,1.4953841458761872
1539731784493696,2.8381780727854675,-0.8850232700083325,1.3122758831159445
1539731784509701,2.8381780727854675,-0.33569848172737693,0.9460593575952316
1539731784525706,2.105745021744042,0.2746623941404778,1.0681315327688026
1539731784541711,2.3498893720911838,0.8239871824216607,0.5798428320745188
1539731784557716,3.692683299000464,1.1291676203554744,0.5798428320745188
1539731784573721,5.76791027695117,0.9460593575952316,0.8850232700083325
1539731784589726,6.744487678339738,1.0070954451819034,1.0681315327688026
1539731784605731,5.2185854886702145,0.9460593575952316,0.8239871824216607
1539731784621795,1.2512397955290453,0.7019150072480898,0.213626306553806
1539731784637800,-0.33569848172737693,1.1902037079423735,-0.15259021896690683
1539731784653805,1.983672846570471,1.0681315327688026,-0.2746623941404778
1539731784669810,4.42511635004189,0.5798428320745188,-0.33569848172737693
1539731784685815,6.012054627298312,0.45777065690094787,-0.213626306553806
1539731784701820,6.927595941100208,0.33569848172737693,-0.5798428320745188
1539731784717826,7.721065079728305,-0.15259021896690683,-0.5188067444876197
1539731784733831,8.51453421835663,-1.2512397955290453,-0.09155413138023505
1539731784749836,7.11070420386045,-2.655069810025225,0.2746623941404778
1539731784765841,1.6784924086366573,-3.570611123826893,0.2746623941404778
1539731784781846,-6.317235065232353,-4.180971999694748,-0.03051804379333589
1539731784797851,-12.787060349431613,-3.875791561760934,-0.5798428320745188
1539731784813856,-13.519493400473038,-3.1433585107195086,-0.7019150072480898
1539731784829861,-6.927595941100208,-2.8992141603723667,0.03051804379333589
1539731784845866,0.5188067444876197,-3.1433585107195086,0.8239871824216607
1539731784861871,4.486152437628789,-3.2654306858930795,1.1902037079423735
1539731784877876,3.2043945983061803,-3.2043945983061803,1.0681315327688026
1539731784893881,-2.655069810025225,-3.1433585107195086,0.213626306553806
1539731784909886,-7.660028992141633,-2.8992141603723667,-0.6408789196611906
1539731784925891,-9.430075532158298,-2.655069810025225,-0.7019150072480898
1539731784941955,-6.805523765926637,-2.227817196917613,-0.03051804379333589
1539731784957961,-2.532997634851654,-1.5564202334630863,0.8850232700083325
1539731784973966,0.5798428320745188,-0.9460593575952316,1.9226367589837992
1539731784989972,2.288853284504512,-0.45777065690094787,2.655069810025225
1539731785005977,1.3733119707026162,0.09155413138023505,2.8992141603723667
1539731785021983,-0.8850232700083325,0.8850232700083325,2.9602502479590385
1539731785037988,-1.6784924086366573,1.3122758831159445,2.8381780727854675
1539731785053994,-2.166781109330941,1.6784924086366573,2.7161058976118966
1539731785069999,-1.6784924086366573,1.983672846570471,2.4719615472647547
1539731785086005,-1.5564202334630863,2.227817196917613,2.105745021744042
1539731785102010,-1.6784924086366573,2.105745021744042,2.04470893415737
1539731785118016,-4.242008087281647,2.105745021744042,2.166781109330941
1539731785134021,-6.378271152819025,2.5940337224383256,1.6174563210497581
1539731785150027,-4.180971999694748,2.7161058976118966,1.4343480582895154
1539731785166032,0.7019150072480898,2.288853284504512,1.9226367589837992
1539731785182038,5.096513313496644,2.166781109330941,2.4719615472647547
1539731785198043,6.500343327992596,2.3498893720911838,2.655069810025225
1539731785214049,4.058899824521177,2.288853284504512,2.410925459678083
1539731785230054,1.8616006713969,2.410925459678083,1.983672846570471
1539731785246060,0.2746623941404778,2.532997634851654,1.8005645838102282
1539731785262085,-1.0070954451819034,2.5940337224383256,1.739528496223329
1539731785278090,-1.2512397955290453,2.7161058976118966,1.4343480582895154
1539731785294096,-0.09155413138023505,2.8992141603723667,1.1291676203554744
1539731785310101,2.7161058976118966,2.8992141603723667,1.0070954451819034
1539731785326107,3.0212863355459376,2.8992141603723667,0.8239871824216607
1539731785342112,2.227817196917613,3.2654306858930795,0.6408789196611906
1539731785358118,0.7019150072480898,3.570611123826893,0.6408789196611906
1539731785374123,0.2746623941404778,3.5095750362402214,0.5188067444876197
1539731785390129,-1.5564202334630863,3.4485389486533222,0.5188067444876197
1539731785406134,-5.76791027695117,3.4485389486533222,0.33569848172737693
1539731785422140,-13.031204699778755,3.5095750362402214,0.213626306553806
1539731785438145,-19.501029983978015,4.669260700389032,0.45777065690094787
1539731785454151,-21.210040436408008,5.889982452124741,2.227817196917613
1539731785470156,-18.463416495002548,5.096513313496644,3.3875028610666504
1539731785486162,-18.097199969481835,4.364080262455218,3.814755474174035
1539731785502167,-16.08300907911803,4.669260700389032,3.692683299000464
1539731785518173,-10.040436408026153,3.997863736934505,3.875791561760934
1539731785534178,-6.134126802471883,2.288853284504512,3.692683299000464
1539731785550184,-6.317235065232353,0.8850232700083325,2.410925459678083
1539731785566189,-8.51453421835663,0.213626306553806,0.7629510948347615
1539731785582244,-13.64156557564661,0.213626306553806,-0.09155413138023505
1539731785598250,-25.36049439230942,-0.03051804379333589,0.8850232700083325
1539731785614256,-17.181658655680167,0.213626306553806,0.15259021896690683
1539731785630262,0.9460593575952316,0.3967345693140487,-0.03051804379333589
1539731785646268,13.946746013580423,-0.2746623941404778,2.04470893415737
1539731785662274,29.571984435797503,0.03051804379333589,1.8005645838102282
1539731785678280,49.46974898908957,0.7629510948347615,2.655069810025225
1539731785694286,67.10917830167091,0.6408789196611906,5.76791027695117
1539731785710292,73.4569314106966,1.6174563210497581,7.537956816968062
1539731785726298,66.8039978637371,1.4953841458761872,7.660028992141633
1539731785742304,41.04676890211317,0.33569848172737693,5.889982452124741
1539731785758310,7.843137254901876,0.15259021896690683,2.7161058976118966
1539731785774316,-20.965896086060866,0.2746623941404778,-0.45777065690094787
1539731785790322,-35.67559319447628,-0.03051804379333589,-2.9602502479590385
1539731785806328,-32.99000534065772,-0.7629510948347615,-3.875791561760934
1539731785822334,-23.224231326771815,-2.227817196917613,-4.180971999694748
1539731785838340,-9.246967269398056,-3.4485389486533222,-4.242008087281647
1539731785854346,1.6784924086366573,-3.7537193865873633,-4.547188525215461
1539731785870352,1.983672846570471,-3.2654306858930795,-3.936827649347606
1539731785886358,-1.6174563210497581,-2.166781109330941,-3.4485389486533222
1539731785902404,-2.532997634851654,-1.5564202334630863,-3.1433585107195086
1539731785918410,3.4485389486533222,-2.04470893415737,-2.4719615472647547
1539731785934416,13.58052948805971,-3.1433585107195086,-0.7629510948347615
1539731785950422,18.341344319828977,-3.692683299000464,-0.09155413138023505
1539731785966428,12.787060349431613,-3.1433585107195086,-0.5798428320745188
1539731785982434,9.308003356984727,-2.4719615472647547,-1.739528496223329
1539731785998440,6.012054627298312,-3.4485389486533222,-2.227817196917613
1539731786014446,4.547188525215461,-4.058899824521177,-3.3264667734797513
1539731786030452,1.9226367589837992,-3.570611123826893,-2.7161058976118966
1539731786046458,2.166781109330941,-2.8992141603723667,-2.227817196917613
1539731786062464,5.95101853971164,-2.8992141603723667,-0.5798428320745188
1539731786078470,6.439307240405924,-3.5095750362402214,0.6408789196611906
1539731786094476,0.5798428320745188,-4.180971999694748,0.3967345693140487
1539731786110482,-9.85732814526591,-4.669260700389032,-0.3967345693140487
1539731786126488,-19.867246509498727,-5.0354772259097444,-1.0681315327688026
1539731786142494,-27.069504844739413,-5.889982452124741,-1.739528496223329
1539731786158500,-31.769283588922008,-6.683451590753066,-1.983672846570471
1539731786174506,-33.66140230411247,-7.17174029144735,-2.655069810025225
1539731786190512,-35.91973754482342,-7.232776379034021,-3.1433585107195086
1539731786206518,-36.774242771038416,-6.744487678339738,-3.5095750362402214
1539731786222564,-38.23910887312127,-6.561379415579495,-3.814755474174035
1539731786238570,-36.4080262455177,-6.195162890058782,-3.1433585107195086
1539731786254576,-34.332799267567,-5.828946364538069,-2.7771419851987957
1539731786270582,-31.097886625467254,-4.730296787975931,-2.5940337224383256
1539731786286588,-26.092927443350845,-3.814755474174035,-2.04470893415737
1539731786302594,-16.693369954985883,-3.3264667734797513,-0.9460593575952316
1539731786318600,-6.8665598535133086,-3.2654306858930795,-0.213626306553806
1539731786334606,0.9460593575952316,-2.8992141603723667,0.5188067444876197
1539731786350612,2.5940337224383256,-2.410925459678083,0.15259021896690683
1539731786366618,-1.3122758831159445,-2.04470893415737,-0.45777065690094787
1539731786382624,-2.8381780727854675,-1.6784924086366573,-0.6408789196611906
1539731786398630,-2.8381780727854675,-1.2512397955290453,-0.9460593575952316
1539731786414636,0.8850232700083325,-1.2512397955290453,-0.8239871824216607
1539731786430642,0.15259021896690683,-1.4343480582895154,-1.1291676203554744
1539731786446648,-8.33142595559616,-0.9460593575952316,-2.8992141603723667
1539731786462654,-19.073777370870403,-0.6408789196611906,-5.0354772259097444
1539731786478660,-27.92401007095441,-0.213626306553806,-6.256198977645454
1539731786494666,-31.89135576409558,0.213626306553806,-6.622415503166167
1539731786510672,-30.36545357442583,0.8850232700083325,-4.852368963149502
1539731786526678,-23.041123064011572,2.3498893720911838,-2.105745021744042
1539731786542694,-12.176699473563758,2.7771419851987957,0.5188067444876197
1539731786558700,-6.378271152819025,2.532997634851654,1.6784924086366573
1539731786574706,-8.026245517662346,2.8992141603723667,2.8381780727854675
1539731786590712,-12.848096437018285,2.8381780727854675,3.0823224231326094
1539731786606718,-15.960936903944457,2.8992141603723667,2.8992141603723667
1539731786622724,-14.618142977035177,3.0212863355459376,2.8381780727854675
1539731786638730,-7.904173342488775,2.105745021744042,2.8381780727854675
1539731786654736,0.09155413138023505,1.4953841458761872,2.4719615472647547
1539731786670742,6.500343327992596,1.3733119707026162,2.4719615472647547
1539731786686748,7.4158846417944915,0.8850232700083325,2.9602502479590385
1539731786702754,12.176699473563758,0.7019150072480898,3.2043945983061803
1539731786718760,15.350576028076603,-0.15259021896690683,3.4485389486533222
1539731786734766,13.275349050125897,-1.0070954451819034,3.2654306858930795
1539731786750772,10.772869459067579,-1.9226367589837992,2.532997634851654
1539731786766778,9.613183794918768,-2.8381780727854675,2.4719615472647547
1539731786782784,11.383230334935433,-3.2043945983061803,3.2654306858930795
1539731786798790,15.289539940489703,-4.119935912108076,3.3875028610666504
1539731786814796,15.045395590142562,-4.974441138323073,3.4485389486533222
1539731786830802,11.444266422522333,-4.974441138323073,2.9602502479590385
1539731786846808,5.76791027695117,-4.486152437628789,1.983672846570471
1539731786862854,6.8665598535133086,-4.364080262455218,1.9226367589837992
1539731786878860,16.876478217746126,-4.058899824521177,3.4485389486533222
1539731786894867,26.39810788128466,-3.3875028610666504,5.0354772259097444
1539731786910873,25.665674830243233,-3.3875028610666504,5.279621576256886
1539731786926880,25.48256656748299,-2.5940337224383256,5.279621576256886
1539731786942886,20.477607385366582,-1.4343480582895154,5.523765926604028
1539731786958892,16.937514305333025,-0.8850232700083325,5.0354772259097444
1539731786974899,20.17242694743254,-0.7629510948347615,5.157549401083315
1539731786990905,20.11139085984587,-1.739528496223329,5.645838101777599
1539731787006912,15.655756466010416,-2.532997634851654,5.279621576256886
1539731787022918,6.9886320286868795,-2.7771419851987957,4.60822461280236
1539731787038925,-1.1902037079423735,-2.288853284504512,3.7537193865873633
1539731787054931,-3.1433585107195086,-1.8616006713969,2.9602502479590385
1539731787070938,-0.6408789196611906,-2.288853284504512,2.5940337224383256
1539731787086944,2.655069810025225,-2.7771419851987957,2.655069810025225
1539731787102951,-0.213626306553806,-2.5940337224383256,2.7771419851987957
1539731787118957,-7.232776379034021,-2.04470893415737,2.410925459678083
1539731787134964,-10.284580758373295,-1.739528496223329,2.105745021744042
1539731787150970,-13.031204699778755,-1.4953841458761872,2.105745021744042
1539731787166977,-17.24269474326684,-1.4953841458761872,2.105745021744042
1539731787183014,-24.505989166094423,-1.8616006713969,1.4953841458761872
1539731787199020,-29.694056610971074,-1.4953841458761872,1.0070954451819034
1539731787215026,-30.36545357442583,-1.4953841458761872,0.9460593575952316
1539731787231033,-25.23842221713585,-2.166781109330941,1.1291676203554744
1539731787247039,-18.58548867017612,-2.227817196917613,2.227817196917613
1539731787263046,-16.693369954985883,-3.0212863355459376,3.0212863355459376
1539731787279052,-19.562066071564686,-3.7537193865873633,2.410925459678083
1539731787295059,-24.26184481574728,-3.5095750362402214,1.8616006713969
1539731787311065,-26.58121614404513,-3.692683299000464,1.0070954451819034
1539731787327072,-23.407339589532285,-3.7537193865873633,0.7629510948347615
1539731787343078,-13.824673838406852,-3.692683299000464,1.0070954451819034
1539731787359085,-1.0681315327688026,-3.692683299000464,1.6784924086366573
1539731787375091,5.2185854886702145,-3.875791561760934,2.227817196917613
1539731787391098,5.645838101777599,-3.3875028610666504,2.288853284504512
1539731787407104,1.983672846570471,-2.8992141603723667,1.739528496223329
1539731787423111,-2.04470893415737,-2.9602502479590385,1.2512397955290453
1539731787439117,-3.0212863355459376,-2.9602502479590385,0.8850232700083325
1539731787455124,-0.6408789196611906,-3.0823224231326094,0.6408789196611906
1539731787471130,3.0212863355459376,-3.2043945983061803,0.8239871824216607
1539731787487136,5.645838101777599,-3.4485389486533222,1.0681315327688026
1539731787503173,5.523765926604028,-3.570611123826893,1.3122758831159445
1539731787519180,2.288853284504512,-3.5095750362402214,1.0070954451819034
1539731787535186,-1.8616006713969,-3.0823224231326094,0.5798428320745188
1539731787551193,-3.997863736934505,-2.5940337224383256,0.2746623941404778
1539731787567199,-5.0354772259097444,-2.227817196917613,0.45777065690094787
1539731787583206,-2.04470893415737,-2.04470893415737,0.8239871824216607
1539731787599212,0.8239871824216607,-2.166781109330941,1.3122758831159445
1539731787615219,4.119935912108076,-2.227817196917613,1.6174563210497581
1539731787631225,3.7537193865873633,-2.7771419851987957,1.983672846570471
1539731787647232,0.8239871824216607,-2.9602502479590385,1.8005645838102282
1539731787663238,1.0681315327688026,-2.532997634851654,2.04470893415737
1539731787679245,2.532997634851654,-2.4719615472647547,2.166781109330941
1539731787695251,7.537956816968062,-2.288853284504512,2.532997634851654
1539731787711258,11.261158159761862,-2.4719615472647547,3.0212863355459376
1539731787727264,10.345616845960194,-2.532997634851654,3.2043945983061803
1539731787743270,5.828946364538069,-2.410925459678083,2.655069810025225
1539731787759277,4.303044174868319,-2.288853284504512,2.288853284504512
1539731787775283,3.3875028610666504,-2.532997634851654,2.655069810025225
1539731787791290,2.04470893415737,-3.0212863355459376,2.9602502479590385
1539731787807296,1.6174563210497581,-3.2043945983061803,2.410925459678083
1539731787823303,-1.9226367589837992,-3.814755474174035,1.5564202334630863
1539731787839309,-5.828946364538069,-3.875791561760934,0.45777065690094787
1539731787855316,-3.4485389486533222,-3.3264667734797513,-0.5188067444876197
1539731787871322,-2.04470893415737,-3.3875028610666504,-0.09155413138023505
1539731787887329,-1.1291676203554744,-2.8381780727854675,0.2746623941404778
1539731787903335,1.5564202334630863,-2.4719615472647547,-0.213626306553806
1539731787919342,5.279621576256886,-2.166781109330941,-0.45777065690094787
1539731787935348,5.706874189364498,-2.7771419851987957,-0.2746623941404778
1539731787951355,1.8616006713969,-2.7771419851987957,-0.6408789196611906
1539731787967361,-0.5798428320745188,-2.227817196917613,-0.8850232700083325
1539731787983368,-2.9602502479590385,-2.105745021744042,-0.6408789196611906
1539731787999374,-2.532997634851654,-1.983672846570471,-0.213626306553806
1539731788015380,-1.6784924086366573,-2.3498893720911838,0.03051804379333589
1539731788031387,-4.058899824521177,-3.2043945983061803,-0.03051804379333589
1539731788047393,-8.209353780422589,-3.2654306858930795,-0.7019150072480898
1539731788063400,-11.261158159761862,-3.2043945983061803,-1.2512397955290453
1539731788079406,-10.040436408026153,-3.5095750362402214,-1.5564202334630863
1539731788095413,-7.598992904554734,-3.7537193865873633,-1.2512397955290453
1539731788111419,-5.279621576256886,-3.5095750362402214,-1.1902037079423735
1539731788127426,-2.8381780727854675,-2.8381780727854675,-1.0070954451819034
1539731788143463,0.09155413138023505,-2.166781109330941,-0.8850232700083325
1539731788159469,5.76791027695117,-1.5564202334630863,-0.7019150072480898
1539731788175476,9.002822919050914,-1.3733119707026162,-0.2746623941404778
1539731788191482,8.392462043183059,-1.1902037079423735,-0.09155413138023505
1539731788207489,2.4719615472647547,-1.0681315327688026,-0.7019150072480898
1539731788223495,-2.532997634851654,-0.7629510948347615,-1.2512397955290453
1539731788239502,-0.9460593575952316,-0.7019150072480898,-1.2512397955290453
1539731788255508,6.256198977645454,-1.2512397955290453,-0.45777065690094787
1539731788271515,12.664988174258042,-1.9226367589837992,0.45777065690094787
1539731788287521,13.336385137712568,-2.288853284504512,0.6408789196611906
1539731788303527,8.392462043183059,-2.288853284504512,-0.09155413138023505
1539731788319534,1.0681315327688026,-2.288853284504512,-0.9460593575952316
1539731788335540,-2.3498893720911838,-1.8005645838102282,-1.4343480582895154
1539731788351547,-1.0070954451819034,-1.9226367589837992,-1.4953841458761872
1539731788367553,3.814755474174035,-1.739528496223329,-1.1291676203554744
1539731788383560,5.706874189364498,-1.8005645838102282,-0.7019150072480898
1539731788399566,3.2043945983061803,-1.8616006713969,-1.1291676203554744
1539731788415573,0.09155413138023505,-1.4343480582895154,-1.3122758831159445
1539731788431579,-2.8992141603723667,-1.0681315327688026,-1.739528496223329
1539731788447586,-1.5564202334630863,-1.1291676203554744,-1.8005645838102282
1539731788463653,1.3733119707026162,-0.9460593575952316,-1.5564202334630863
1539731788479660,4.180971999694748,-0.8850232700083325,-1.3733119707026162
1539731788495667,4.180971999694748,-1.0681315327688026,-1.4343480582895154
1539731788511674,3.692683299000464,-0.7019150072480898,-1.4953841458761872
1539731788527681,3.692683299000464,-0.5188067444876197,-1.3122758831159445
1539731788543688,4.791332875562603,-0.3967345693140487,-1.2512397955290453
1539731788559695,6.561379415579495,-0.5188067444876197,-1.1291676203554744
1539731788575702,9.185931181811156,-0.5798428320745188,-0.8850232700083325
1539731788591709,11.01701380941472,-0.8239871824216607,-0.6408789196611906
1539731788607716,7.904173342488775,-1.2512397955290453,-0.5188067444876197
1539731788623723,3.7537193865873633,-1.3733119707026162,-0.5798428320745188
1539731788639730,1.1291676203554744,-1.2512397955290453,-1.0681315327688026
1539731788655737,-0.213626306553806,-1.4343480582895154,-1.0070954451819034
1539731788671743,0.5188067444876197,-1.4953841458761872,-0.8239871824216607
1539731788687750,2.3498893720911838,-1.6174563210497581,-0.7019150072480898
1539731788703757,3.3264667734797513,-1.983672846570471,-0.5188067444876197
1539731788719764,2.8992141603723667,-2.227817196917613,-0.45777065690094787
1539731788735771,0.45777065690094787,-1.983672846570471,-0.45777065690094787
1539731788751778,-1.8005645838102282,-1.8616006713969,-0.3967345693140487
1539731788767785,-3.3875028610666504,-1.983672846570471,-0.45777065690094787
1539731788783783,-2.7771419851987957,-1.8616006713969,-0.6408789196611906
1539731788799790,-1.9226367589837992,-1.4953841458761872,-0.8850232700083325
1539731788815796,0.8850232700083325,-0.6408789196611906,-0.6408789196611906
1539731788831803,4.60822461280236,0.3967345693140487,-0.03051804379333589
1539731788847810,6.9886320286868795,1.8005645838102282,0.3967345693140487
1539731788863817,10.467689021133765,2.7161058976118966,0.45777065690094787
1539731788879824,12.787060349431613,3.1433585107195086,0.45777065690094787
1539731788895831,13.58052948805971,3.6316472114137923,0.45777065690094787
1539731788911838,14.373998626688035,3.2043945983061803,0.33569848172737693
1539731788927845,13.519493400473038,2.655069810025225,0.2746623941404778
1539731788943852,11.566338597695903,1.9226367589837992,0.09155413138023505
1539731788959859,7.2938124666209205,0.9460593575952316,-0.2746623941404778
1539731788975866,2.9602502479590385,0.3967345693140487,-0.7019150072480898
1539731788991873,1.1291676203554744,-0.2746623941404778,-0.8239871824216607
1539731789007880,2.9602502479590385,-0.5188067444876197,-0.5798428320745188
1539731789023887,7.904173342488775,-1.3122758831159445,-0.3967345693140487
1539731789039894,11.810482948043045,-2.288853284504512,0.2746623941404778
1539731789055901,7.354848554207592,-2.8992141603723667,0.6408789196611906
1539731789071908,-1.1902037079423735,-2.8381780727854675,0.2746623941404778
1539731789087915,-7.049668116273779,-2.8381780727854675,-0.09155413138023505
1539731789103942,-7.965209430075447,-2.8992141603723667,0.15259021896690683
1539731789119949,-4.364080262455218,-2.8992141603723667,0.3967345693140487
1539731789135956,-0.45777065690094787,-3.0212863355459376,0.8239871824216607
1539731789151963,1.1902037079423735,-3.1433585107195086,1.0681315327688026
1539731789167970,-0.03051804379333589,-3.3264667734797513,0.7019150072480898
1539731789183977,-3.814755474174035,-3.1433585107195086,0.7629510948347615
1539731789199984,-5.706874189364498,-3.2043945983061803,0.2746623941404778
1539731789215991,-2.4719615472647547,-3.0823224231326094,0.45777065690094787
1539731789231998,-0.8850232700083325,-3.2654306858930795,1.0681315327688026
1539731789248005,-0.3967345693140487,-3.3264667734797513,0.5188067444876197
1539731789264012,-0.3967345693140487,-3.0212863355459376,0.2746623941404778
1539731789280019,-1.8005645838102282,-3.1433585107195086,-0.03051804379333589
1539731789296026,-1.6784924086366573,-3.0212863355459376,-0.09155413138023505
1539731789312033,-1.0070954451819034,-3.3264667734797513,0.213626306553806
1539731789328040,0.09155413138023505,-3.0823224231326094,0.2746623941404778
1539731789344047,0.45777065690094787,-3.0212863355459376,0.6408789196611906
1539731789360054,-0.9460593575952316,-2.4719615472647547,0.7629510948347615
1539731789376061,-1.5564202334630863,-1.9226367589837992,0.7629510948347615
1539731789392068,-2.227817196917613,-1.3122758831159445,0.9460593575952316
1539731789408074,-1.3122758831159445,-1.1291676203554744,1.0070954451819034
1539731789424102,0.7019150072480898,-1.0681315327688026,0.8239871824216607
1539731789440109,2.9602502479590385,-0.8239871824216607,0.8850232700083325
1539731789456116,3.0823224231326094,-0.8850232700083325,0.7629510948347615
1539731789472123,2.04470893415737,-0.5188067444876197,0.45777065690094787
1539731789488130,1.4343480582895154,-0.3967345693140487,0.5798428320745188
1539731789504137,1.0681315327688026,-0.8239871824216607,0.5798428320745188
1539731789520144,0.7629510948347615,-1.3733119707026162,0.7629510948347615
1539731789536151,-0.15259021896690683,-1.8616006713969,0.7629510948347615
1539731789552158,-1.5564202334630863,-2.105745021744042,0.6408789196611906
1539731789568165,-1.6784924086366573,-2.227817196917613,0.5188067444876197
1539731789584172,-1.1902037079423735,-2.532997634851654,0.5798428320745188
1539731789600179,-3.2043945983061803,-2.7161058976118966,0.5798428320745188
1539731789616186,-5.584802014190927,-2.7771419851987957,0.213626306553806
1539731789632193,-7.11070420386045,-2.3498893720911838,-0.09155413138023505
1539731789648200,-3.875791561760934,-2.5940337224383256,-0.3967345693140487
1539731789664207,1.6174563210497581,-2.655069810025225,-0.3967345693140487
1539731789680214,6.012054627298312,-3.6316472114137923,0.09155413138023505
1539731789696220,1.1291676203554744,-4.42511635004189,0.09155413138023505
1539731789712227,-9.73525597009234,-4.119935912108076,-0.3967345693140487
1539731789728234,-18.76859693293659,-3.814755474174035,-1.3733119707026162
1539731789744262,-20.782787823300396,-3.2654306858930795,-1.4953841458761872
1539731789760269,-15.533684290836845,-3.0212863355459376,-0.9460593575952316
1539731789776276,-9.55214770733187,-3.2043945983061803,0.03051804379333589
1539731789792283,-4.486152437628789,-3.4485389486533222,0.5188067444876197
1539731789808290,0.03051804379333589,-3.570611123826893,0.7019150072480898
1539731789824297,3.570611123826893,-4.242008087281647,0.8850232700083325
1539731789840304,1.983672846570471,-4.9134050507361735,1.0681315327688026
1539731789856311,-2.655069810025225,-5.462729839017356,0.213626306553806
1539731789872318,-8.33142595559616,-5.889982452124741,-0.9460593575952316
1539731789888325,-15.838864728770886,-6.378271152819025,-2.105745021744042
1539731789904332,-21.27107652399468,-6.683451590753066,-3.2043945983061803
1539731789920339,-22.003509575036105,-6.744487678339738,-3.936827649347606
1539731789936346,-16.632333867398984,-7.11070420386045,-3.875791561760934
1539731789952353,-9.55214770733187,-7.354848554207592,-3.6316472114137923
1539731789968360,-5.279621576256886,-7.660028992141633,-3.875791561760934
1539731789984367,-3.1433585107195086,-7.4158846417944915,-4.669260700389032
1539731790000373,2.532997634851654,-6.744487678339738,-4.9134050507361735
1539731790016380,8.270389868009488,-7.232776379034021,-4.669260700389032
1539731790032387,13.58052948805971,-7.476920729381163,-3.875791561760934
1539731790048394,15.960936903944457,-7.476920729381163,-3.692683299000464
1539731790064392,11.932555123216616,-7.660028992141633,-3.875791561760934
1539731790080399,3.5095750362402214,-7.354848554207592,-4.486152437628789
1539731790096406,-4.730296787975931,-6.9886320286868795,-4.974441138323073
1539731790112413,-6.378271152819025,-6.8665598535133086,-5.096513313496644
1539731790128420,-5.096513313496644,-6.622415503166167,-4.547188525215461
1539731790144426,-4.303044174868319,-5.95101853971164,-3.6316472114137923
1539731790160433,-2.655069810025225,-5.157549401083315,-2.7771419851987957
1539731790176440,-0.45777065690094787,-4.42511635004189,-1.4343480582895154
1539731790192447,0.7629510948347615,-4.180971999694748,0.2746623941404778
1539731790208454,-0.5798428320745188,-3.4485389486533222,1.0681315327688026
1539731790224461,-3.1433585107195086,-2.7161058976118966,1.0070954451819034
1539731790240468,-4.547188525215461,-1.983672846570471,1.2512397955290453
1539731790256475,-4.60822461280236,-1.3122758831159445,1.6784924086366573
1539731790272482,-3.6316472114137923,0.15259021896690683,1.8616006713969
1539731790288489,-3.5095750362402214,2.04470893415737,2.410925459678083
1539731790304496,-2.410925459678083,3.0823224231326094,2.8381780727854675
1539731790320503,-2.4719615472647547,3.2654306858930795,2.7771419851987957
1539731790336510,-2.288853284504512,2.5940337224383256,1.8616006713969
1539731790352517,0.2746623941404778,1.5564202334630863,0.6408789196611906
1539731790368524,2.410925459678083,0.5188067444876197,-0.213626306553806
1539731790384552,2.4719615472647547,-0.5798428320745188,-0.8239871824216607
1539731790400559,-1.4953841458761872,-1.983672846570471,-2.105745021744042
1539731790416566,-4.852368963149502,-2.8381780727854675,-3.7537193865873633
1539731790432572,-4.730296787975931,-3.0212863355459376,-4.303044174868319
1539731790448579,-2.04470893415737,-3.1433585107195086,-4.119935912108076
1539731790464586,-1.5564202334630863,-3.6316472114137923,-4.180971999694748
1539731790480593,-4.60822461280236,-4.058899824521177,-4.303044174868319
1539731790496600,-9.002822919050914,-4.364080262455218,-4.669260700389032
1539731790512607,-31.952391851682478,-7.782101167315204,-2.7771419851987957
1539731790528614,-25.17738612954895,-8.6366063935302,1.2512397955290453
1539731790544621,-32.806897077897474,-11.20012207217519,5.645838101777599
1539731790560628,-36.835278858625315,-14.312962539101136,9.308003356984727
1539731790576635,-33.29518577859176,-16.754406042572555,11.810482948043045
1539731790592642,-27.74090180819394,-17.914091706721592,14.312962539101136
1539731790608649,-20.05035477225897,-16.2050812542916,15.777828641183987
1539731790624656,-15.899900816357558,-12.176699473563758,15.594720378423744
1539731790640663,-11.01701380941472,-6.561379415579495,14.190890363927565
1539731790656670,-11.07804989700162,-1.1902037079423735,13.336385137712568
1539731790672677,-8.819714656290444,4.791332875562603,13.214312962538997
1539731790688684,-12.298771648737329,12.664988174258042,12.4208438239109
1539731790704712,-15.045395590142562,20.782787823300396,12.603952086671143
1539731790720718,-12.542915999084471,26.39810788128466,13.214312962538997
1539731790736725,-16.510261692225413,30.73167009994654,13.214312962538997
1539731790752732,-19.9282825970854,33.4172579537651,15.10643167772946
1539731790768739,-15.411612115663274,35.004196231021524,16.388189517051842
1539731790784746,-15.472648203250174,34.14969100480653,18.70756084534969
1539731790800753,-19.439993896391115,32.19653620202939,21.45418478675515
1539731790816760,-20.782787823300396,30.914778362706784,24.13977264057371
1539731790832767,-19.195849546043974,29.694056610971074,27.98504615854108
1539731790848774,-22.61387045090396,29.14473182269012,31.097886625467254
1539731790864781,-30.060273136491787,27.74090180819394,33.53933012893867
1539731790880788,-37.50667582207984,27.557793545433697,36.469062333104375
1539731790896795,-41.41298542763411,33.3562218661782,40.375371938658645
1539731790912802,-36.89631494621199,43.54924849317149,45.441367208361726
1539731790928809,-32.13550011444272,54.413672083619076,52.2163729304948
1539731790944816,-34.76005188067461,61.43282215609952,58.625162127107615
1539731790960823,-31.097886625467254,65.03395132372043,64.97291523613376
1539731790976830,-29.14473182269012,64.48462653543947,71.50377660791946
1539731790992837,-28.839551384756078,60.33417257953761,75.28801403830039
1539731791008844,-17.60891126878755,53.92538338292479,75.715266651408
1539731791024871,-8.941786831464015,46.11276417181648,73.51796749828372
1539731791040879,-17.48683909361398,35.43144884412891,68.8181887541009
1539731791056886,-21.39314869916825,26.459143968871558,61.67696650644666
1539731791072894,-9.796292057679011,21.026932173647538,53.55916685740431
1539731791088901,3.692683299000464,18.097199969481835,44.52582589456006
1539731791104909,7.476920729381163,16.876478217746126,37.07942320897223
1539731791120916,6.378271152819025,17.36476691844041,32.684824902723676
1539731791136923,-6.744487678339738,16.44922560463874,29.449912260623933
1539731791152931,3.6316472114137923,15.594720378423744,23.346303501945386
1539731791168938,37.87289234760033,15.228503852903032,15.655756466010416
1539731791184946,43.18303196765078,11.505302510109004,11.627374685282575
1539731791200953,36.83527885862509,4.852368963149502,9.73525597009234
1539731791216961,36.346990157930804,-2.5940337224383256,6.378271152819025
1539731791232968,46.845197222857905,-9.979400320439481,-1.1291676203554744
1539731791248975,45.99069199664291,-18.76859693293659,-11.871519035629717
1539731791264983,38.66636148622865,-27.008468757152514,-22.003509575036105
1539731791280990,60.090028229190466,-40.741588464179586,-24.444953078507524
1539731791296998,92.31708247501365,-66.07156481269544,-23.95666437781324
1539731791313005,132.2957198443578,-102.69321736476695,-25.60463874265656
1539731791329012,191.8059052414742,-149.44686045624462,-37.3235675593196
1539731791345001,188.93720912489516,-213.29060807202245,-48.92042420080884
1539731791361008,129.24391546501874,-293.30891889829877,-86.94590676737607
1539731791377015,116.4873731593807,-316.01434348058297,-120.63782711528188
1539731791393022,622.3544670786605,0.15259021896690683,94.94163424124508
1539731791409029,-247.77599755855658,-51.97222858014811,79.86572060730941
1539731791425036,-172.21332112611594,-50.20218204013122,64.91187914854663
1539731791441043,-129.7932402532997,-92.25604638742652,-13.946746013580423
1539731791457049,-107.51506828412312,-95.85717555504698,-63.08079652094307
1539731791473056,-132.66193636987873,-67.17021438925758,-84.8096437018387
1539731791489063,-75.95941100175469,-23.651483939879427,-79.62157625696182
1539731791505070,-131.5632867933166,7.843137254901876,-39.520866712443876
1539731791521077,18.280308232242305,46.845197222857905,-7.843137254901876
1539731791537084,74.61661707484564,72.05310139620087,2.9602502479590385
1539731791553091,-1.0070954451819034,78.33981841763944,13.275349050125897
1539731791569098,14.373998626688035,83.34477759975607,21.33211261158158
1539731791585105,3.4485389486533222,74.73868925001943,27.374685282673227
1539731791601112,-9.063859006637585,58.74723430228096,27.496757457846797
1539731791617119,1.739528496223329,41.35194934004721,22.980086976424673
1539731791633126,2.105745021744042,20.599679560540153,16.510261692225413
1539731791649133,9.55214770733187,2.288853284504512,7.904173342488775
1539731791665161,13.214312962538997,-10.223544670786623,-2.5940337224383256
1539731791681168,4.791332875562603,-17.42580300602731,-12.176699473563758
1539731791697176,-5.401693751430457,-20.11139085984587,-19.9893186846723
1539731791713183,-7.17174029144735,-20.477607385366582,-25.909819180590375
1539731791729190,-2.04470893415737,-18.463416495002548,-27.98504615854108
1539731791745198,3.3264667734797513,-13.702601663233281,-26.886396581978943
1539731791761205,3.875791561760934,-8.087281605249018,-25.23842221713585
1539731791777213,-1.5564202334630863,-5.523765926604028,-23.590447852292527
1539731791793220,0.2746623941404778,-8.6366063935302,-20.599679560540153
1539731791809228,4.119935912108076,-12.23773556115043,-17.853055619134693
1539731791825235,-4.669260700389032,-15.350576028076603,-14.618142977035177
1539731791841242,-18.036163881895163,-17.730983443961122,-13.397421225299468
1539731791857250,-18.097199969481835,-17.42580300602731,-15.716792553597315
1539731791873257,-20.416571297779683,-16.26611734187827,-20.660715648126825
1539731791889265,-23.224231326771815,-12.115663385976859,-23.95666437781324
1539731791905272,-44.525825894560285,-0.5798428320745188,-9.491111619745197
1539731791921280,-11.322194247348762,13.397421225299468,8.697642481116873
1539731791937287,20.782787823300396,15.228503852903032,12.848096437018285
1539731791953294,1.6784924086366573,10.284580758373295,11.566338597695903
1539731791969302,-16.510261692225413,3.692683299000464,7.354848554207592
1539731791985321,-20.904859998473967,-2.227817196917613,1.0681315327688026
1539731792001328,-20.782787823300396,-6.012054627298312,-6.073090714885211
1539731792017336,-15.411612115663274,-6.927595941100208,-11.871519035629717
1539731792033343,-13.397421225299468,-7.049668116273779,-15.716792553597315
1539731792049350,-18.58548867017612,-6.073090714885211,-14.312962539101136
1539731792065358,-16.02197299153113,-1.0681315327688026,-6.378271152819025
1539731792081365,-7.721065079728305,2.04470893415737,-1.1902037079423735
1539731792097373,-3.875791561760934,2.4719615472647547,-1.6174563210497581
1539731792113380,-2.227817196917613,2.166781109330941,-3.875791561760934
1539731792129387,-1.6174563210497581,0.15259021896690683,-5.523765926604028
1539731792145395,-5.0354772259097444,-3.997863736934505,-7.537956816968062
1539731792161402,-8.026245517662346,-5.645838101777599,-9.85732814526591
1539731792177410,-13.76363775082018,-4.364080262455218,-10.101472495613052
1539731792193417,-16.632333867398984,-1.2512397955290453,-7.660028992141633
1539731792209425,-15.594720378423744,0.7019150072480898,-6.134126802471883
1539731792225432,-11.993591210803288,-0.45777065690094787,-6.073090714885211
1539731792241439,-11.993591210803288,-2.288853284504512,-7.2938124666209205
1539731792257447,-8.758678568703772,-2.166781109330941,-7.782101167315204
1539731792273454,-9.67421988250544,-2.3498893720911838,-6.622415503166167
1539731792289462,-20.660715648126825,-3.1433585107195086,-6.256198977645454
1539731792305481,-46.17380025940338,-3.570611123826893,-6.9886320286868795
1539731792321488,-72.11413748378732,-3.3875028610666504,-5.0354772259097444
1539731792337495,-89.8146028839551,-3.1433585107195086,-2.7161058976118966
1539731792353503,-100.92317082475029,-2.227817196917613,0.09155413138023505
1539731792369510,-107.51506828412312,-2.166781109330941,3.997863736934505
1539731792385518,-121.85854886701759,-1.6784924086366573,6.012054627298312
1539731792401525,-121.55336842908378,0.45777065690094787,6.683451590753066
1539731792417533,-125.64278629739829,-0.15259021896690683,10.467689021133765
1539731792433540,-101.65560387579171,-1.8616006713969,14.740215152208748
1539731792449547,32.684824902723676,-4.058899824521177,14.251926451514464
1539731792465555,155.48943312733627,-8.270389868009488,20.05035477225897
1539731792481562,248.9356832227054,-11.505302510109004,28.290226596475122
1539731792497570,318.5168230716413,-13.45845731288614,34.57694361791391
1539731792513577,315.0377660791946,-13.092240787365427,35.30937666895534
1539731792529585,252.90302891584633,-9.369039444571627,31.403067063401068
1539731792545592,144.1367208361944,-7.232776379034021,25.17738612954895
1539731792561599,35.91973754482319,-5.0354772259097444,16.1440451667047
1539731792577607,-61.371786068513074,-1.0070954451819034,7.4158846417944915
1539731792593614,-131.5022507057297,1.8616006713969,1.3733119707026162
1539731792609622,-163.79034103913955,-1.3122758831159445,-3.2043945983061803
1539731792625610,-181.36873426413376,-1.6174563210497581,-2.7161058976118966
1539731792641617,-173.6171511406119,-2.4719615472647547,-1.6784924086366573
1539731792657625,-143.40428778515297,-3.814755474174035,0.3967345693140487
1539731792673632,-109.89547570000764,-4.60822461280236,1.6174563210497581
1539731792689640,-87.19005111772321,-4.42511635004189,2.288853284504512
1539731792705647,-76.63080796520944,-2.166781109330941,1.983672846570471
1539731792721655,-57.09925993743809,0.5798428320745188,1.983672846570471
1539731792737662,-29.14473182269012,0.09155413138023505,2.7161058976118966
1539731792753669,-8.880750743877343,1.2512397955290453,1.1291676203554744
1539731792769677,22.49179827573039,4.180971999694748,-1.3122758831159445
1539731792785684,69.06233310444804,9.185931181811156,-2.5940337224383256
1539731792801692,108.24750133516454,11.566338597695903,-2.655069810025225
1539731792817699,140.53559166857394,9.85732814526591,-5.523765926604028
1539731792833706,163.85137712672622,6.683451590753066,-7.965209430075447
1539731792849714,185.64126039520852,3.4485389486533222,-7.598992904554734
1539731792865721,168.5511558709086,-0.15259021896690683,-2.9602502479590385
1539731792881729,105.92813000686647,-0.45777065690094787,5.645838101777599
1539731792897736,26.276035706111088,1.6174563210497581,8.819714656290444
1539731792913744,-19.745174334325156,4.974441138323073,6.9886320286868795
1539731792929751,-27.86297398336751,6.805523765926637,8.45349813076973
1539731792945770,2.105745021744042,5.828946364538069,12.787060349431613
1539731792961777,22.125581750209676,3.3264667734797513,17.303730830853738
1539731792977785,21.69832913710229,2.227817196917613,20.05035477225897
1539731792993792,31.036850537880355,5.157549401083315,20.23346303501944
1539731793009800,69.36751354238231,10.101472495613052,18.463416495002548
1539731793025807,126.25314717326637,16.632333867398984,18.89066910811016
1539731793041814,95.7961394674603,13.946746013580423,16.876478217746126
1539731793057822,68.63508049134089,14.862287327382319,10.284580758373295
1539731793073829,36.71320668345152,15.167467765316132,3.814755474174035
1539731793089837,-9.308003356984727,13.45845731288614,-1.4953841458761872
1539731793105844,-34.088654917219856,15.10643167772946,-6.927595941100208
1539731793121852,-30.975814450293683,10.955977721828049,-9.67421988250544
1539731793137859,-41.962310215915295,3.814755474174035,-9.124895094224485
1539731793153866,-32.01342793926915,-1.0681315327688026,-8.6366063935302
1539731793169874,-7.660028992141633,1.2512397955290453,-9.613183794918768
1539731793185881,10.284580758373295,5.0354772259097444,-10.528725108720437
1539731793201889,26.6422522316318,16.44922560463874,-9.369039444571627
1539731793217896,58.075837338826204,28.534370946822264,-11.01701380941472
1539731793233904,32.379644464789635,32.501716639963206,-14.862287327382319
1539731793249911,-33.72243839169914,27.80193789578084,-17.914091706721592
1539731793265930,-70.5271992065309,23.468375677118956,-17.42580300602731
1539731793281937,-48.6152437628748,21.820401312275862,-11.322194247348762
1539731793297945,11.01701380941472,17.42580300602731,-4.058899824521177
1539731793313952,34.63797970550081,11.07804989700162,1.6784924086366573
1539731793329959,27.435721370260126,9.246967269398056,4.547188525215461
1539731793345967,5.2185854886702145,8.880750743877343,-0.6408789196611906
1539731793361974,-6.561379415579495,12.176699473563758,-5.706874189364498
1539731793377982,-7.721065079728305,12.23773556115043,-5.95101853971164
1539731793393989,-0.8850232700083325,9.491111619745197,-4.242008087281647
1539731793409997,16.08300907911803,6.744487678339738,-1.9226367589837992
1539731793426004,16.1440451667047,2.166781109330941,-0.09155413138023505
1539731793442011,3.2654306858930795,0.213626306553806,-0.7019150072480898
1539731793458019,-1.3122758831159445,2.3498893720911838,-2.4719615472647547
1539731793474026,-7.476920729381163,2.8992141603723667,-2.8992141603723667
1539731793490034,-13.153276874952326,2.655069810025225,-2.8992141603723667
1539731793506041,-2.7161058976118966,4.058899824521177,-0.3967345693140487
1539731793522049,11.322194247348762,4.547188525215461,1.4953841458761872
1539731793538056,31.64721141374821,2.9602502479590385,2.166781109330941
1539731793554063,53.92538338292479,2.227817196917613,5.523765926604028
1539731793570071,71.32066834515945,1.2512397955290453,7.660028992141633
1539731793586090,66.62088960097662,-0.6408789196611906,7.232776379034021
1539731793602097,56.42786297398334,1.0070954451819034,5.76791027695117
1539731793618105,47.33348592355219,2.166781109330941,4.486152437628789
1539731793634112,32.257572289616064,-0.15259021896690683,3.2043945983061803
1539731793650119,29.022659647516548,-0.6408789196611906,3.7537193865873633
1539731793666127,28.107118333714652,-0.7629510948347615,4.791332875562603
1539731793682134,13.031204699778755,-2.04470893415737,3.5095750362402214
1539731793698142,-7.4158846417944915,-2.166781109330941,1.6174563210497581
1539731793714149,-22.430762188143717,-0.7629510948347615,0.7019150072480898
1539731793730157,-29.51094834821083,1.4343480582895154,-0.213626306553806
1539731793746164,-31.586175326161765,3.2654306858930795,0.15259021896690683
1539731793762171,-34.82108796826128,3.7537193865873633,0.45777065690094787
1539731793778179,-32.07446402685605,3.7537193865873633,1.4343480582895154
1539731793794186,-18.82963302052326,4.119935912108076,3.814755474174035
1539731793810194,-1.4953841458761872,5.706874189364498,7.904173342488775
1539731793826201,12.481879911497572,7.721065079728305,11.444266422522333
1539731793842208,15.472648203250174,8.45349813076973,13.519493400473038
1539731793858216,0.213626306553806,8.880750743877343,14.862287327382319
1539731793874223,-27.496757457846797,8.33142595559616,12.4208438239109
1539731793890231,-56.54993514915691,6.927595941100208,6.8665598535133086
1539731793906219,-79.07225146868086,5.706874189364498,1.0070954451819034
1539731793922227,-76.99702449073015,6.561379415579495,-2.532997634851654
1539731793938234,-44.95307850766767,7.354848554207592,-1.1291676203554744
1539731793954241,11.566338597695903,6.317235065232353,5.462729839017356
1539731793970249,61.06660563057903,4.486152437628789,12.298771648737329
1539731793986256,91.5236133363851,2.7771419851987957,15.777828641183987
1539731794002264,98.11551079575793,2.227817196917613,15.655756466010416
1539731794018271,85.35896849011988,2.9602502479590385,13.336385137712568
1539731794034278,68.20782787823327,4.791332875562603,10.101472495613052
1539731794050286,47.57763027389933,5.462729839017356,8.6366063935302
1539731794066293,39.58190280003032,5.3406576638437855,6.622415503166167
1539731794082301,43.9154650186922,4.974441138323073,6.439307240405924
1539731794098308,36.89631494621176,3.875791561760934,5.401693751430457
1539731794114316,18.646524757763018,1.983672846570471,3.4485389486533222
1539731794130323,-2.7771419851987957,1.2512397955290453,0.09155413138023505
1539731794146330,-24.322880903333953,-1.0681315327688026,-3.7537193865873633
1539731794162338,-36.4080262455177,-2.8992141603723667,-6.683451590753066
1539731794178345,-32.56275272755033,-4.974441138323073,-8.087281605249018
1539731794194353,-16.998550392919697,-6.561379415579495,-7.4158846417944915
1539731794210360,4.364080262455218,-8.575570305943302,-5.2185854886702145
1539731794226379,12.970168612191856,-10.955977721828049,-4.42511635004189
1539731794242386,9.979400320439481,-12.909132524605184,-6.073090714885211
1539731794258394,4.303044174868319,-13.824673838406852,-9.55214770733187
1539731794274401,-6.439307240405924,-15.10643167772946,-11.688410772869474
1539731794290409,-14.435034714274707,-14.740215152208748,-11.566338597695903
1539731794306416,-16.388189517051842,-13.45845731288614,-10.406652933546866
1539731794322424,-14.679179064621849,-13.214312962538997,-9.246967269398056
1539731794338431,-6.012054627298312,-13.64156557564661,-7.965209430075447
1539731794354438,-2.8992141603723667,-13.275349050125897,-6.9886320286868795
1539731794370446,-1.5564202334630863,-12.359807736324,-5.828946364538069
1539731794386453,-15.960936903944457,-12.848096437018285,-6.683451590753066
1539731794402461,-35.06523231860842,-13.702601663233281,-10.223544670786623
1539731794418468,-40.436408026245545,-15.228503852903032,-13.45845731288614
1539731794434476,-21.33211261158158,-16.388189517051842,-12.848096437018285
1539731794450483,-3.0212863355459376,-17.42580300602731,-11.627374685282575
1539731794466490,11.505302510109004,-18.036163881895163,-9.85732814526591
1539731794482498,9.613183794918768,-18.89066910811016,-9.796292057679011
1539731794498505,1.9226367589837992,-16.754406042572555,-11.20012207217519
1539731794514513,-7.4158846417944915,-13.58052948805971,-12.176699473563758
1539731794530520,-6.8665598535133086,-8.819714656290444,-10.89494163424115
1539731794546569,-1.739528496223329,-5.462729839017356,-7.965209430075447
1539731794562577,1.9226367589837992,-4.486152437628789,-5.157549401083315
1539731794578584,0.5188067444876197,-2.7161058976118966,-2.288853284504512
1539731794594592,-5.3406576638437855,-0.6408789196611906,-1.739528496223329
1539731794610599,-8.51453421835663,1.739528496223329,-1.1902037079423735
1539731794626607,-3.2654306858930795,3.3875028610666504,0.33569848172737693
1539731794642614,6.927595941100208,4.180971999694748,1.4953841458761872
1539731794658621,3.3264667734797513,3.875791561760934,1.1902037079423735
1539731794674629,-0.33569848172737693,2.288853284504512,1.3122758831159445
1539731794690636,6.622415503166167,0.213626306553806,2.532997634851654
1539731794706644,11.383230334935433,-1.0681315327688026,2.4719615472647547
1539731794722651,12.298771648737329,-2.166781109330941,1.6784924086366573
1539731794738659,11.01701380941472,-2.8992141603723667,0.213626306553806
1539731794754666,12.4208438239109,-2.288853284504512,-0.3967345693140487
1539731794770673,13.153276874952326,-2.532997634851654,-1.1902037079423735
1539731794786681,14.312962539101136,-3.6316472114137923,-2.105745021744042
1539731794802688,18.82963302052326,-4.303044174868319,-2.5940337224383256
1539731794818696,30.60959792477297,-3.4485389486533222,-3.0212863355459376
1539731794834703,32.01342793926892,-3.4485389486533222,-3.2043945983061803
1539731794850710,25.848783093003703,-3.1433585107195086,-2.7771419851987957
1539731794866729,16.02197299153113,-2.655069810025225,-2.4719615472647547
1539731794882737,3.814755474174035,-1.6784924086366573,-2.227817196917613
1539731794898744,-4.791332875562603,-0.5188067444876197,-1.1902037079423735
1539731794914752,-16.08300907911803,-0.09155413138023505,0.213626306553806
1539731794930759,-34.69901579308771,-0.5798428320745188,0.5798428320745188
1539731794946766,-48.432135500114555,0.7629510948347615,-0.09155413138023505
1539731794962774,-59.60173952849618,2.105745021744042,-1.1902037079423735
1539731794978781,-59.1744869153888,2.655069810025225,-2.105745021744042
1539731794994789,-39.64293888761745,4.119935912108076,-0.45777065690094787
1539731795010796,-16.754406042572555,4.669260700389032,1.9226367589837992
1539731795026804,2.655069810025225,5.706874189364498,3.0823224231326094
1539731795042811,13.58052948805971,6.805523765926637,3.5095750362402214
1539731795058818,17.059586480506596,7.4158846417944915,3.570611123826893
1539731795074826,17.36476691844041,7.598992904554734,3.3264667734797513
1539731795090833,13.214312962538997,7.476920729381163,3.0823224231326094
1539731795106841,9.124895094224485,6.500343327992596,3.3264667734797513
1539731795122848,6.256198977645454,6.073090714885211,3.5095750362402214
1539731795138856,1.9226367589837992,5.462729839017356,3.1433585107195086
1539731795154863,4.058899824521177,5.0354772259097444,2.655069810025225
1539731795170870,8.148317692835917,4.303044174868319,2.9602502479590385
1539731795186859,11.383230334935433,2.8381780727854675,3.0823224231326094
1539731795202866,12.664988174258042,1.739528496223329,2.410925459678083
1539731795218874,11.444266422522333,1.6174563210497581,1.3122758831159445
1539731795234881,6.439307240405924,1.2512397955290453,0.09155413138023505
1539731795250888,-2.227817196917613,-0.213626306553806,-1.0681315327688026
1539731795266896,-8.575570305943302,-0.8239871824216607,-1.4343480582895154
1539731795282903,-15.228503852903032,-0.7629510948347615,-1.8616006713969
1539731795298911,-18.95170519569683,-1.3733119707026162,-2.8381780727854675
1539731795314918,-16.1440451667047,-1.8005645838102282,-2.227817196917613
1539731795330926,-13.58052948805971,-2.7771419851987957,-0.5188067444876197
1539731795346933,-17.79201953154802,-2.8992141603723667,0.6408789196611906
1539731795362940,-19.684138246738257,-2.166781109330941,0.2746623941404778
1539731795378948,-16.876478217746126,-1.6174563210497581,-0.45777065690094787
1539731795394955,-9.185931181811156,-1.0681315327688026,-1.1902037079423735
1539731795410963,0.8850232700083325,-1.0070954451819034,-1.3122758831159445
1539731795426970,12.542915999084471,-0.8850232700083325,-0.33569848172737693
1539731795442978,27.252613107499656,-0.5798428320745188,1.1902037079423735
1539731795458985,41.412985427633885,0.2746623941404778,2.410925459678083
1539731795474992,48.126955062180514,1.0070954451819034,2.7771419851987957
1539731795491000,50.75150682841195,1.4953841458761872,2.4719615472647547
1539731795507019,36.89631494621176,-0.5798428320745188,0.03051804379333589
1539731795523026,30.243381399252257,-2.105745021744042,-0.33569848172737693
1539731795539034,15.960936903944457,-0.8850232700083325,1.6174563210497581
1539731795555041,-11.871519035629717,0.8850232700083325,0.5188067444876197
1539731795571048,-32.01342793926915,1.2512397955290453,-2.288853284504512
1539731795587056,-47.27244983596552,1.8005645838102282,-3.6316472114137923
1539731795603063,-45.746547646295994,2.04470893415737,-3.3264667734797513
1539731795619071,-27.74090180819394,3.0212863355459376,-1.2512397955290453
1539731795635078,-5.462729839017356,5.462729839017356,2.166781109330941
1539731795651085,14.373998626688035,8.697642481116873,3.7537193865873633
1539731795667093,33.05104142824439,10.528725108720437,5.279621576256886
1539731795683100,48.98146028839528,11.505302510109004,7.660028992141633
1539731795699108,56.61097123674335,10.406652933546866,8.51453421835663
1539731795715115,56.0616464484624,9.491111619745197,6.9886320286868795
1539731795731123,53.19295033188337,7.537956816968062,2.105745021744042
1539731795747130,27.80193789578084,4.60822461280236,-0.03051804379333589
1539731795763137,-16.632333867398984,0.5798428320745188,-1.2512397955290453
1539731795779145,-62.34836346990164,-2.7161058976118966,-6.805523765926637
1539731795795152,-84.38239108873108,-2.288853284504512,-9.185931181811156
1539731795811160,-87.12901503013654,-0.3967345693140487,-8.819714656290444
1539731795827179,-73.27382314793613,0.7019150072480898,-7.11070420386045
1539731795843186,-52.338445105668825,-0.09155413138023505,-4.852368963149502
1539731795859193,-17.120622568093268,-0.15259021896690683,0.03051804379333589
1539731795875201,24.444953078507524,0.9460593575952316,3.570611123826893
1539731795891208,49.89700160219718,1.2512397955290453,4.60822461280236
1539731795907216,60.02899214160334,1.5564202334630863,4.852368963149502
1539731795923223,56.73304341191715,1.983672846570471,4.60822461280236
1539731795939231,44.46478980697316,1.9226367589837992,2.655069810025225
1539731795955238,34.45487144274034,2.5940337224383256,1.0070954451819034
1539731795971245,26.947432669565842,2.8381780727854675,0.33569848172737693
1539731795987253,24.13977264057371,2.288853284504512,1.5564202334630863
1539731796003260,14.557106889448278,1.6784924086366573,2.5940337224383256
1539731796019268,4.547188525215461,1.6174563210497581,2.04470893415737
1539731796035275,-2.3498893720911838,0.7019150072480898,0.8239871824216607
1539731796051283,-5.523765926604028,0.8239871824216607,0.7019150072480898
1539731796067290,-1.6784924086366573,1.1291676203554744,1.3122758831159445
1539731796083297,3.2654306858930795,0.3967345693140487,2.105745021744042
1539731796099305,6.134126802471883,0.03051804379333589,2.9602502479590385
1539731796115312,9.002822919050914,-0.213626306553806,3.7537193865873633
1539731796131320,8.45349813076973,-1.6174563210497581,3.4485389486533222
1539731796147338,8.758678568703772,-2.04470893415737,3.2654306858930795
1539731796163346,12.359807736324,-2.227817196917613,3.570611123826893
1539731796179353,14.190890363927565,-3.2654306858930795,3.570611123826893
1539731796195361,13.031204699778755,-4.119935912108076,3.814755474174035
1539731796211368,6.317235065232353,-4.119935912108076,3.1433585107195086
1539731796227376,0.45777065690094787,-4.242008087281647,2.04470893415737
1539731796243383,-6.195162890058782,-3.997863736934505,1.4343480582895154
1539731796259390,-9.185931181811156,-3.5095750362402214,0.6408789196611906
1539731796275398,-7.843137254901876,-3.692683299000464,0.09155413138023505
1539731796291405,-3.4485389486533222,-3.2654306858930795,0.33569848172737693
1539731796307413,1.739528496223329,-2.166781109330941,1.0070954451819034
1539731796323420,2.5940337224383256,-1.739528496223329,2.8992141603723667
1539731796339428,1.983672846570471,-0.9460593575952316,3.7537193865873633
1539731796355435,-3.814755474174035,-0.2746623941404778,3.2654306858930795
1539731796371442,-12.970168612191856,-1.2512397955290453,0.8850232700083325
1539731796387450,-19.378957808804444,-2.410925459678083,-1.8616006713969
1539731796403457,-15.533684290836845,-2.4719615472647547,-2.7771419851987957
1539731796419465,-3.1433585107195086,-2.7771419851987957,-2.288853284504512
1539731796435472,13.885709925993751,-2.7161058976118966,-0.8850232700083325
1539731796451480,25.787747005416804,-2.7161058976118966,0.6408789196611906
1539731796467468,24.383916990920852,-3.0212863355459376,0.6408789196611906
1539731796483475,12.603952086671143,-3.2654306858930795,-0.45777065690094787
1539731796499483,-11.810482948043045,-3.936827649347606,-1.6784924086366573
1539731796515490,-21.637293049515392,-4.547188525215461,-1.6784924086366573
1539731796531498,-18.219272144655406,-3.936827649347606,-1.1291676203554744
1539731796547505,-15.899900816357558,-4.42511635004189,-0.15259021896690683
1539731796563512,-13.397421225299468,-4.974441138323073,0.213626306553806
1539731796579520,-13.885709925993751,-4.9134050507361735,-0.03051804379333589
1539731796595527,-14.007782101167322,-5.157549401083315,-0.5798428320745188
1539731796611535,-12.664988174258042,-5.3406576638437855,-0.7629510948347615
1539731796627542,-9.979400320439481,-5.2185854886702145,-0.5798428320745188
1539731796643550,-8.209353780422589,-5.645838101777599,-0.6408789196611906
1539731796659557,-8.575570305943302,-5.828946364538069,-0.7629510948347615
1539731796675564,-9.063859006637585,-5.523765926604028,-0.5798428320745188
1539731796691572,-10.650797283894008,-5.584802014190927,-0.2746623941404778
1539731796707579,-13.275349050125897,-5.401693751430457,-0.2746623941404778
1539731796723587,-14.312962539101136,-5.096513313496644,-0.45777065690094787
1539731796739594,-15.838864728770886,-4.730296787975931,-0.3967345693140487
1539731796755602,-15.899900816357558,-4.180971999694748,-0.45777065690094787
1539731796771609,-13.885709925993751,-3.936827649347606,-0.3967345693140487
1539731796787628,-12.054627298390187,-3.692683299000464,-0.03051804379333589
1539731796803635,-9.002822919050914,-3.1433585107195086,0.15259021896690683
1539731796819643,-5.2185854886702145,-2.288853284504512,0.6408789196611906
1539731796835650,-0.5188067444876197,-1.6784924086366573,1.6174563210497581
1539731796851657,4.242008087281647,-1.0681315327688026,2.410925459678083
1539731796867665,7.721065079728305,-0.45777065690094787,2.8381780727854675
1539731796883672,10.528725108720437,-0.7629510948347615,2.9602502479590385
1539731796899680,14.557106889448278,-1.983672846570471,2.4719615472647547
1539731796915687,18.280308232242305,-2.7771419851987957,1.6784924086366573
1539731796931695,20.599679560540153,-4.119935912108076,1.1291676203554744
1539731796947702,16.1440451667047,-4.852368963149502,0.8239871824216607
1539731796963709,2.7771419851987957,-5.645838101777599,-0.5188067444876197
1539731796979717,-9.796292057679011,-6.439307240405924,-2.410925459678083
1539731796995724,-15.411612115663274,-6.256198977645454,-3.875791561760934
1539731797011732,-11.993591210803288,-6.561379415579495,-3.692683299000464
1539731797027739,-4.669260700389032,-7.232776379034021,-3.1433585107195086
1539731797043747,1.983672846570471,-7.11070420386045,-1.5564202334630863
1539731797059754,4.42511635004189,-5.95101853971164,-0.7629510948347615
1539731797075761,0.5798428320745188,-5.76791027695117,-0.9460593575952316
1539731797091769,-2.9602502479590385,-5.645838101777599,-1.0681315327688026
1539731797107788,-3.7537193865873633,-5.523765926604028,-1.1902037079423735
1539731797123795,-1.6174563210497581,-6.317235065232353,-2.105745021744042
1539731797139803,0.3967345693140487,-5.584802014190927,-1.8616006713969
1539731797155810,-1.0070954451819034,-5.523765926604028,-2.105745021744042
1539731797171817,-5.0354772259097444,-5.584802014190927,-2.3498893720911838
1539731797187825,-17.36476691844041,-4.730296787975931,-2.9602502479590385
1539731797203832,-32.867933165484146,-4.974441138323073,-4.547188525215461
1539731797219840,-52.3994811932555,-5.157549401083315,-5.584802014190927
1539731797235847,-78.64499885557325,-2.410925459678083,-8.392462043183059
1539731797251855,-71.19859616998542,-1.8616006713969,-9.369039444571627
1539731797267862,-63.20286869611664,-1.8005645838102282,-7.598992904554734
1539731797283869,-41.0467689021134,-1.9226367589837992,-4.852368963149502
1539731797299877,-14.80125123979542,-1.8616006713969,-2.04470893415737
1539731797315884,8.209353780422589,-1.6174563210497581,0.5798428320745188
1539731797331892,23.773556115052997,-2.04470893415737,2.105745021744042
1539731797347899,24.200808728160382,-2.166781109330941,3.1433585107195086
1539731797363906,15.10643167772946,-2.105745021744042,2.288853284504512
1539731797379914,2.655069810025225,-1.3733119707026162,0.5188067444876197
1539731797395921,-5.2185854886702145,-0.3967345693140487,-0.5798428320745188
1539731797411929,-3.4485389486533222,-0.03051804379333589,-0.45777065690094787
1539731797427917,6.561379415579495,0.03051804379333589,1.0070954451819034
1539731797443925,22.67490653849086,-0.09155413138023505,2.9602502479590385
1539731797459932,38.60532539864175,-0.15259021896690683,4.364080262455218
1539731797475939,45.99069199664291,-0.2746623941404778,5.0354772259097444
1539731797491947,48.43213550011433,-0.15259021896690683,4.303044174868319
1539731797507954,42.877851529716736,-0.15259021896690683,3.3264667734797513
1539731797523962,35.004196231021524,-1.0070954451819034,2.4719615472647547
1539731797539969,25.116350041962278,-1.2512397955290453,1.8005645838102282
1539731797555976,13.946746013580423,-1.8005645838102282,1.0681315327688026
1539731797571984,3.0823224231326094,-2.288853284504512,-0.09155413138023505
1539731797587991,-5.2185854886702145,-2.410925459678083,-0.7629510948347615
1539731797603999,-10.528725108720437,-2.5940337224383256,-1.0681315327688026
1539731797620006,-13.031204699778755,-2.288853284504512,-0.45777065690094787
1539731797636014,-12.664988174258042,-2.105745021744042,-0.2746623941404778
1539731797652021,-8.33142595559616,-2.288853284504512,0.3967345693140487
1539731797668028,-3.0212863355459376,-2.04470893415737,1.1291676203554744
1539731797684036,2.9602502479590385,-2.04470893415737,1.3122758831159445
1539731797700043,6.317235065232353,-2.04470893415737,1.739528496223329
1539731797716051,6.561379415579495,-2.4719615472647547,1.9226367589837992
1539731797732058,3.814755474174035,-2.288853284504512,1.1902037079423735
1539731797748108,1.0681315327688026,-2.105745021744042,0.09155413138023505
1539731797764115,2.7161058976118966,-1.5564202334630863,-0.45777065690094787
1539731797780122,22.369726100556818,-1.739528496223329,0.03051804379333589
1539731797796130,29.816128786144645,-2.532997634851654,1.4953841458761872
1539731797812137,33.844510566872486,-2.7771419851987957,1.739528496223329
1539731797828145,29.938200961318216,-3.4485389486533222,0.09155413138023505
1539731797844152,23.102159151598244,-3.4485389486533222,0.03051804379333589
1539731797860159,10.223544670786623,-3.814755474174035,-0.33569848172737693
1539731797876167,-7.782101167315204,-3.570611123826893,-2.4719615472647547
1539731797892174,-21.45418478675515,-3.1433585107195086,-3.997863736934505
1539731797908182,-26.092927443350845,-2.8992141603723667,-4.180971999694748
1539731797924189,-25.970855268177274,-2.5940337224383256,-3.7537193865873633
1539731797940197,-23.102159151598244,-1.983672846570471,-3.3875028610666504
1539731797956204,-20.17242694743254,-1.4343480582895154,-2.9602502479590385
1539731797972211,-17.853055619134693,-1.1902037079423735,-2.8992141603723667
1539731797988219,-14.373998626688035,-0.8239871824216607,-3.0212863355459376
1539731798004226,-10.955977721828049,-0.3967345693140487,-2.7161058976118966
1539731798020234,-9.369039444571627,0.2746623941404778,-2.655069810025225
1539731798036241,-10.284580758373295,0.45777065690094787,-3.2654306858930795
1539731798052249,-10.223544670786623,0.7019150072480898,-3.7537193865873633
1539731798068267,-3.936827649347606,1.0681315327688026,-3.2043945983061803
1539731798084275,1.0681315327688026,0.8850232700083325,-2.227817196917613
1539731798100282,2.105745021744042,1.1902037079423735,-1.739528496223329
1539731798116290,5.279621576256886,1.4953841458761872,-1.4953841458761872
1539731798132297,9.063859006637585,1.4953841458761872,-0.8850232700083325
1539731798148305,10.89494163424115,1.6784924086366573,-0.5798428320745188
1539731798164312,7.965209430075447,1.2512397955290453,-0.213626306553806
1539731798180319,-5.706874189364498,0.7019150072480898,-0.15259021896690683
1539731798196327,-18.524452582589447,0.03051804379333589,-1.8616006713969
1539731798212334,-27.435721370260126,-0.7019150072480898,-3.570611123826893
1539731798228342,-35.67559319447628,-0.2746623941404778,-4.119935912108076
1539731798244349,-33.23414969100486,0.6408789196611906,-4.42511635004189
1539731798260357,-21.57625696192872,0.7019150072480898,-3.4485389486533222
1539731798276364,-8.148317692835917,0.33569848172737693,-1.1902037079423735
1539731798292371,3.0823224231326094,-0.213626306553806,0.5798428320745188
1539731798308379,5.279621576256886,-1.1291676203554744,0.2746623941404778
1539731798324386,-1.8616006713969,-1.2512397955290453,-0.45777065690094787
1539731798340394,-8.51453421835663,-0.6408789196611906,-0.8239871824216607
1539731798356401,-8.758678568703772,-0.09155413138023505,-0.33569848172737693
1539731798372408,-5.76791027695117,-0.2746623941404778,1.4953841458761872
1539731798388427,-12.359807736324,0.213626306553806,2.8381780727854675
1539731798404435,-26.947432669565842,0.6408789196611906,2.410925459678083
1539731798420442,-42.999923704890534,0.03051804379333589,0.213626306553806
1539731798436450,-50.873579003585974,-0.5188067444876197,-2.410925459678083
1539731798452457,-52.277409018081926,-0.6408789196611906,-1.8616006713969
1539731798468464,-58.99137865262833,-0.5188067444876197,-0.7019150072480898
1539731798484472,-76.02044708934159,-0.9460593575952316,-1.4343480582895154
1539731798500479,-87.92248416876464,0.213626306553806,-2.288853284504512
1539731798516487,-79.49950408178825,1.5564202334630863,-1.3733119707026162
1539731798532494,-64.48462653543902,2.227817196917613,1.6784924086366573
1539731798548502,-67.9636835278859,-1.739528496223329,8.758678568703772
1539731798564509,-68.26886396581972,-9.67421988250544,16.26611734187827
1539731798580516,-29.694056610971074,-7.843137254901876,12.359807736324
1539731798596524,-26.092927443350845,-4.974441138323073,10.772869459067579
1539731798612531,-2.166781109330941,-3.2043945983061803,8.45349813076973
1539731798628539,21.14900434882111,-3.875791561760934,7.721065079728305
1539731798644546,25.848783093003703,-4.303044174868319,7.660028992141633
1539731798660554,17.914091706721592,-4.60822461280236,5.95101853971164
1539731798676561,20.416571297779683,-5.096513313496644,3.0823224231326094
1539731798692568,34.14969100480653,-5.889982452124741,1.8005645838102282
1539731798708557,71.01548790722518,-6.744487678339738,3.2043945983061803
1539731798724564,92.0729381246665,-6.317235065232353,6.9886320286868795
1539731798740572,98.48172732127887,-6.134126802471883,8.6366063935302
1539731798756579,95.4909590295265,-4.364080262455218,7.904173342488775
1539731798772586,74.00625619897801,-2.4719615472647547,6.805523765926637
1539731798788594,46.17380025940315,-4.974441138323073,3.2043945983061803
1539731798804601,15.655756466010416,-5.523765926604028,0.9460593575952316
1539731798820609,-33.90554665445961,-6.378271152819025,-1.6784924086366573
1539731798836616,-76.87495231555658,-7.17174029144735,-6.317235065232353
1539731798852624,-89.8146028839551,-3.2654306858930795,-9.430075532158298
1539731798868631,-77.85152971694515,-0.8239871824216607,-9.308003356984727
1539731798884638,-44.09857328145267,-1.4343480582895154,-6.073090714885211
1539731798900646,10.162508583199724,-2.4719615472647547,-0.5188067444876197
1539731798916653,64.91187914854663,-2.4719615472647547,3.6316472114137923
1539731798932661,97.3830777447165,-1.983672846570471,6.012054627298312
1539731798948668,109.04097047379264,-0.7019150072480898,7.17174029144735
1539731798964676,107.45403219653645,-0.5798428320745188,7.2938124666209205
1539731798980683,95.42992294193937,-1.0681315327688026,6.439307240405924
1539731798996690,80.65918974593751,-0.8850232700083325,4.242008087281647
1539731799012698,59.41863126573571,-0.03051804379333589,1.739528496223329
1539731799028717,40.253299763485074,-0.7019150072480898,-0.15259021896690683
1539731799044724,23.224231326771815,-1.0070954451819034,-0.9460593575952316
1539731799060732,7.843137254901876,-1.4343480582895154,-1.6174563210497581
1539731799076739,-3.4485389486533222,-1.0070954451819034,-2.410925459678083
1539731799092746,-9.67421988250544,0.09155413138023505,-1.983672846570471
1539731799108754,-9.369039444571627,0.03051804379333589,-0.2746623941404778
1539731799124761,-5.0354772259097444,0.09155413138023505,1.0070954451819034
1539731799140769,-4.730296787975931,-0.213626306553806,1.3733119707026162
1539731799156776,-5.523765926604028,-1.1902037079423735,1.0681315327688026
1539731799172783,-15.350576028076603,0.213626306553806,-1.1291676203554744
1539731799188791,-4.242008087281647,-0.2746623941404778,2.166781109330941
1539731799204798,10.162508583199724,1.3733119707026162,3.3264667734797513
1539731799220806,25.665674830243233,0.2746623941404778,4.60822461280236
1539731799236813,23.285267414358714,-0.2746623941404778,5.157549401083315
1539731799252821,10.467689021133765,-1.739528496223329,3.4485389486533222
1539731799268828,-4.730296787975931,-1.9226367589837992,2.227817196917613
1539731799284835,-7.049668116273779,-2.04470893415737,1.0681315327688026
1539731799300843,4.486152437628789,-1.739528496223329,2.288853284504512
1539731799316850,12.176699473563758,-2.410925459678083,4.547188525215461
1539731799332858,13.031204699778755,-2.8381780727854675,5.279621576256886
1539731799348877,16.08300907911803,-2.3498893720911838,4.242008087281647
1539731799364884,24.444953078507524,-1.5564202334630863,3.875791561760934
1539731799380891,37.384603646906044,-1.8005645838102282,4.730296787975931
1539731799396899,38.971541924162466,-1.8005645838102282,6.134126802471883
1539731799412906,24.933241779201808,-3.1433585107195086,5.2185854886702145
1539731799428914,6.9886320286868795,-3.0823224231326094,2.5940337224383256
1539731799444921,-3.997863736934505,-2.3498893720911838,1.0070954451819034
1539731799460929,-4.058899824521177,-2.105745021744042,0.9460593575952316
1539731799476936,0.8850232700083325,-1.9226367589837992,1.8005645838102282
1539731799492943,5.889982452124741,-1.8616006713969,3.0212863355459376
1539731799508951,9.73525597009234,-1.6784924086366573,3.4485389486533222
1539731799524958,9.491111619745197,-0.5798428320745188,3.875791561760934
1539731799540966,3.875791561760934,0.09155413138023505,3.997863736934505
1539731799556973,4.180971999694748,-0.15259021896690683,3.570611123826893
1539731799572981,10.284580758373295,0.03051804379333589,4.180971999694748
1539731799588988,10.955977721828049,0.09155413138023505,4.60822461280236
1539731799604995,4.730296787975931,-0.6408789196611906,4.119935912108076
1539731799621003,-3.6316472114137923,-1.1902037079423735,2.7771419851987957
1539731799637010,-8.026245517662346,-1.6784924086366573,1.4953841458761872
1539731799653018,-11.749446860456146,-2.3498893720911838,0.3967345693140487
1539731799669036,-14.557106889448278,-2.166781109330941,-0.6408789196611906
1539731799685044,-13.275349050125897,-2.227817196917613,-1.1291676203554744
1539731799701051,-7.11070420386045,-2.532997634851654,-0.3967345693140487
1539731799717059,-2.8992141603723667,-2.8381780727854675,-0.5188067444876197
1539731799733066,-3.3264667734797513,-3.1433585107195086,-0.9460593575952316
1539731799749074,-5.645838101777599,-3.2654306858930795,-1.4343480582895154
1539731799765081,-8.697642481116873,-3.0823224231326094,-2.166781109330941
1539731799781088,-7.598992904554734,-3.3264667734797513,-2.288853284504512
1539731799797096,-2.655069810025225,-3.4485389486533222,-1.5564202334630863
1539731799813103,3.3875028610666504,-3.692683299000464,-0.2746623941404778
1539731799829111,6.439307240405924,-4.119935912108076,0.7629510948347615
1539731799845118,4.791332875562603,-3.875791561760934,1.1902037079423735
1539731799861126,-1.0070954451819034,-4.42511635004189,0.8239871824216607
1539731799877133,-6.134126802471883,-4.42511635004189,-0.15259021896690683
1539731799893140,-9.613183794918768,-3.997863736934505,-0.8850232700083325
1539731799909148,-8.819714656290444,-3.814755474174035,-1.0070954451819034
1539731799925155,-7.11070420386045,-4.119935912108076,-0.6408789196611906
1539731799941163,-4.9134050507361735,-3.814755474174035,-0.213626306553806
1539731799957170,-3.0212863355459376,-3.4485389486533222,-0.09155413138023505
1539731799973178,-1.9226367589837992,-3.2654306858930795,0.213626306553806
1539731799989166,-1.4343480582895154,-3.3264667734797513,0.09155413138023505
1539731800005173,-1.0681315327688026,-4.242008087281647,-0.09155413138023505
1539731800021181,-3.2043945983061803,-5.3406576638437855,-1.0681315327688026
1539731800037188,-4.974441138323073,-5.401693751430457,-2.227817196917613
1539731800053196,-3.6316472114137923,-4.791332875562603,-3.1433585107195086
1539731800069203,6.378271152819025,-3.6316472114137923,-3.2654306858930795
1539731800085210,11.749446860456146,-2.8381780727854675,-3.4485389486533222
1539731800101218,5.096513313496644,-2.9602502479590385,-3.936827649347606
1539731800117225,1.0070954451819034,-1.2512397955290453,-6.012054627298312
1539731800133233,-2.8992141603723667,1.5564202334630863,-10.101472495613052
1539731800149240,-1.983672846570471,4.547188525215461,-15.228503852903032
1539731800165248,-7.660028992141633,7.2938124666209205,-17.730983443961122
1539731800181255,-15.777828641183987,8.392462043183059,-16.32715342946517
1539731800197262,-18.219272144655406,9.67421988250544,-13.092240787365427
1539731800213270,-11.261158159761862,11.07804989700162,-8.026245517662346
1539731800229277,-4.242008087281647,11.749446860456146,-0.7019150072480898
1539731800245285,-0.8850232700083325,11.749446860456146,7.965209430075447
1539731800261292,-4.486152437628789,12.603952086671143,14.92332341496899
1539731800277300,-6.927595941100208,15.045395590142562,18.402380407415876
1539731800293307,-7.049668116273779,20.05035477225897,18.82963302052326
1539731800309326,-3.936827649347606,25.48256656748299,18.341344319828977
1539731800325333,-5.95101853971164,29.571984435797503,19.684138246738257
1539731800341341,-8.941786831464015,31.89135576409535,23.7125200274661
1539731800357348,-11.07804989700162,32.74586099031035,28.290226596475122
1539731800373355,-10.833905546654478,34.821087968261054,33.3562218661782
1539731800389363,-10.040436408026153,37.689784084840085,38.11703669794747
1539731800405370,-11.261158159761862,41.7792019531546,43.060959792477206
1539731800421378,-9.613183794918768,45.99069199664291,47.27244983596529
1539731800437385,-13.214312962538997,48.79835202563481,50.32425421530479
1539731800453393,-11.566338597695903,51.667048142213844,52.82673380636288
1539731800469400,-11.749446860456146,52.094300755321456,53.80331120775145
1539731800485407,-11.932555123216616,53.00984206912335,54.413672083619076
1539731800501415,-18.70756084534969,55.1461051346605,54.23056382085906
1539731800517422,-25.665674830243233,57.64858472571905,51.60601205462717
1539731800533430,-24.872205691615136,61.24971389333905,46.60105287251076
1539731800549437,-20.17242694743254,65.40016784924092,42.633707179369594
1539731800565445,-20.477607385366582,68.63508049134089,41.22987716487364
1539731800581452,-26.58121614404513,71.0765239948123,42.69474326695649
1539731800597459,-21.27107652399468,71.32066834515945,42.938887617303635
1539731800613467,-12.481879911497572,68.39093614099374,42.633707179369594
1539731800629486,-6.8665598535133086,65.27809567406757,42.20645456626221
1539731800645493,-10.650797283894008,57.46547646295858,39.09361409933604
1539731800661501,-9.308003356984727,45.01411459525434,29.51094834821083
1539731800677508,3.4485389486533222,27.435721370260126,14.679179064621849
1539731800693515,11.505302510109004,2.410925459678083,-3.3264667734797513
1539731800709523,22.186617837796575,-27.374685282673227,-23.041123064011572
1539731800725530,38.23910887312104,-58.07583733882666,-40.558480201419115
1539731800741538,38.42221713588151,-85.60311284046679,-55.14610513466096
1539731800757545,44.037537193865774,-107.57610437170979,-69.12336919203472
1539731800773553,70.9544518196385,-123.56755931944758,-82.06301976043324
1539731800789560,111.97070267795834,-144.38086518654154,-91.40154116121153
1539731800805567,168.9784084840162,-189.36446173800255,-93.47676813916223
1539731800821575,195.10185397116084,-285.5573357747769,-110.32272831311525
1539731800837582,154.69596398870817,-402.0752269779507,-133.08918898298612
1539731800853590,-14.740215152208748,-129.30495155260542,-13.702601663233281
1539731800869597,34.76005188067438,27.435721370260126,29.571984435797503
1539731800885604,228.79377431906642,50.32425421530479,5.584802014190927
1539731800901612,-209.3232623788815,-1.3733119707026162,-2.5940337224383256
1539731800917619,-114.10696574349595,-26.82536049439227,-23.224231326771815
1539731800933627,-65.94949263752187,-10.772869459067579,-31.89135576409558
1539731800949676,-46.23483634699028,22.247653925383247,-25.543602655069662
1539731800965684,-8.819714656290444,45.92965590905601,-8.941786831464015
1539731800981692,-3.2654306858930795,49.95803768978385,18.341344319828977
1539731800997700,5.645838101777599,42.02334630350174,40.55848020141889
1539731801013708,3.875791561760934,27.252613107499656,50.14114595254432
1539731801029716,-2.8992141603723667,15.655756466010416,45.80758373388244
1539731801045724,-8.880750743877343,9.185931181811156,31.83031967650868
1539731801061731,-15.167467765316132,4.058899824521177,13.58052948805971
1539731801077739,-14.373998626688035,-0.5798428320745188,-5.157549401083315
1539731801093747,-16.388189517051842,-4.9134050507361735,-18.89066910811016
1539731801109755,-24.567025253681095,-8.392462043183059,-23.346303501945386
1539731801125763,-22.8580148012511,-11.627374685282575,-21.33211261158158
1539731801141771,-7.843137254901876,-12.603952086671143,-15.045395590142562
1539731801157779,1.3733119707026162,-11.627374685282575,-6.561379415579495
1539731801173787,1.5564202334630863,-11.505302510109004,2.410925459678083
1539731801189795,-4.9134050507361735,-12.176699473563758,7.843137254901876
1539731801205803,5.462729839017356,-11.261158159761862,7.598992904554734
1539731801221810,7.537956816968062,-10.406652933546866,4.852368963149502
1539731801237818,5.706874189364498,-9.796292057679011,1.8616006713969
1539731801253826,3.997863736934505,-11.505302510109004,-2.105745021744042
1539731801269806,0.8850232700083325,-15.777828641183987,-5.0354772259097444
1539731801285813,4.303044174868319,-17.914091706721592,-5.828946364538069
1539731801301820,6.622415503166167,-18.524452582589447,-5.523765926604028
1539731801317828,5.279621576256886,-16.510261692225413,-3.997863736934505
1539731801333835,2.9602502479590385,-13.58052948805971,-1.6174563210497581
1539731801349843,3.3875028610666504,-10.955977721828049,0.213626306553806
1539731801365850,5.2185854886702145,-8.6366063935302,1.1291676203554744
1539731801381857,7.354848554207592,-6.134126802471883,1.4343480582895154
1539731801397865,6.9886320286868795,-3.936827649347606,1.6784924086366573
1539731801413872,-1.8616006713969,-3.1433585107195086,1.1291676203554744
1539731801429880,1.6784924086366573,-3.0212863355459376,0.6408789196611906
1539731801445887,5.645838101777599,-3.3264667734797513,-0.09155413138023505
1539731801461895,5.401693751430457,-4.180971999694748,0.15259021896690683
1539731801477902,2.532997634851654,-5.645838101777599,1.4343480582895154
1539731801493909,-2.4719615472647547,-6.8665598535133086,2.04470893415737
1539731801509917,-5.2185854886702145,-8.087281605249018,1.2512397955290453
1539731801525924,0.7019150072480898,-9.002822919050914,-0.7019150072480898
1539731801541932,8.270389868009488,-8.6366063935302,-2.9602502479590385
1539731801557939,5.889982452124741,-8.45349813076973,-5.3406576638437855
1539731801573947,-4.9134050507361735,-8.209353780422589,-6.622415503166167
1539731801589965,-7.537956816968062,-8.45349813076973,-7.17174029144735
1539731801605973,0.03051804379333589,-7.537956816968062,-6.805523765926637
1539731801621981,3.4485389486533222,-6.378271152819025,-5.462729839017356
1539731801637989,5.828946364538069,-5.462729839017356,-3.7537193865873633
1539731801653997,2.04470893415737,-5.645838101777599,-2.288853284504512
1539731801670005,1.5564202334630863,-5.2185854886702145,-0.8850232700083325
1539731801686013,3.4485389486533222,-5.0354772259097444,-0.3967345693140487
1539731801702021,6.683451590753066,-5.828946364538069,0.03051804379333589
1539731801718029,6.439307240405924,-6.9886320286868795,-0.2746623941404778
1539731801734037,2.410925459678083,-8.45349813076973,-0.8239871824216607
1539731801750044,1.5564202334630863,-7.782101167315204,-1.6784924086366573
1539731801766052,-4.547188525215461,-3.814755474174035,-1.3733119707026162
1539731801782060,-4.60822461280236,2.5940337224383256,0.45777065690094787
1539731801798068,-1.6174563210497581,6.500343327992596,2.105745021744042
1539731801814076,0.213626306553806,6.134126802471883,2.4719615472647547
1539731801830084,-0.8239871824216607,3.1433585107195086,1.4343480582895154
1539731801846092,-1.983672846570471,-0.5188067444876197,-0.8850232700083325
1539731801862100,-1.9226367589837992,-3.4485389486533222,-2.8381780727854675
1539731801878108,-0.5798428320745188,-4.119935912108076,-3.2654306858930795
1539731801894116,2.532997634851654,-2.532997634851654,-1.8005645838102282
1539731801910125,5.462729839017356,0.3967345693140487,0.3967345693140487
1539731801926133,5.0354772259097444,1.8005645838102282,1.3733119707026162
1539731801942141,0.5188067444876197,0.8239871824216607,0.33569848172737693
1539731801958149,-0.5188067444876197,-1.0681315327688026,-1.6174563210497581
1539731801974157,1.6784924086366573,-2.532997634851654,-1.6784924086366573
1539731801990165,4.242008087281647,-1.4343480582895154,-0.03051804379333589
1539731802006173,7.2938124666209205,-0.45777065690094787,1.1902037079423735
1539731802022181,5.76791027695117,-1.2512397955290453,0.9460593575952316
1539731802038189,3.5095750362402214,-1.9226367589837992,0.5798428320745188
1539731802054196,2.227817196917613,-2.4719615472647547,0.213626306553806
1539731802070204,3.814755474174035,-2.04470893415737,0.33569848172737693
1539731802086212,6.073090714885211,-1.6174563210497581,1.3122758831159445
1539731802102220,7.537956816968062,-2.532997634851654,1.3122758831159445
1539731802118228,8.087281605249018,-3.0212863355459376,1.6174563210497581
1539731802134236,8.45349813076973,-3.0212863355459376,1.739528496223329
1539731802150244,7.232776379034021,-3.2654306858930795,1.3733119707026162
1539731802166252,4.547188525215461,-3.2043945983061803,0.9460593575952316
1539731802182260,4.42511635004189,-3.1433585107195086,0.8239871824216607
1539731802198268,4.669260700389032,-3.1433585107195086,0.45777065690094787
1539731802214275,4.730296787975931,-2.9602502479590385,0.5798428320745188
1539731802230285,6.9886320286868795,-2.7771419851987957,0.7019150072480898
1539731802246293,9.002822919050914,-2.5940337224383256,0.7629510948347615
1539731802262301,9.124895094224485,-2.532997634851654,1.1902037079423735
1539731802278309,7.965209430075447,-2.288853284504512,1.1902037079423735
1539731802294317,6.439307240405924,-2.105745021744042,1.0070954451819034
1539731802310325,4.058899824521177,-1.8005645838102282,0.7629510948347615
1539731802326333,2.8381780727854675,-1.3122758831159445,0.6408789196611906
1539731802342341,3.2654306858930795,-1.1902037079423735,0.5798428320745188
1539731802358348,3.3875028610666504,-0.8239871824216607,0.9460593575952316
1539731802374356,3.936827649347606,-0.7019150072480898,0.8850232700083325
1539731802390364,3.570611123826893,-0.9460593575952316,0.45777065690094787
1539731802406372,2.5940337224383256,-1.0070954451819034,0.213626306553806
1539731802422380,1.1291676203554744,-1.0681315327688026,0.213626306553806
1539731802438388,-0.7629510948347615,-1.0070954451819034,0.9460593575952316
1539731802454396,-1.983672846570471,-0.5798428320745188,1.5564202334630863
1539731802470404,-4.303044174868319,-0.2746623941404778,1.8616006713969
1539731802486412,-5.0354772259097444,0.5188067444876197,1.8005645838102282
1539731802502420,-3.936827649347606,0.7019150072480898,1.8005645838102282
1539731802518427,-0.15259021896690683,0.5188067444876197,2.3498893720911838
1539731802534435,4.42511635004189,-0.03051804379333589,3.0212863355459376
1539731802550415,9.124895094224485,-0.8239871824216607,3.2654306858930795
1539731802566422,12.726024261844714,-0.45777065690094787,3.936827649347606
1539731802582430,9.308003356984727,-0.45777065690094787,4.547188525215461
1539731802598437,-1.4343480582895154,-1.1291676203554744,4.180971999694748
1539731802614444,-10.772869459067579,-1.739528496223329,3.0823224231326094
1539731802630452,-16.815442130159454,-2.7771419851987957,2.166781109330941
1539731802646459,-17.059586480506596,-3.1433585107195086,1.6784924086366573
1539731802662467,-14.557106889448278,-2.9602502479590385,1.4343480582895154
1539731802678474,-13.275349050125897,-2.7771419851987957,0.7629510948347615
1539731802694481,-10.467689021133765,-2.3498893720911838,-0.33569848172737693
1539731802710489,-6.134126802471883,-2.227817196917613,-1.8005645838102282
1539731802726496,0.2746623941404778,-1.8616006713969,-3.0823224231326094
1539731802742504,7.660028992141633,-1.3122758831159445,-3.5095750362402214
1539731802758511,11.139085984588291,-1.0681315327688026,-3.2043945983061803
1539731802774519,12.542915999084471,-0.6408789196611906,-2.04470893415737
1539731802790526,10.955977721828049,0.3967345693140487,-1.1291676203554744
1539731802806533,7.4158846417944915,1.983672846570471,-1.0681315327688026
1539731802822541,4.42511635004189,2.8381780727854675,-1.2512397955290453
1539731802838548,4.730296787975931,3.3875028610666504,-0.8850232700083325
1539731802854556,5.096513313496644,3.0823224231326094,-0.45777065690094787
1539731802870575,4.730296787975931,2.3498893720911838,-0.6408789196611906
1539731802886582,5.889982452124741,1.6784924086366573,-1.4953841458761872
1539731802902589,5.889982452124741,1.1902037079423735,-1.739528496223329
1539731802918597,5.279621576256886,0.09155413138023505,-1.4343480582895154
1539731802934604,5.401693751430457,-1.1291676203554744,-0.8239871824216607
1539731802950612,3.5095750362402214,-1.8616006713969,-0.7019150072480898
1539731802966619,-0.09155413138023505,-2.410925459678083,-0.7629510948347615
1539731802982627,-2.3498893720911838,-2.5940337224383256,-0.6408789196611906
1539731802998634,-1.6174563210497581,-2.5940337224383256,-0.09155413138023505
1539731803014641,-0.7019150072480898,-2.8381780727854675,1.3733119707026162
1539731803030649,-1.4343480582895154,-2.7161058976118966,2.105745021744042
1539731803046656,-3.997863736934505,-2.227817196917613,2.655069810025225
1539731803062664,-7.843137254901876,-2.105745021744042,2.3498893720911838
1539731803078671,-11.07804989700162,-1.739528496223329,2.227817196917613
1539731803094679,-12.787060349431613,-1.3733119707026162,1.8616006713969
1539731803110686,-11.688410772869474,-1.0681315327688026,2.166781109330941
1539731803126693,-10.101472495613052,-0.2746623941404778,2.655069810025225
1539731803142701,-8.270389868009488,-0.15259021896690683,2.4719615472647547
1539731803158708,-5.279621576256886,-0.2746623941404778,1.983672846570471
1539731803174716,-1.9226367589837992,-0.2746623941404778,1.6784924086366573
1539731803190734,0.7629510948347615,-0.6408789196611906,1.0070954451819034
1539731803206742,1.0070954451819034,-1.0681315327688026,0.5188067444876197
1539731803222750,-0.8850232700083325,-1.4343480582895154,-0.3967345693140487
1539731803238758,-1.739528496223329,-1.8005645838102282,-1.1902037079423735
1539731803254766,-1.8005645838102282,-2.166781109330941,-1.6174563210497581
1539731803270774,-0.09155413138023505,-2.3498893720911838,-1.3733119707026162
1539731803286782,1.4953841458761872,-2.655069810025225,-1.0070954451819034
1539731803302790,0.8850232700083325,-2.8381780727854675,-0.8850232700083325
1539731803318798,0.5188067444876197,-2.7161058976118966,-0.9460593575952316
1539731803334806,-0.03051804379333589,-2.532997634851654,-1.0681315327688026
1539731803350813,-0.5798428320745188,-2.3498893720911838,-0.8850232700083325
1539731803366821,-0.5798428320745188,-2.288853284504512,-0.6408789196611906
1539731803382829,-0.45777065690094787,-1.8616006713969,-0.5188067444876197
1539731803398837,0.3967345693140487,-1.6784924086366573,-0.5798428320745188
1539731803414845,1.5564202334630863,-1.5564202334630863,-0.213626306553806
1539731803430853,2.04470893415737,-1.739528496223329,0.3967345693140487
1539731803446861,1.6174563210497581,-2.105745021744042,0.8239871824216607
1539731803462869,-0.7019150072480898,-2.3498893720911838,0.6408789196611906
1539731803478877,-3.2043945983061803,-2.410925459678083,0.15259021896690683
1539731803494885,-2.7771419851987957,-2.4719615472647547,0.15259021896690683
1539731803510894,-1.0070954451819034,-2.7771419851987957,0.45777065690094787
1539731803526902,-0.213626306553806,-2.8992141603723667,0.5188067444876197
1539731803542910,-0.5188067444876197,-2.8992141603723667,-0.2746623941404778
1539731803558918,-0.33569848172737693,-2.7771419851987957,-0.9460593575952316
1539731803574926,2.532997634851654,-2.7161058976118966,-1.0681315327688026
1539731803590934,4.730296787975931,-3.0823224231326094,-0.8239871824216607
1539731803606942,5.0354772259097444,-3.2654306858930795,-0.7629510948347615
1539731803622950,3.7537193865873633,-3.3264667734797513,-1.0070954451819034
1539731803638958,1.3122758831159445,-3.0212863355459376,-1.3733119707026162
1539731803654966,0.213626306553806,-2.7161058976118966,-1.4953841458761872
1539731803670973,1.6784924086366573,-2.3498893720911838,-1.1291676203554744
1539731803686981,3.3875028610666504,-2.288853284504512,-0.8239871824216607
1539731803702989,3.997863736934505,-2.288853284504512,-0.8850232700083325
1539731803718997,3.0823224231326094,-1.983672846570471,-1.3122758831159445
1539731803735005,2.7771419851987957,-1.5564202334630863,-1.4953841458761872
1539731803751013,2.9602502479590385,-1.5564202334630863,-1.1902037079423735
1539731803767021,2.8992141603723667,-1.739528496223329,-0.9460593575952316
1539731803783029,2.04470893415737,-1.9226367589837992,-1.1902037079423735
1539731803799037,1.2512397955290453,-2.105745021744042,-1.5564202334630863
1539731803815045,0.33569848172737693,-2.227817196917613,-1.4343480582895154
1539731803831054,-1.3122758831159445,-2.532997634851654,-1.1902037079423735
1539731803847062,-2.7771419851987957,-2.410925459678083,-1.3733119707026162
1539731803863070,-2.8992141603723667,-2.105745021744042,-1.1291676203554744
1539731803879078,-1.0070954451819034,-1.983672846570471,-0.45777065690094787
1539731803895086,-0.03051804379333589,-1.983672846570471,0.3967345693140487
1539731803911094,-1.0070954451819034,-1.6174563210497581,0.3967345693140487
1539731803927102,-3.2654306858930795,-1.4343480582895154,-0.15259021896690683
1539731803943110,-4.852368963149502,-1.0070954451819034,-0.5798428320745188
1539731803959118,-3.1433585107195086,-1.1291676203554744,-0.45777065690094787
1539731803975125,-0.9460593575952316,-1.3122758831159445,0.03051804379333589
1539731803991133,1.4953841458761872,-1.3122758831159445,0.5798428320745188
1539731804007141,2.7161058976118966,-1.6784924086366573,0.45777065690094787
1539731804023149,2.532997634851654,-2.227817196917613,0.5798428320745188
1539731804039157,2.5940337224383256,-2.5940337224383256,0.5798428320745188
1539731804055165,0.8850232700083325,-2.8381780727854675,0.7019150072480898
1539731804071173,-1.3733119707026162,-3.2654306858930795,0.5188067444876197
1539731804087181,-2.532997634851654,-3.570611123826893,0.09155413138023505
1539731804103189,-3.0212863355459376,-3.7537193865873633,-0.33569848172737693
1539731804119197,-3.4485389486533222,-3.570611123826893,-0.7629510948347615
1539731804135204,-3.3264667734797513,-3.2043945983061803,-0.9460593575952316
1539731804151214,-3.875791561760934,-2.8381780727854675,-1.2512397955290453
1539731804167222,-6.8665598535133086,-2.532997634851654,-1.5564202334630863
1539731804183230,-9.124895094224485,-2.7771419851987957,-2.5940337224383256
1539731804199238,-8.33142595559616,-2.8992141603723667,-3.3875028610666504
1539731804215246,-4.119935912108076,-3.0212863355459376,-3.4485389486533222
1539731804231254,0.5188067444876197,-3.2043945983061803,-2.532997634851654
1539731804247262,2.532997634851654,-3.2654306858930795,-1.3733119707026162
1539731804263270,3.3875028610666504,-3.2043945983061803,-0.8850232700083325
1539731804279277,0.8850232700083325,-2.9602502479590385,-0.45777065690094787
1539731804295285,-1.739528496223329,-2.4719615472647547,-0.3967345693140487
1539731804311293,-2.655069810025225,-2.04470893415737,0.03051804379333589
1539731804327301,-1.0070954451819034,-1.3733119707026162,0.7629510948347615
1539731804343309,1.3733119707026162,-1.1291676203554744,1.1902037079423735
1539731804359317,2.04470893415737,-1.0070954451819034,1.4953841458761872
1539731804375325,0.5188067444876197,-0.8850232700083325,1.1902037079423735
1539731804391333,-0.45777065690094787,-0.8239871824216607,0.7019150072480898
1539731804407341,-1.2512397955290453,-0.7629510948347615,0.213626306553806
1539731804423349,-0.45777065690094787,-1.0070954451819034,0.15259021896690683
1539731804439356,0.2746623941404778,-1.6784924086366573,0.33569848172737693
1539731804455364,-0.9460593575952316,-2.288853284504512,0.3967345693140487
1539731804471374,-4.42511635004189,-3.0212863355459376,-0.03051804379333589
1539731804487382,-10.345616845960194,-2.8381780727854675,-1.739528496223329
1539731804503390,-13.397421225299468,-2.3498893720911838,-3.3264667734797513
1539731804519398,-12.542915999084471,-1.6784924086366573,-3.814755474174035
1539731804535406,-5.0354772259097444,-1.1291676203554744,-2.410925459678083
1539731804551414,4.242008087281647,-0.9460593575952316,-0.7019150072480898
1539731804567422,9.124895094224485,-1.0070954451819034,0.8239871824216607
1539731804583429,6.744487678339738,-1.0681315327688026,0.2746623941404778
1539731804599437,2.105745021744042,-0.9460593575952316,-0.8850232700083325
1539731804615445,-1.6174563210497581,-1.1902037079423735,-1.4343480582895154
1539731804631453,-1.9226367589837992,-1.1291676203554744,-1.3122758831159445
1539731804647461,1.0681315327688026,-1.3122758831159445,-0.6408789196611906
1539731804663469,4.303044174868319,-1.5564202334630863,0.213626306553806
1539731804679477,5.096513313496644,-1.8005645838102282,0.5798428320745188
1539731804695485,2.8992141603723667,-1.8005645838102282,0.5798428320745188
1539731804711493,-0.5188067444876197,-1.8616006713969,0.45777065690094787
1539731804727501,-4.303044174868319,-1.8616006713969,0.3967345693140487
1539731804743508,-4.60822461280236,-1.4953841458761872,0.5188067444876197
1539731804759516,-4.180971999694748,-1.2512397955290453,0.7629510948347615
1539731804775524,-2.8992141603723667,-0.7629510948347615,1.0070954451819034
1539731804791504,-1.3733119707026162,-0.5798428320745188,1.4343480582895154
1539731804807511,-0.33569848172737693,-0.6408789196611906,1.9226367589837992
1539731804823519,-1.3733119707026162,-0.8239871824216607,1.9226367589837992
1539731804839527,-2.4719615472647547,-1.0070954451819034,2.04470893415737
1539731804855535,-4.180971999694748,-0.8239871824216607,1.9226367589837992
1539731804871543,-6.134126802471883,0.09155413138023505,1.0070954451819034
1539731804887551,-6.500343327992596,0.5798428320745188,0.15259021896690683
1539731804903559,-2.8381780727854675,0.7629510948347615,-0.03051804379333589
1539731804919567,3.2654306858930795,0.213626306553806,0.5798428320745188
1539731804935575,6.500343327992596,-0.45777065690094787,0.7019150072480898
1539731804951583,4.791332875562603,-0.8850232700083325,-0.09155413138023505
1539731804967590,1.1902037079423735,-1.3733119707026162,-1.1291676203554744
1539731804983598,-0.7019150072480898,-1.4953841458761872,-1.8005645838102282
1539731804999606,0.2746623941404778,-1.6174563210497581,-1.6174563210497581
1539731805015614,2.655069810025225,-1.739528496223329,-1.1291676203554744
1539731805031622,3.692683299000464,-2.04470893415737,-1.1902037079423735
1539731805047630,2.9602502479590385,-2.04470893415737,-1.3733119707026162
1539731805063638,1.1291676203554744,-2.166781109330941,-1.8005645838102282
1539731805079646,-0.9460593575952316,-2.04470893415737,-1.983672846570471
1539731805095654,-1.4953841458761872,-1.8616006713969,-1.9226367589837992
1539731805111663,-0.33569848172737693,-2.04470893415737,-1.5564202334630863
1539731805127671,1.6174563210497581,-1.6784924086366573,-1.4953841458761872
1539731805143679,2.04470893415737,-1.4343480582895154,-1.5564202334630863
1539731805159687,1.1291676203554744,-1.0681315327688026,-1.739528496223329
1539731805175695,1.6174563210497581,-0.33569848172737693,-1.6784924086366573
1539731805191703,3.814755474174035,0.03051804379333589,-1.4343480582895154
1539731805207711,5.645838101777599,0.09155413138023505,-0.7629510948347615
1539731805223719,6.256198977645454,-0.03051804379333589,-0.45777065690094787
1539731805239727,4.486152437628789,-0.15259021896690683,-0.45777065690094787
1539731805255735,2.166781109330941,-0.15259021896690683,-0.6408789196611906
1539731805271742,0.3967345693140487,-0.33569848172737693,-1.0681315327688026
1539731805287750,0.7019150072480898,-0.2746623941404778,-1.0070954451819034
1539731805303758,1.2512397955290453,-0.45777065690094787,-0.7019150072480898
1539731805319766,2.7771419851987957,-0.6408789196611906,-0.15259021896690683
1539731805335774,3.3264667734797513,-0.9460593575952316,0.45777065690094787
1539731805351782,1.3122758831159445,-1.1902037079423735,0.3967345693140487
1539731805367790,-1.3733119707026162,-1.3733119707026162,0.09155413138023505
1539731805383798,-2.227817196917613,-1.2512397955290453,-0.03051804379333589
1539731805399806,-1.2512397955290453,-1.1902037079423735,0.33569848172737693
1539731805415814,-0.2746623941404778,-1.0070954451819034,0.7629510948347615
1539731805431823,0.2746623941404778,-1.1291676203554744,1.0070954451819034
1539731805447831,-1.0681315327688026,-1.3733119707026162,0.45777065690094787
1539731805463839,-2.5940337224383256,-1.1902037079423735,0.09155413138023505
1539731805479847,-3.6316472114137923,-1.1291676203554744,-0.15259021896690683
1539731805495855,-2.166781109330941,-1.0681315327688026,0.2746623941404778
1539731805511863,-1.0070954451819034,-1.3122758831159445,0.15259021896690683
1539731805527871,-0.03051804379333589,-1.4953841458761872,0.03051804379333589
1539731805543879,-0.2746623941404778,-1.739528496223329,-0.3967345693140487
1539731805559887,-0.7629510948347615,-1.6784924086366573,-0.8850232700083325
1539731805575894,-0.7019150072480898,-1.6174563210497581,-1.0681315327688026
1539731805591902,0.2746623941404778,-1.3122758831159445,-1.0070954451819034
1539731805607910,2.166781109330941,-1.2512397955290453,-0.7019150072480898
1539731805623918,3.2043945983061803,-1.0070954451819034,-0.2746623941404778
1539731805639926,2.7161058976118966,-1.1902037079423735,-0.09155413138023505
1539731805655934,0.8239871824216607,-1.2512397955290453,-0.2746623941404778
1539731805671942,-0.33569848172737693,-1.2512397955290453,-0.45777065690094787
1539731805687950,-0.3967345693140487,-1.4953841458761872,-0.3967345693140487
1539731805703958,-0.09155413138023505,-1.5564202334630863,-0.213626306553806
1539731805719966,0.7019150072480898,-1.6174563210497581,-0.213626306553806
1539731805735973,1.4953841458761872,-1.5564202334630863,0.03051804379333589
1539731805751983,1.8005645838102282,-1.3733119707026162,0.09155413138023505
1539731805767991,2.04470893415737,-1.6784924086366573,0.15259021896690683
1539731805783999,2.655069810025225,-1.6174563210497581,-0.03051804379333589
1539731805800007,4.180971999694748,-1.6174563210497581,0.2746623941404778
1539731805816015,5.584802014190927,-0.8850232700083325,1.0681315327688026
1539731805832023,3.570611123826893,-0.15259021896690683,1.4343480582895154
1539731805848031,0.33569848172737693,0.213626306553806,0.6408789196611906
1539731805864039,-1.3122758831159445,0.6408789196611906,-0.2746623941404778
1539731805880046,-0.213626306553806,0.213626306553806,-0.6408789196611906
1539731805896054,2.5940337224383256,-0.5188067444876197,-0.33569848172737693
