Timestamp (microseconds),Accel X (g),Accel Y (g),Accel Z (g)
1539131637806732,0.9151140611886781,0.1751125352864884,0.3504081788357363
1539131637822728,0.9152361333638517,0.18121614404516695,0.3489433127336534
1539131637838724,0.9171892881666288,0.1809719996948198,0.34467078660257844
1539131637854720,0.9156023498893724,0.18121614404516695,0.34747844663157057
1539131637870716,0.9151140611886781,0.18133821622034052,0.34723430228122343
1539131637886712,0.9160906385900667,0.1814602883955141,0.3468680857557027
1539131637902708,0.9147478446631574,0.1809719996948198,0.3504081788357363
1539131637918704,0.9141374837872895,0.1814602883955141,0.3495536736095213
1539131637934700,0.9145037003128103,0.17792019531548053,0.35089646753643056
1539131637950696,0.9152361333638517,0.18048371099412552,0.349919890135042
1539131637966692,0.9159685664148931,0.1763332570382241,0.351628900587472
1539131637982688,0.914869916838331,0.17840848401617482,0.348210879682612
1539131637998684,0.914015411612116,0.1818265049210348,0.3469901579308763
1539131638014680,0.9142595559624631,0.18377965972381194,0.349919890135042
1539131638030676,0.9151140611886781,0.18536659800106836,0.3504081788357363
1539131638046671,0.913160906385901,0.18048371099412552,0.36066224155031623
1539131638062667,0.9108415350576031,0.17413595788509983,0.36188296330205194
1539131638078663,0.9118181124589917,0.17022964827954556,0.36432440680552336
1539131638094659,0.9112077515831238,0.1704737926298927,0.3612726024261841
1539131638110655,0.9127946898603803,0.17462424658579412,0.35675593194476196
1539131638126617,0.9108415350576031,0.1751125352864884,0.35553521019302625
1539131638142613,0.9132829785610745,0.17694361791409197,0.35980773632410123
1539131638158609,0.912306401159686,0.1780422674906541,0.35809872587167124
1539131638174605,0.9136491950865953,0.17645532921339768,0.35883115892271267
1539131638190601,0.9115739681086446,0.1771877622644391,0.3578545815213241
1539131638206597,0.9108415350576031,0.17865262836652196,0.35761043717097696
1539131638222593,0.9121843289845124,0.1759670405127034,0.3591973754482334
1539131638238589,0.9119401846341653,0.17743190661478625,0.3612726024261841
1539131638254585,0.912306401159686,0.17694361791409197,0.3600518806744484
1539131638270581,0.9116960402838181,0.17779812314030696,0.3585870145723655
1539131638286577,0.9118181124589917,0.17706569008926554,0.3594415197985805
1539131638302573,0.9112077515831238,0.17645532921339768,0.3609063859006634
1539131638318569,0.9118181124589917,0.17584496833752983,0.3595635919737541
1539131638334565,0.9120622568093388,0.17657740138857125,0.3587090867475391
1539131638350561,0.9118181124589917,0.1771877622644391,0.3602960250247955
1539131638366557,0.9102311741817353,0.17560082398718269,0.36444647898069693
1539131638382553,0.9102311741817353,0.17779812314030696,0.36188296330205194
1539131638398549,0.909742885481041,0.1763332570382241,0.36639963378347407
1539131638414545,0.9093766689555203,0.17486839093614126,0.3662775616083005
1539131638430541,0.9099870298313881,0.17413595788509983,0.36737621118486263
1539131638446533,0.909742885481041,0.17657740138857125,0.3662775616083005
1539131638462528,0.9103532463569088,0.171816586556802,0.3671320668345155
1539131638478524,0.9086442359044788,0.170107576104372,0.36859693293659834
1539131638494519,0.908888380254826,0.17157244220645484,0.3683527885862512
1539131638510515,0.9099870298313881,0.17401388570992626,0.3667658503089948
1539131638526510,0.9103532463569088,0.17486839093614126,0.3646906233310441
1539131638542506,0.9107194628824296,0.17291523613336413,0.3646906233310441
1539131638558501,0.9093766689555203,0.1771877622644391,0.3653009842069119
1539131638574497,0.9102311741817353,0.1751125352864884,0.3670099946593419
1539131638590492,0.9104753185320824,0.1763332570382241,0.3662775616083005
1539131638606488,0.9091325246051731,0.17462424658579412,0.3628595407034405
1539131638622483,0.9101091020065617,0.17401388570992626,0.3640802624551762
1539131638638479,0.9091325246051731,0.17328145265888484,0.36346990157930836
1539131638654474,0.9116960402838181,0.17364766918440555,0.36566720073243264
1539131638670470,0.9084000915541317,0.17535667963683554,0.3657892729076062
1539131638686465,0.9090104524299996,0.17779812314030696,0.3607843137254898
1539131638702461,0.9082780193789581,0.17523460746166197,0.36639963378347407
1539131638718456,0.9101091020065617,0.17816433966582768,0.36310368505378765
1539131638734452,0.9099870298313881,0.1751125352864884,0.36823071641107763
1539131638750447,0.9087663080796524,0.1742580300602734,0.36725413900968906
1539131638766143,0.9076676585030903,0.1738918135347527,0.3687190051117719
1539131638782138,0.9087663080796524,0.17291523613336413,0.3700617990386812
1539131638798133,0.9073014419775696,0.1738918135347527,0.36932936598763977
1539131638814127,0.9085221637293053,0.17486839093614126,0.3696955825131605
1539131638830122,0.9077897306782639,0.17621118486305054,0.36810864423590406
1539131638846116,0.9082780193789581,0.17547875181200911,0.36847486076142477
1539131638862111,0.9102311741817353,0.17584496833752983,0.36823071641107763
1539131638878105,0.9085221637293053,0.1780422674906541,0.3690852216372926
1539131638894100,0.9090104524299996,0.17584496833752983,0.36945143816281334
1539131638910094,0.9074235141527431,0.17560082398718269,0.37103837644006976
1539131638926089,0.9069352254520489,0.17499046311131483,0.3728694590676733
1539131638942083,0.9057145037003131,0.17669947356374482,0.37067215991454905
1539131638958078,0.9064469367513546,0.17315938048371127,0.3726253147173262
1539131638974073,0.9073014419775696,0.17584496833752983,0.3747005416952769
1539131638990067,0.9062027924010074,0.1768215457389184,0.36774242771038335
1539131639006062,0.9059586480506603,0.17462424658579412,0.3742122529945826
1539131639022056,0.9068131532768753,0.1747463187609677,0.3745784695201033
1539131639038051,0.9073014419775696,0.17279316395819055,0.37445639734492975
1539131639054045,0.9052262149996189,0.17523460746166197,0.3733577477683676
1539131639070040,0.9058365758754867,0.17462424658579412,0.3714045929655905
1539131639085785,0.9065690089265281,0.1730373083085377,0.3737239642938883
1539131639101778,0.9069352254520489,0.1747463187609677,0.37225909819180547
1539131639117772,0.9062027924010074,0.17816433966582768,0.36945143816281334
1539131639133765,0.9062027924010074,0.17877470054169553,0.3733577477683676
1539131639149759,0.9060807202258339,0.17560082398718269,0.37567711909666635
1539131639165753,0.9082780193789581,0.17572289616235626,0.37201495384145833
1539131639181746,0.9077897306782639,0.17779812314030696,0.3696955825131605
1539131639197740,0.908033875028611,0.17450217441062055,0.37067215991454905
1539131639213733,0.9075455863279167,0.17926298924238981,0.3721370260166319
1539131639229727,0.9076676585030903,0.17792019531548053,0.37067215991454905
1539131639245720,0.9076676585030903,0.17645532921339768,0.3726253147173262
1539131639261714,0.9068131532768753,0.1768215457389184,0.3726253147173262
1539131639277708,0.9062027924010074,0.17486839093614126,0.37201495384145833
1539131639293701,0.9074235141527431,0.17950713359273696,0.37103837644006976
1539131639309695,0.9066910811017017,0.17645532921339768,0.37152666514076405
1539131639325688,0.9069352254520489,0.1768215457389184,0.3717708094911112
1539131639341682,0.9074235141527431,0.17645532921339768,0.3717708094911112
1539131639357676,0.9069352254520489,0.17584496833752983,0.37225909819180547
1539131639373669,0.9055924315251396,0.17657740138857125,0.3721370260166319
1539131639389663,0.9070572976272224,0.1759670405127034,0.3716487373159376
1539131639405365,0.9060807202258339,0.17755397878995982,0.3712825207904169
1539131639421357,0.9060807202258339,0.1780422674906541,0.3738460364690619
1539131639437349,0.9064469367513546,0.17438010223544698,0.3742122529945826
1539131639453341,0.9066910811017017,0.17828641184100125,0.3699397268635076
1539131639469333,0.9064469367513546,0.1771877622644391,0.3700617990386812
1539131639485325,0.9069352254520489,0.17645532921339768,0.3734798199435412
1539131639501318,0.9064469367513546,0.17755397878995982,0.3734798199435412
1539131639517310,0.9060807202258339,0.17645532921339768,0.37518883039597206
1539131639533302,0.905470359349966,0.17792019531548053,0.37238117036697904
1539131639549294,0.9064469367513546,0.1763332570382241,0.3729915312428469
1539131639565286,0.906324864576181,0.1780422674906541,0.3712825207904169
1539131639581278,0.9065690089265281,0.1771877622644391,0.3737239642938883
1539131639597271,0.9064469367513546,0.17730983443961268,0.36981765468833405
1539131639613263,0.9068131532768753,0.1788967727168691,0.3696955825131605
1539131639629255,0.9058365758754867,0.1747463187609677,0.37494468604562403
1539131639645247,0.9073014419775696,0.17743190661478625,0.3721370260166319
1539131639661239,0.9062027924010074,0.1797512779430841,0.36981765468833405
1539131639677231,0.9057145037003131,0.17499046311131483,0.37409018081940903
1539131639693224,0.906324864576181,0.17694361791409197,0.3726253147173262
1539131639709216,0.9087663080796524,0.17779812314030696,0.3728694590676733
1539131639725006,0.9062027924010074,0.17401388570992626,0.3734798199435412
1539131639740997,0.9047379262989246,0.17584496833752983,0.37409018081940903
1539131639756989,0.9066910811017017,0.17938506141756339,0.3726253147173262
1539131639772981,0.9059586480506603,0.1780422674906541,0.3743343251697562
1539131639788972,0.9057145037003131,0.1788967727168691,0.37604333562218706
1539131639804964,0.906324864576181,0.17486839093614126,0.37396810864423546
1539131639820956,0.9065690089265281,0.1759670405127034,0.3721370260166319
1539131639836948,0.9065690089265281,0.17657740138857125,0.37238117036697904
1539131639852939,0.9062027924010074,0.17523460746166197,0.3733577477683676
1539131639868931,0.9066910811017017,0.17755397878995982,0.3726253147173262
1539131639884923,0.9068131532768753,0.17792019531548053,0.3714045929655905
1539131639900914,0.9081559472037846,0.17450217441062055,0.3734798199435412
1539131639916906,0.9081559472037846,0.17669947356374482,0.37152666514076405
1539131639932898,0.9065690089265281,0.1771877622644391,0.3707942320897226
1539131639948889,0.9081559472037846,0.1759670405127034,0.3696955825131605
1539131639964881,0.9094987411306938,0.17840848401617482,0.3687190051117719
1539131639980873,0.9075455863279167,0.17779812314030696,0.3688410772869455
1539131639996864,0.9073014419775696,0.1759670405127034,0.3692072938124662
1539131640012856,0.9087663080796524,0.1768215457389184,0.36688792248416835
1539131640028848,0.9075455863279167,0.17926298924238981,0.3667658503089948
1539131640044586,0.9069352254520489,0.1785305561913484,0.36810864423590406
1539131640060577,0.9073014419775696,0.1759670405127034,0.37103837644006976
1539131640076567,0.9081559472037846,0.17547875181200911,0.3726253147173262
1539131640092558,0.9085221637293053,0.17694361791409197,0.37152666514076405
1539131640108549,0.9075455863279167,0.1763332570382241,0.36945143816281334
1539131640124539,0.9075455863279167,0.17547875181200911,0.37152666514076405
1539131640140530,0.9081559472037846,0.17572289616235626,0.37067215991454905
1539131640156521,0.9077897306782639,0.17669947356374482,0.37030594338902834
1539131640172512,0.9079118028534374,0.17792019531548053,0.3688410772869455
1539131640188502,0.9077897306782639,0.17694361791409197,0.36774242771038335
1539131640204493,0.9087663080796524,0.1751125352864884,0.3709163042648962
1539131640220484,0.908033875028611,0.17755397878995982,0.36945143816281334
1539131640236475,0.9087663080796524,0.17376974135957912,0.3721370260166319
1539131640252465,0.9091325246051731,0.1742580300602734,0.37018387121385476
1539131640268456,0.9093766689555203,0.17401388570992626,0.3678644998855569
1539131640284447,0.9073014419775696,0.1768215457389184,0.3690852216372926
1539131640300438,0.9082780193789581,0.1801174944686048,0.3699397268635076
1539131640316428,0.9107194628824296,0.17657740138857125,0.36859693293659834
1539131640332419,0.9074235141527431,0.17865262836652196,0.3653009842069119
1539131640348410,0.9059586480506603,0.17865262836652196,0.3662775616083005
1539131640364227,0.908888380254826,0.18243686579690266,0.3633478294041348
1539131640380217,0.9118181124589917,0.18255893797207623,0.36066224155031623
1539131640396206,0.9112077515831238,0.18341344319829123,0.35980773632410123
1539131640412196,0.9124284733348595,0.18084992751964624,0.35675593194476196
1539131640428186,0.9126726176852067,0.18084992751964624,0.35931944762340695
1539131640444176,0.9107194628824296,0.18036163881895195,0.3570000762951091
1539131640460166,0.912306401159686,0.18023956664377838,0.35797665369649767
1539131640476155,0.9121843289845124,0.18194857709620837,0.3566338597695884
1539131640492145,0.9126726176852067,0.1809719996948198,0.3578545815213241
1539131640508135,0.9129167620355538,0.1797512779430841,0.3574883649958034
1539131640524125,0.9134050507362481,0.17962920576791053,0.3570000762951091
1539131640540115,0.912306401159686,0.1801174944686048,0.35931944762340695
1539131640556104,0.9116960402838181,0.17901884489204267,0.35687800411993553
1539131640572094,0.9108415350576031,0.17999542229343124,0.35931944762340695
1539131640588084,0.9121843289845124,0.1801174944686048,0.36139467460135766
1539131640604074,0.9115739681086446,0.18036163881895195,0.3611505302510105
1539131640620063,0.9127946898603803,0.17730983443961268,0.3624933241779198
1539131640636053,0.9093766689555203,0.18072785534447267,0.3600518806744484
1539131640652043,0.9102311741817353,0.17840848401617482,0.3612726024261841
1539131640668033,0.9096208133058674,0.17901884489204267,0.3609063859006634
1539131640683807,0.910597390707256,0.17413595788509983,0.36310368505378765
1539131640699796,0.9138933394369424,0.18243686579690266,0.3616388189517048
1539131640715785,0.9109636072327767,0.17499046311131483,0.3683527885862512
1539131640731773,0.9096208133058674,0.1788967727168691,0.36688792248416835
1539131640747762,0.9075455863279167,0.17828641184100125,0.3659113450827798
1539131640763751,0.9092545967803467,0.17938506141756339,0.36261539635309337
1539131640779740,0.9094987411306938,0.1809719996948198,0.36395819028000265
1539131640795729,0.9102311741817353,0.18084992751964624,0.3624933241779198
1539131640811718,0.9103532463569088,0.17999542229343124,0.3629816128786141
1539131640827706,0.9110856794079503,0.17987335011825767,0.36017395284962195
1539131640843695,0.9099870298313881,0.18170443274586123,0.3590753032730598
1539131640859684,0.9104753185320824,0.17950713359273696,0.36261539635309337
1539131640875673,0.9093766689555203,0.1826810101472498,0.36054016937514266
1539131640891662,0.9129167620355538,0.17926298924238981,0.3566338597695884
1539131640907651,0.9115739681086446,0.18219272144655552,0.3611505302510105
1539131640923639,0.9101091020065617,0.17938506141756339,0.36102845807583694
1539131640939628,0.908888380254826,0.18243686579690266,0.36017395284962195
1539131640955617,0.911451895933471,0.18377965972381194,0.36017395284962195
1539131640971606,0.9113298237582974,0.17999542229343124,0.3621271076523991
1539131640987595,0.9104753185320824,0.1801174944686048,0.3612726024261841
1539131641003448,0.9126726176852067,0.17694361791409197,0.3620050354772255
1539131641019436,0.909742885481041,0.17901884489204267,0.3629816128786141
1539131641035425,0.9116960402838181,0.17901884489204267,0.3628595407034405
1539131641051413,0.9126726176852067,0.1797512779430841,0.3607843137254898
1539131641067402,0.9130388342107274,0.18243686579690266,0.3591973754482334
1539131641083390,0.9121843289845124,0.18036163881895195,0.36054016937514266
1539131641099378,0.9112077515831238,0.1797512779430841,0.3612726024261841
1539131641115367,0.9103532463569088,0.17926298924238981,0.3623712520027462
1539131641131355,0.9093766689555203,0.18121614404516695,0.35968566414892766
1539131641147343,0.9090104524299996,0.17926298924238981,0.36176089112687837
1539131641163332,0.9103532463569088,0.17779812314030696,0.3638361181048291
1539131641179320,0.9094987411306938,0.1797512779430841,0.36432440680552336
1539131641195308,0.9102311741817353,0.1818265049210348,0.36224917982757265
1539131641211297,0.9081559472037846,0.17926298924238981,0.36444647898069693
1539131641227285,0.9099870298313881,0.17914091706721624,0.3624933241779198
1539131641243273,0.9094987411306938,0.17950713359273696,0.36432440680552336
1539131641259262,0.909742885481041,0.17999542229343124,0.3629816128786141
1539131641275250,0.9091325246051731,0.17755397878995982,0.3645685511558705
1539131641291238,0.9087663080796524,0.17901884489204267,0.3662775616083005
1539131641307227,0.910597390707256,0.1806057831692991,0.3642023346303498
1539131641323028,0.9104753185320824,0.18109407186999338,0.3624933241779198
1539131641339016,0.9093766689555203,0.18170443274586123,0.3611505302510105
1539131641355004,0.9093766689555203,0.18109407186999338,0.36151674677653123
1539131641370992,0.9086442359044788,0.18133821622034052,0.3657892729076062
1539131641386980,0.9059586480506603,0.17962920576791053,0.3654230563820855
1539131641402968,0.9086442359044788,0.1771877622644391,0.36823071641107763
1539131641418955,0.9093766689555203,0.17840848401617482,0.3690852216372926
1539131641434943,0.9074235141527431,0.17962920576791053,0.3674982833600362
1539131641450931,0.9075455863279167,0.1763332570382241,0.3726253147173262
1539131641466919,0.9084000915541317,0.1818265049210348,0.36859693293659834
1539131641482907,0.9101091020065617,0.18121614404516695,0.3666437781338212
1539131641498895,0.9069352254520489,0.17962920576791053,0.36932936598763977
1539131641514883,0.9074235141527431,0.18072785534447267,0.3676203555352098
1539131641530871,0.9073014419775696,0.18207064927138195,0.37116044861524333
1539131641546858,0.9090104524299996,0.1797512779430841,0.3725032425421526
1539131641562846,0.9094987411306938,0.17962920576791053,0.3709163042648962
1539131641578834,0.9082780193789581,0.17914091706721624,0.3700617990386812
1539131641594822,0.9077897306782639,0.18084992751964624,0.3637140459296555
1539131641610810,0.905470359349966,0.17730983443961268,0.3716487373159376
1539131641626798,0.9069352254520489,0.1780422674906541,0.3738460364690619
1539131641642639,0.9064469367513546,0.17816433966582768,0.3757991912718399
1539131641658626,0.9073014419775696,0.1759670405127034,0.3747005416952769
1539131641674613,0.9065690089265281,0.17645532921339768,0.3709163042648962
1539131641690600,0.905470359349966,0.17499046311131483,0.3737239642938883
1539131641706586,0.9065690089265281,0.17730983443961268,0.3728694590676733
1539131641722573,0.9069352254520489,0.17621118486305054,0.37360189211871475
1539131641738560,0.9075455863279167,0.18194857709620837,0.3687190051117719
1539131641754547,0.9082780193789581,0.17877470054169553,0.3712825207904169
1539131641770534,0.9074235141527431,0.17743190661478625,0.3745784695201033
1539131641786521,0.9057145037003131,0.17914091706721624,0.37274738689249975
1539131641802508,0.9060807202258339,0.17877470054169553,0.3716487373159376
1539131641818495,0.9057145037003131,0.17535667963683554,0.3770199130235756
1539131641834482,0.9057145037003131,0.17779812314030696,0.3717708094911112
1539131641850469,0.9047379262989246,0.18158236057068766,0.37067215991454905
1539131641866456,0.9057145037003131,0.17608911268787697,0.3734798199435412
1539131641882443,0.9070572976272224,0.18255893797207623,0.3725032425421526
1539131641898429,0.9066910811017017,0.17535667963683554,0.37189288166628476
1539131641914416,0.9065690089265281,0.17840848401617482,0.37067215991454905
1539131641930403,0.906324864576181,0.17535667963683554,0.3725032425421526
1539131641946390,0.9086442359044788,0.17792019531548053,0.37225909819180547
1539131641962249,0.9094987411306938,0.17938506141756339,0.36517891203173836
1539131641978236,0.9101091020065617,0.18280308232242337,0.3611505302510105
1539131641994222,0.9103532463569088,0.18622110322728336,0.3549248493171584
1539131642010209,0.9093766689555203,0.18793011367971335,0.3561455710688941
1539131642026195,0.910597390707256,0.1885404745555812,0.35724422064545625
1539131642042182,0.9101091020065617,0.18658731975280407,0.35968566414892766
1539131642058168,0.9087663080796524,0.18329137102311766,0.3650568398565648
1539131642074154,0.9086442359044788,0.17938506141756339,0.36945143816281334
1539131642090141,0.908033875028611,0.17914091706721624,0.36810864423590406
1539131642106127,0.9093766689555203,0.1801174944686048,0.36566720073243264
1539131642122114,0.906324864576181,0.18048371099412552,0.3683527885862512
1539131642138100,0.9079118028534374,0.17987335011825767,0.3709163042648962
1539131642154087,0.9086442359044788,0.1806057831692991,0.36932936598763977
1539131642170073,0.9092545967803467,0.18194857709620837,0.36395819028000265
1539131642186060,0.9074235141527431,0.18377965972381194,0.3666437781338212
1539131642202046,0.9073014419775696,0.17779812314030696,0.36652170595864764
1539131642218032,0.908888380254826,0.18512245365072122,0.3640802624551762
1539131642234019,0.9044937819485774,0.17572289616235626,0.37189288166628476
1539131642250005,0.9099870298313881,0.1780422674906541,0.36823071641107763
1539131642265992,0.909742885481041,0.18109407186999338,0.36224917982757265
1539131642281860,0.9087663080796524,0.1830472266727705,0.3654230563820855
1539131642297846,0.9096208133058674,0.18585488670176264,0.3628595407034405
1539131642313832,0.9102311741817353,0.1876859693293662,0.3600518806744484
1539131642329818,0.9098649576562146,0.18829633020523406,0.3585870145723655
1539131642345804,0.9107194628824296,0.18500038147554765,0.3578545815213241
1539131642361790,0.909742885481041,0.1839017318989855,0.3600518806744484
1539131642377776,0.9120622568093388,0.1835355153734648,0.3595635919737541
1539131642393762,0.909742885481041,0.18207064927138195,0.36066224155031623
1539131642409748,0.9101091020065617,0.18072785534447267,0.36176089112687837
1539131642425734,0.9109636072327767,0.18536659800106836,0.35797665369649767
1539131642441720,0.9127946898603803,0.1809719996948198,0.36017395284962195
1539131642457706,0.9132829785610745,0.18023956664377838,0.3633478294041348
1539131642473692,0.9112077515831238,0.18414587624933265,0.35602349889372054
1539131642489678,0.9102311741817353,0.18780804150453978,0.3574883649958034
1539131642505663,0.9107194628824296,0.18377965972381194,0.3571221484702827
1539131642521649,0.9113298237582974,0.18500038147554765,0.3540703440909434
1539131642537635,0.9112077515831238,0.18451209277485336,0.35211718928816627
1539131642553621,0.9113298237582974,0.18536659800106836,0.35516899366750554
1539131642569607,0.9126726176852067,0.18634317540245693,0.35223926146333984
1539131642585593,0.9116960402838181,0.18695353627832478,0.3515068284122984
1539131642601471,0.9104753185320824,0.1839017318989855,0.35089646753643056
1539131642617456,0.9119401846341653,0.18329137102311766,0.35053025101090984
1539131642633442,0.9132829785610745,0.18329137102311766,0.3527275501640341
1539131642649427,0.9145037003128103,0.18597695887693622,0.3519951171129927
1539131642665413,0.9145037003128103,0.1843900205996798,0.35345998321507555
1539131642681398,0.9142595559624631,0.18670939192797764,0.35175097276264555
1539131642697384,0.9125505455100331,0.1814602883955141,0.35675593194476196
1539131642713369,0.9124284733348595,0.1830472266727705,0.3585870145723655
1539131642729354,0.914869916838331,0.17840848401617482,0.3587090867475391
1539131642745340,0.9121843289845124,0.18023956664377838,0.35687800411993553
1539131642761325,0.910597390707256,0.17914091706721624,0.36176089112687837
1539131642777311,0.9134050507362481,0.18292515449759694,0.35590142671854696
1539131642793296,0.9126726176852067,0.18365758754863837,0.35675593194476196
1539131642809282,0.9135271229114217,0.18292515449759694,0.3537041275654227
1539131642825267,0.9118181124589917,0.18194857709620837,0.3544365606164641
1539131642841253,0.9137712672617688,0.18158236057068766,0.3527275501640341
1539131642857238,0.913160906385901,0.18084992751964624,0.35309376668955483
1539131642873224,0.9134050507362481,0.18329137102311766,0.35223926146333984
1539131642889209,0.9154802777141988,0.18219272144655552,0.35382619974059626
1539131642905195,0.9151140611886781,0.18426794842450622,0.35211718928816627
1539131642921081,0.9136491950865953,0.18255893797207623,0.3537041275654227
1539131642937066,0.9142595559624631,0.18377965972381194,0.35089646753643056
1539131642953051,0.9147478446631574,0.18023956664377838,0.3519951171129927
1539131642969036,0.9132829785610745,0.18414587624933265,0.3518730449378191
1539131642985021,0.9152361333638517,0.17962920576791053,0.3535820553902491
1539131643001006,0.9143816281376367,0.18597695887693622,0.34930952925917413
1539131643016991,0.914015411612116,0.18512245365072122,0.34589150835431415
1539131643032976,0.9138933394369424,0.18622110322728336,0.351628900587472
1539131643048961,0.9142595559624631,0.1830472266727705,0.34711223010604986
1539131643064946,0.9153582055390252,0.18365758754863837,0.35016403448538913
1539131643080931,0.9138933394369424,0.18585488670176264,0.34637979705500843
1539131643096916,0.914869916838331,0.18255893797207623,0.35016403448538913
1539131643112901,0.9153582055390252,0.17962920576791053,0.350774395361257
1539131643128886,0.9137712672617688,0.18377965972381194,0.3466239414053556
1539131643144871,0.9143816281376367,0.18194857709620837,0.35175097276264555
1539131643160856,0.9135271229114217,0.18451209277485336,0.35053025101090984
1539131643176841,0.9146257724879838,0.18170443274586123,0.3537041275654227
1539131643192826,0.9153582055390252,0.18585488670176264,0.3489433127336534
1539131643208811,0.9153582055390252,0.18329137102311766,0.350774395361257
1539131643224796,0.9135271229114217,0.18170443274586123,0.35394827191576983
1539131643240661,0.9143816281376367,0.1814602883955141,0.3518730449378191
1539131643256646,0.9134050507362481,0.18365758754863837,0.35175097276264555
1539131643272630,0.9149919890135045,0.1818265049210348,0.350774395361257
1539131643288615,0.9136491950865953,0.18109407186999338,0.3510185397116041
1539131643304599,0.9136491950865953,0.1835355153734648,0.3552910658426791
1539131643320584,0.9152361333638517,0.1814602883955141,0.34967574578469485
1539131643336568,0.9142595559624631,0.18048371099412552,0.3545586327916377
1539131643352553,0.913160906385901,0.1823147936217291,0.3528496223392077
1539131643368538,0.9141374837872895,0.18255893797207623,0.3535820553902491
1539131643384522,0.9146257724879838,0.18463416495002694,0.35297169451438126
1539131643400507,0.9135271229114217,0.18426794842450622,0.3527275501640341
1539131643416491,0.914015411612116,0.18316929884794408,0.34918745708400056
1539131643432476,0.9138933394369424,0.1843900205996798,0.350774395361257
1539131643448460,0.913160906385901,0.18036163881895195,0.3515068284122984
1539131643464445,0.9137712672617688,0.18292515449759694,0.34625772487983486
1539131643480429,0.9153582055390252,0.1847562371252005,0.344792858777752
1539131643496414,0.9176775768673231,0.18878461890592835,0.34174105439841274
1539131643512398,0.9146257724879838,0.1881742580300605,0.343083848325322
1539131643528383,0.9160906385900667,0.18927290760662263,0.34259555962462773
1539131643544367,0.9152361333638517,0.19000534065766406,0.34381628137636344
1539131643560272,0.9154802777141988,0.1885404745555812,0.3478446631570913
1539131643576256,0.913160906385901,0.18133821622034052,0.350774395361257
1539131643592241,0.9143816281376367,0.18048371099412552,0.351628900587472
1539131643608225,0.9120622568093388,0.17938506141756339,0.3523613336385134
1539131643624210,0.9129167620355538,0.18170443274586123,0.3537041275654227
1539131643640195,0.9127946898603803,0.18329137102311766,0.35553521019302625
1539131643656179,0.9120622568093388,0.18243686579690266,0.3556572823681998
1539131643672164,0.9124284733348595,0.1830472266727705,0.3556572823681998
1539131643688148,0.9132829785610745,0.18023956664377838,0.35968566414892766
1539131643704133,0.9115739681086446,0.18109407186999338,0.35773250934615053
1539131643720117,0.9130388342107274,0.18109407186999338,0.35809872587167124
1539131643736102,0.9125505455100331,0.18170443274586123,0.3554131380178527
1539131643752086,0.912306401159686,0.18133821622034052,0.35431448844129054
1539131643768071,0.912306401159686,0.18158236057068766,0.35419241626611697
1539131643784055,0.912306401159686,0.18414587624933265,0.3494316014343477
1539131643800040,0.9151140611886781,0.18573281452658907,0.34882124055847985
1539131643816024,0.9143816281376367,0.1868314641031512,0.346501869230182
1539131643832009,0.9160906385900667,0.1881742580300605,0.3480888075074384
1539131643847993,0.9145037003128103,0.18597695887693622,0.349065384908827
1539131643863978,0.9154802777141988,0.1843900205996798,0.351628900587472
1539131643879882,0.9134050507362481,0.18707560845349835,0.3495536736095213
1539131643895866,0.9130388342107274,0.1852445258258948,0.3537041275654227
1539131643911851,0.9138933394369424,0.18414587624933265,0.3549248493171584
1539131643927835,0.9129167620355538,0.1826810101472498,0.3566338597695884
1539131643943819,0.9090104524299996,0.17779812314030696,0.3616388189517048
1539131643959803,0.9104753185320824,0.1788967727168691,0.36639963378347407
1539131643975787,0.9102311741817353,0.1809719996948198,0.36652170595864764
1539131643991771,0.9098649576562146,0.1785305561913484,0.3620050354772255
1539131644007755,0.9094987411306938,0.18365758754863837,0.3604180971999691
1539131644023739,0.9116960402838181,0.1847562371252005,0.35797665369649767
1539131644039723,0.9090104524299996,0.18316929884794408,0.3582207980468448
1539131644055707,0.9092545967803467,0.18109407186999338,0.3623712520027462
1539131644071691,0.9093766689555203,0.1818265049210348,0.3642023346303498
1539131644087675,0.9098649576562146,0.1801174944686048,0.36310368505378765
1539131644103659,0.9094987411306938,0.18109407186999338,0.3637140459296555
1539131644119643,0.9096208133058674,0.1843900205996798,0.3591973754482334
1539131644135627,0.9119401846341653,0.1797512779430841,0.3629816128786141
1539131644151611,0.9091325246051731,0.18084992751964624,0.36346990157930836
1539131644167595,0.9096208133058674,0.1809719996948198,0.3616388189517048
1539131644183580,0.9102311741817353,0.18414587624933265,0.35797665369649767
1539131644199493,0.9094987411306938,0.1843900205996798,0.36066224155031623
1539131644215477,0.9082780193789581,0.18548867017624193,0.3620050354772255
1539131644231460,0.9096208133058674,0.1843900205996798,0.3666437781338212
1539131644247444,0.9082780193789581,0.17877470054169553,0.3709163042648962
1539131644263427,0.9076676585030903,0.17669947356374482,0.3754329747463192
1539131644279411,0.9062027924010074,0.17413595788509983,0.3742122529945826
1539131644295395,0.9064469367513546,0.17608911268787697,0.3728694590676733
1539131644311378,0.908033875028611,0.1806057831692991,0.3690852216372926
1539131644327362,0.9064469367513546,0.18292515449759694,0.36823071641107763
1539131644343345,0.906324864576181,0.18109407186999338,0.3709163042648962
1539131644359329,0.9043717097734039,0.18036163881895195,0.37518883039597206
1539131644375312,0.9047379262989246,0.17950713359273696,0.3726253147173262
1539131644391296,0.9068131532768753,0.17816433966582768,0.3714045929655905
1539131644407280,0.9048599984740981,0.1801174944686048,0.37445639734492975
1539131644423263,0.9077897306782639,0.17914091706721624,0.3705500877393755
1539131644439247,0.9069352254520489,0.1785305561913484,0.3717708094911112
1539131644455230,0.9065690089265281,0.17950713359273696,0.36945143816281334
1539131644471214,0.908033875028611,0.1797512779430841,0.3716487373159376
1539131644487198,0.908033875028611,0.17962920576791053,0.3699397268635076
1539131644503181,0.9084000915541317,0.18451209277485336,0.36444647898069693
1539131644519073,0.9090104524299996,0.1860990310521098,0.3633478294041348
1539131644535056,0.9090104524299996,0.18170443274586123,0.36224917982757265
1539131644551039,0.9090104524299996,0.1868314641031512,0.35883115892271267
1539131644567022,0.9077897306782639,0.1806057831692991,0.3645685511558705
1539131644583006,0.908033875028611,0.18121614404516695,0.3662775616083005
1539131644598989,0.9082780193789581,0.1823147936217291,0.3654230563820855
1539131644614972,0.908033875028611,0.17987335011825767,0.3657892729076062
1539131644630955,0.9092545967803467,0.18121614404516695,0.3654230563820855
1539131644646938,0.908888380254826,0.1843900205996798,0.36261539635309337
1539131644662921,0.9065690089265281,0.18341344319829123,0.3645685511558705
1539131644678904,0.9064469367513546,0.18329137102311766,0.3679865720607305
1539131644694887,0.9075455863279167,0.1814602883955141,0.3690852216372926
1539131644710870,0.9070572976272224,0.17914091706721624,0.3705500877393755
1539131644726853,0.9077897306782639,0.17901884489204267,0.3695735103379869
1539131644742837,0.907179369802396,0.17865262836652196,0.3690852216372926
1539131644758820,0.9074235141527431,0.1814602883955141,0.37116044861524333
1539131644774803,0.9079118028534374,0.18426794842450622,0.3657892729076062
1539131644790786,0.9076676585030903,0.18219272144655552,0.3657892729076062
1539131644806769,0.9077897306782639,0.1818265049210348,0.3650568398565648
1539131644822752,0.9090104524299996,0.1818265049210348,0.3678644998855569
1539131644838653,0.9069352254520489,0.18133821622034052,0.3678644998855569
1539131644854636,0.9085221637293053,0.1801174944686048,0.3695735103379869
1539131644870619,0.9090104524299996,0.18121614404516695,0.3683527885862512
1539131644886603,0.9077897306782639,0.18158236057068766,0.36847486076142477
1539131644902586,0.9073014419775696,0.18158236057068766,0.36725413900968906
1539131644918569,0.9093766689555203,0.18341344319829123,0.3653009842069119
1539131644934552,0.9073014419775696,0.1835355153734648,0.3683527885862512
1539131644950535,0.9079118028534374,0.18158236057068766,0.36896314946211906
1539131644966518,0.9081559472037846,0.18255893797207623,0.36810864423590406
1539131644982501,0.908033875028611,0.18133821622034052,0.36688792248416835
1539131644998484,0.9076676585030903,0.1806057831692991,0.36859693293659834
1539131645014467,0.9079118028534374,0.18023956664377838,0.3683527885862512
1539131645030450,0.9079118028534374,0.18219272144655552,0.3676203555352098
1539131645046434,0.9090104524299996,0.18255893797207623,0.36346990157930836
1539131645062417,0.9098649576562146,0.1856107423514155,0.3620050354772255
1539131645078400,0.908888380254826,0.18597695887693622,0.36102845807583694
1539131645094383,0.909742885481041,0.18500038147554765,0.3604180971999691
1539131645110366,0.9107194628824296,0.17999542229343124,0.3611505302510105
1539131645126349,0.9098649576562146,0.18463416495002694,0.36151674677653123
1539131645142332,0.9107194628824296,0.18414587624933265,0.3632257572289612
1539131645158264,0.9098649576562146,0.18536659800106836,0.3594415197985805
1539131645174246,0.908888380254826,0.1852445258258948,0.3638361181048291
1539131645190229,0.9108415350576031,0.18084992751964624,0.36395819028000265
1539131645206212,0.9092545967803467,0.18280308232242337,0.36066224155031623
1539131645222194,0.9112077515831238,0.18377965972381194,0.36066224155031623
1539131645238177,0.9107194628824296,0.17987335011825767,0.36176089112687837
1539131645254160,0.9102311741817353,0.1818265049210348,0.3585870145723655
1539131645270142,0.9096208133058674,0.1835355153734648,0.3583428702220184
1539131645286125,0.912306401159686,0.1864652475776305,0.35504692149233197
1539131645302107,0.911451895933471,0.1809719996948198,0.3561455710688941
1539131645318090,0.9118181124589917,0.1814602883955141,0.35516899366750554
1539131645334073,0.9125505455100331,0.18377965972381194,0.352483405813687
1539131645350055,0.9125505455100331,0.18487830930037408,0.352483405813687
1539131645366038,0.9112077515831238,0.18048371099412552,0.35724422064545625
1539131645382021,0.9127946898603803,0.1806057831692991,0.35590142671854696
1539131645398003,0.9119401846341653,0.18109407186999338,0.3549248493171584
1539131645413986,0.9146257724879838,0.18377965972381194,0.35431448844129054
1539131645429968,0.9135271229114217,0.18316929884794408,0.35260547798886055
1539131645445951,0.913160906385901,0.18255893797207623,0.3527275501640341
1539131645461934,0.913160906385901,0.18207064927138195,0.35345998321507555
1539131645477874,0.9127946898603803,0.18109407186999338,0.35468070496681126
1539131645493857,0.9127946898603803,0.18280308232242337,0.3518730449378191
1539131645509840,0.9118181124589917,0.18158236057068766,0.3537041275654227
1539131645525822,0.9132829785610745,0.1818265049210348,0.3545586327916377
1539131645541805,0.9136491950865953,0.18280308232242337,0.3540703440909434
1539131645557788,0.9110856794079503,0.1818265049210348,0.3552910658426791
1539131645573770,0.9108415350576031,0.18170443274586123,0.3570000762951091
1539131645589753,0.9130388342107274,0.17938506141756339,0.35724422064545625
1539131645605735,0.9127946898603803,0.18170443274586123,0.35797665369649767
1539131645621718,0.9124284733348595,0.17840848401617482,0.35724422064545625
1539131645637701,0.9120622568093388,0.1806057831692991,0.35553521019302625
1539131645653683,0.9138933394369424,0.1809719996948198,0.3554131380178527
1539131645669666,0.9124284733348595,0.1806057831692991,0.3574883649958034
1539131645685649,0.9127946898603803,0.17938506141756339,0.3573662928206298
1539131645701631,0.9138933394369424,0.1809719996948198,0.35687800411993553
1539131645717614,0.9126726176852067,0.18109407186999338,0.3552910658426791
1539131645733596,0.9135271229114217,0.17999542229343124,0.3570000762951091
1539131645749579,0.9125505455100331,0.17950713359273696,0.3552910658426791
1539131645765562,0.911451895933471,0.1785305561913484,0.35468070496681126
1539131645781544,0.9127946898603803,0.18194857709620837,0.3532158388647284
1539131645797454,0.9134050507362481,0.18072785534447267,0.3527275501640341
1539131645813437,0.9125505455100331,0.1806057831692991,0.35382619974059626
1539131645829419,0.9129167620355538,0.18255893797207623,0.3556572823681998
1539131645845401,0.9154802777141988,0.18316929884794408,0.35175097276264555
1539131645861383,0.9135271229114217,0.1785305561913484,0.35516899366750554
1539131645877365,0.9126726176852067,0.17865262836652196,0.3570000762951091
1539131645893347,0.9126726176852067,0.17987335011825767,0.3565117875944148
1539131645909330,0.9124284733348595,0.1801174944686048,0.3573662928206298
1539131645925312,0.9132829785610745,0.1809719996948198,0.35590142671854696
1539131645941294,0.9125505455100331,0.18121614404516695,0.35223926146333984
1539131645957276,0.9124284733348595,0.18023956664377838,0.35468070496681126
1539131645973258,0.9135271229114217,0.18170443274586123,0.35382619974059626
1539131645989240,0.9132829785610745,0.17950713359273696,0.35638971541924125
1539131646005222,0.9124284733348595,0.18377965972381194,0.35211718928816627
1539131646021205,0.9142595559624631,0.18170443274586123,0.35516899366750554
1539131646037187,0.9143816281376367,0.18084992751964624,0.35797665369649767
1539131646053169,0.9135271229114217,0.17999542229343124,0.35504692149233197
1539131646069151,0.9115739681086446,0.1797512779430841,0.35724422064545625
1539131646085133,0.9107194628824296,0.17999542229343124,0.35809872587167124
1539131646101115,0.9129167620355538,0.17950713359273696,0.35895323109788624
1539131646117065,0.9127946898603803,0.1801174944686048,0.3566338597695884
1539131646133047,0.9112077515831238,0.18036163881895195,0.35675593194476196
1539131646149029,0.911451895933471,0.17926298924238981,0.3570000762951091
1539131646165012,0.9115739681086446,0.1814602883955141,0.3561455710688941
1539131646180994,0.9124284733348595,0.18255893797207623,0.35797665369649767
1539131646196976,0.9112077515831238,0.17865262836652196,0.3582207980468448
1539131646212958,0.912306401159686,0.18048371099412552,0.35638971541924125
1539131646228940,0.9118181124589917,0.18048371099412552,0.35724422064545625
1539131646244922,0.9127946898603803,0.17987335011825767,0.3573662928206298
1539131646260904,0.9126726176852067,0.18255893797207623,0.35883115892271267
1539131646276887,0.9119401846341653,0.18170443274586123,0.35773250934615053
1539131646292869,0.9116960402838181,0.1771877622644391,0.3632257572289612
1539131646308851,0.9113298237582974,0.1797512779430841,0.3600518806744484
1539131646324833,0.9125505455100331,0.17877470054169553,0.36261539635309337
1539131646340815,0.912306401159686,0.18316929884794408,0.35797665369649767
1539131646356797,0.9110856794079503,0.17816433966582768,0.3632257572289612
1539131646372779,0.9108415350576031,0.18158236057068766,0.3582207980468448
1539131646388762,0.9098649576562146,0.18084992751964624,0.3600518806744484
1539131646404744,0.9107194628824296,0.18048371099412552,0.3616388189517048
1539131646420726,0.9132829785610745,0.18255893797207623,0.35846494239719195
1539131646436645,0.9107194628824296,0.17828641184100125,0.36139467460135766
1539131646452627,0.9103532463569088,0.18158236057068766,0.36224917982757265
1539131646468608,0.9119401846341653,0.1797512779430841,0.3599298084992748
1539131646484590,0.9108415350576031,0.17840848401617482,0.3621271076523991
1539131646500572,0.9086442359044788,0.1809719996948198,0.35968566414892766
1539131646516554,0.9108415350576031,0.1809719996948198,0.3607843137254898
1539131646532535,0.9116960402838181,0.1826810101472498,0.3616388189517048
1539131646548517,0.9110856794079503,0.1823147936217291,0.3583428702220184
1539131646564499,0.9109636072327767,0.1780422674906541,0.36188296330205194
1539131646580480,0.9104753185320824,0.1801174944686048,0.36188296330205194
1539131646596462,0.9119401846341653,0.1797512779430841,0.3611505302510105
1539131646612444,0.9098649576562146,0.1780422674906541,0.36188296330205194
1539131646628425,0.910597390707256,0.17865262836652196,0.3604180971999691
1539131646644407,0.9110856794079503,0.18048371099412552,0.3609063859006634
1539131646660389,0.9118181124589917,0.1814602883955141,0.35931944762340695
1539131646676370,0.9113298237582974,0.18121614404516695,0.3609063859006634
1539131646692352,0.9107194628824296,0.18072785534447267,0.3616388189517048
1539131646708334,0.9096208133058674,0.1809719996948198,0.36554512855725907
1539131646724315,0.9103532463569088,0.18084992751964624,0.3602960250247955
1539131646740297,0.9118181124589917,0.1826810101472498,0.35931944762340695
1539131646756256,0.9104753185320824,0.1785305561913484,0.36066224155031623
1539131646772237,0.9109636072327767,0.17816433966582768,0.36432440680552336
1539131646788219,0.9104753185320824,0.17999542229343124,0.3642023346303498
1539131646804201,0.9098649576562146,0.1759670405127034,0.3642023346303498
1539131646820182,0.9104753185320824,0.17926298924238981,0.3649347676813912
1539131646836164,0.9112077515831238,0.1823147936217291,0.35895323109788624
1539131646852146,0.9109636072327767,0.18170443274586123,0.35968566414892766
1539131646868127,0.910597390707256,0.18170443274586123,0.3616388189517048
1539131646884109,0.9110856794079503,0.18426794842450622,0.35931944762340695
1539131646900091,0.9101091020065617,0.18121614404516695,0.3646906233310441
1539131646916072,0.9094987411306938,0.18316929884794408,0.36102845807583694
1539131646932054,0.9099870298313881,0.1797512779430841,0.36566720073243264
1539131646948036,0.9090104524299996,0.17950713359273696,0.36566720073243264
1539131646964017,0.9093766689555203,0.1780422674906541,0.3646906233310441
1539131646979999,0.9099870298313881,0.18158236057068766,0.36481269550621764
1539131646995981,0.9102311741817353,0.18170443274586123,0.3628595407034405
1539131647011963,0.9091325246051731,0.18329137102311766,0.3629816128786141
1539131647027944,0.9070572976272224,0.18255893797207623,0.3642023346303498
1539131647043926,0.9081559472037846,0.18170443274586123,0.3671320668345155
1539131647059908,0.9086442359044788,0.17865262836652196,0.3662775616083005
1539131647075836,0.9076676585030903,0.17914091706721624,0.36652170595864764
1539131647091817,0.9086442359044788,0.18084992751964624,0.36481269550621764
1539131647107799,0.9098649576562146,0.1797512779430841,0.3662775616083005
1539131647123781,0.9092545967803467,0.17865262836652196,0.36566720073243264
1539131647139763,0.9098649576562146,0.18084992751964624,0.36554512855725907
1539131647155744,0.9091325246051731,0.1830472266727705,0.3640802624551762
1539131647171726,0.9102311741817353,0.18158236057068766,0.3646906233310441
1539131647187708,0.9091325246051731,0.18414587624933265,0.36359197375448193
1539131647203689,0.9093766689555203,0.18402380407415908,0.36224917982757265
1539131647219671,0.910597390707256,0.18341344319829123,0.3623712520027462
1539131647235653,0.909742885481041,0.17950713359273696,0.36444647898069693
1539131647251634,0.9086442359044788,0.1818265049210348,0.36554512855725907
1539131647267616,0.9104753185320824,0.18255893797207623,0.3659113450827798
1539131647283598,0.9074235141527431,0.1830472266727705,0.3637140459296555
1539131647299579,0.9090104524299996,0.1826810101472498,0.3661554894331269
1539131647315561,0.9084000915541317,0.18207064927138195,0.3661554894331269
1539131647331543,0.9075455863279167,0.18219272144655552,0.3666437781338212
1539131647347524,0.9086442359044788,0.18084992751964624,0.36603341725795335
1539131647363506,0.9075455863279167,0.18280308232242337,0.3638361181048291
1539131647379488,0.9077897306782639,0.18109407186999338,0.3649347676813912
1539131647395446,0.9069352254520489,0.18158236057068766,0.36652170595864764
1539131647411428,0.9081559472037846,0.18133821622034052,0.3700617990386812
1539131647427410,0.9076676585030903,0.17962920576791053,0.37225909819180547
1539131647443391,0.907179369802396,0.17901884489204267,0.3692072938124662
1539131647459373,0.9068131532768753,0.18170443274586123,0.3683527885862512
1539131647475355,0.9082780193789581,0.1801174944686048,0.3695735103379869
1539131647491336,0.9090104524299996,0.18426794842450622,0.3657892729076062
1539131647507318,0.9070572976272224,0.1809719996948198,0.3678644998855569
1539131647523300,0.9074235141527431,0.18280308232242337,0.36823071641107763
1539131647539281,0.9077897306782639,0.18036163881895195,0.3692072938124662
1539131647555263,0.9086442359044788,0.18133821622034052,0.36981765468833405
1539131647571245,0.9085221637293053,0.18243686579690266,0.3659113450827798
1539131647587226,0.9068131532768753,0.18158236057068766,0.3699397268635076
1539131647603208,0.907179369802396,0.17926298924238981,0.3695735103379869
1539131647619190,0.9070572976272224,0.17962920576791053,0.3696955825131605
1539131647635172,0.9069352254520489,0.18023956664377838,0.36774242771038335
1539131647651153,0.9070572976272224,0.17926298924238981,0.3705500877393755
1539131647667135,0.9077897306782639,0.18048371099412552,0.36823071641107763
1539131647683117,0.9074235141527431,0.1797512779430841,0.36896314946211906
1539131647699098,0.9087663080796524,0.1809719996948198,0.36945143816281334
1539131647715026,0.9075455863279167,0.18255893797207623,0.36859693293659834
1539131647731008,0.9065690089265281,0.18072785534447267,0.36737621118486263
1539131647746989,0.9077897306782639,0.18048371099412552,0.3696955825131605
1539131647762970,0.9084000915541317,0.1814602883955141,0.36725413900968906
1539131647778951,0.9096208133058674,0.17987335011825767,0.3687190051117719
1539131647794932,0.9024185549706267,0.1788967727168691,0.36932936598763977
1539131647810914,0.9087663080796524,0.18121614404516695,0.36737621118486263
1539131647826895,0.9092545967803467,0.1830472266727705,0.36444647898069693
1539131647842876,0.9103532463569088,0.18793011367971335,0.3704280155642019
1539131647858857,0.9065690089265281,0.1830472266727705,0.3659113450827798
1539131647874838,0.908033875028611,0.1801174944686048,0.3679865720607305
1539131647890820,0.906324864576181,0.17950713359273696,0.36737621118486263
1539131647906801,0.9090104524299996,0.1809719996948198,0.36859693293659834
1539131647922782,0.9090104524299996,0.18219272144655552,0.3671320668345155
1539131647938763,0.9074235141527431,0.17962920576791053,0.3714045929655905
1539131647954744,0.9082780193789581,0.1797512779430841,0.3676203555352098
1539131647970726,0.9102311741817353,0.17828641184100125,0.36444647898069693
1539131647986707,0.9093766689555203,0.1826810101472498,0.3678644998855569
1539131648002688,0.9086442359044788,0.1823147936217291,0.3661554894331269
1539131648018669,0.9087663080796524,0.18121614404516695,0.3670099946593419
1539131648034668,0.9094987411306938,0.18036163881895195,0.36688792248416835
1539131648050649,0.9082780193789581,0.1809719996948198,0.3670099946593419
1539131648066630,0.9085221637293053,0.1785305561913484,0.3683527885862512
1539131648082611,0.9101091020065617,0.18036163881895195,0.3667658503089948
1539131648098592,0.9092545967803467,0.1826810101472498,0.3654230563820855
1539131648114574,0.9079118028534374,0.18207064927138195,0.3700617990386812
1539131648130555,0.9086442359044788,0.18207064927138195,0.3671320668345155
1539131648146536,0.9091325246051731,0.17926298924238981,0.36823071641107763
1539131648162517,0.9065690089265281,0.1801174944686048,0.36859693293659834
1539131648178498,0.9093766689555203,0.17865262836652196,0.37030594338902834
1539131648194480,0.9076676585030903,0.17950713359273696,0.36981765468833405
1539131648210461,0.9074235141527431,0.18072785534447267,0.36847486076142477
1539131648226442,0.908033875028611,0.1814602883955141,0.3688410772869455
1539131648242423,0.9077897306782639,0.18243686579690266,0.36566720073243264
1539131648258404,0.9062027924010074,0.18487830930037408,0.3670099946593419
1539131648274386,0.9073014419775696,0.17962920576791053,0.36810864423590406
1539131648290367,0.9077897306782639,0.18048371099412552,0.3679865720607305
1539131648306348,0.9073014419775696,0.17828641184100125,0.3678644998855569
1539131648322329,0.9077897306782639,0.17901884489204267,0.36737621118486263
1539131648338310,0.9085221637293053,0.18194857709620837,0.36566720073243264
1539131648354248,0.908033875028611,0.17962920576791053,0.37018387121385476
1539131648370229,0.9076676585030903,0.17950713359273696,0.3679865720607305
1539131648386210,0.908033875028611,0.17926298924238981,0.36737621118486263
1539131648402191,0.9085221637293053,0.1823147936217291,0.36652170595864764
1539131648418172,0.9098649576562146,0.1776760509651334,0.3683527885862512
1539131648434154,0.908033875028611,0.18255893797207623,0.3704280155642019
1539131648450135,0.9086442359044788,0.17865262836652196,0.3688410772869455
1539131648466116,0.9093766689555203,0.18292515449759694,0.36810864423590406
1539131648482097,0.9099870298313881,0.17962920576791053,0.3657892729076062
1539131648498078,0.9098649576562146,0.18084992751964624,0.36444647898069693
1539131648514060,0.9102311741817353,0.18048371099412552,0.36444647898069693
1539131648530041,0.9085221637293053,0.17901884489204267,0.3688410772869455
1539131648546022,0.9090104524299996,0.18243686579690266,0.3671320668345155
1539131648562003,0.9096208133058674,0.18036163881895195,0.3667658503089948
1539131648577984,0.9074235141527431,0.18072785534447267,0.3662775616083005
1539131648593966,0.9104753185320824,0.18036163881895195,0.36566720073243264
1539131648609947,0.9102311741817353,0.18121614404516695,0.36896314946211906
1539131648625928,0.9090104524299996,0.1823147936217291,0.36737621118486263
1539131648641909,0.9081559472037846,0.1818265049210348,0.36847486076142477
1539131648657890,0.9086442359044788,0.1801174944686048,0.3688410772869455
1539131648673858,0.908888380254826,0.1776760509651334,0.36847486076142477
1539131648689839,0.9084000915541317,0.1785305561913484,0.3695735103379869
1539131648705821,0.9081559472037846,0.18023956664377838,0.3671320668345155
1539131648721802,0.9092545967803467,0.18207064927138195,0.3637140459296555
1539131648737783,0.9084000915541317,0.17950713359273696,0.3709163042648962
1539131648753764,0.9082780193789581,0.17987335011825767,0.3666437781338212
1539131648769745,0.9074235141527431,0.1788967727168691,0.36981765468833405
1539131648785727,0.9085221637293053,0.1806057831692991,0.36847486076142477
1539131648801708,0.9092545967803467,0.1823147936217291,0.36737621118486263
1539131648817689,0.9068131532768753,0.17828641184100125,0.3696955825131605
1539131648833670,0.9076676585030903,0.18243686579690266,0.36444647898069693
1539131648849651,0.9068131532768753,0.1771877622644391,0.3707942320897226
1539131648865633,0.908033875028611,0.17950713359273696,0.3671320668345155
1539131648881614,0.9076676585030903,0.18072785534447267,0.3671320668345155
1539131648897595,0.907179369802396,0.1806057831692991,0.3696955825131605
1539131648913576,0.9069352254520489,0.18341344319829123,0.36554512855725907
1539131648929557,0.9084000915541317,0.1785305561913484,0.36823071641107763
1539131648945539,0.908033875028611,0.1818265049210348,0.3678644998855569
1539131648961520,0.9086442359044788,0.1780422674906541,0.37238117036697904
1539131648977501,0.908033875028611,0.18194857709620837,0.3683527885862512
1539131648993469,0.9081559472037846,0.17914091706721624,0.3688410772869455
1539131649009450,0.9084000915541317,0.1809719996948198,0.36945143816281334
1539131649025431,0.9090104524299996,0.17938506141756339,0.36932936598763977
1539131649041412,0.9077897306782639,0.18133821622034052,0.3704280155642019
1539131649057394,0.9075455863279167,0.17938506141756339,0.36932936598763977
1539131649073375,0.9090104524299996,0.18036163881895195,0.3707942320897226
1539131649089356,0.907179369802396,0.18084992751964624,0.3705500877393755
1539131649105337,0.9084000915541317,0.17962920576791053,0.3712825207904169
1539131649121318,0.9070572976272224,0.18170443274586123,0.37152666514076405
1539131649137300,0.9073014419775696,0.1776760509651334,0.3704280155642019
1539131649153281,0.9076676585030903,0.17962920576791053,0.3696955825131605
1539131649169262,0.9075455863279167,0.18072785534447267,0.3676203555352098
1539131649185243,0.907179369802396,0.17999542229343124,0.37067215991454905
1539131649201224,0.9079118028534374,0.17962920576791053,0.36981765468833405
1539131649217206,0.9073014419775696,0.1785305561913484,0.3743343251697562
1539131649233187,0.9074235141527431,0.1797512779430841,0.37225909819180547
1539131649249168,0.9059586480506603,0.18048371099412552,0.3687190051117719
1539131649265149,0.9070572976272224,0.1797512779430841,0.37103837644006976
1539131649281130,0.9076676585030903,0.1814602883955141,0.37274738689249975
1539131649297112,0.9070572976272224,0.17828641184100125,0.37189288166628476
1539131649313049,0.9059586480506603,0.17999542229343124,0.3716487373159376
1539131649329030,0.9065690089265281,0.17901884489204267,0.3725032425421526
1539131649345010,0.9065690089265281,0.17962920576791053,0.3699397268635076
1539131649360991,0.9081559472037846,0.18072785534447267,0.3714045929655905
1539131649376972,0.9069352254520489,0.18219272144655552,0.3695735103379869
1539131649392953,0.9058365758754867,0.18158236057068766,0.37189288166628476
1539131649408933,0.9060807202258339,0.18194857709620837,0.37225909819180547
1539131649424914,0.9051041428244453,0.1788967727168691,0.3767757686732285
1539131649440895,0.906324864576181,0.17669947356374482,0.37518883039597206
1539131649456875,0.9065690089265281,0.17901884489204267,0.3738460364690619
1539131649472856,0.9064469367513546,0.17999542229343124,0.37518883039597206
1539131649488837,0.906324864576181,0.18158236057068766,0.37152666514076405
1539131649504818,0.9047379262989246,0.1823147936217291,0.37189288166628476
1539131649520798,0.9062027924010074,0.1823147936217291,0.3704280155642019
1539131649536779,0.9069352254520489,0.1806057831692991,0.37238117036697904
1539131649552760,0.9055924315251396,0.1823147936217291,0.37494468604562403
1539131649568740,0.9052262149996189,0.17901884489204267,0.3757991912718399
1539131649584721,0.9047379262989246,0.17938506141756339,0.3750667582207985
1539131649600702,0.9051041428244453,0.1780422674906541,0.37738612954909634
1539131649616683,0.9055924315251396,0.17926298924238981,0.3771419851987492
1539131649632660,0.9066910811017017,0.17950713359273696,0.37323567559319404
1539131649648640,0.905470359349966,0.1809719996948198,0.37531090257114563
1539131649664621,0.9051041428244453,0.17950713359273696,0.3745784695201033
1539131649680602,0.9043717097734039,0.1826810101472498,0.37360189211871475
1539131649696582,0.9044937819485774,0.1826810101472498,0.37409018081940903
1539131649712563,0.903761348897536,0.18048371099412552,0.37775234607461705
1539131649728544,0.9044937819485774,0.17792019531548053,0.37604333562218706
1539131649744525,0.9053482871747924,0.1785305561913484,0.37689784084840205
1539131649760505,0.9053482871747924,0.1785305561913484,0.3767757686732285
1539131649776486,0.905470359349966,0.17865262836652196,0.3712825207904169
1539131649792467,0.9052262149996189,0.18341344319829123,0.37103837644006976
1539131649808447,0.9090104524299996,0.1806057831692991,0.3743343251697562
1539131649824428,0.905470359349966,0.1809719996948198,0.3734798199435412
1539131649840409,0.9048599984740981,0.17999542229343124,0.37311360341802047
1539131649856390,0.9053482871747924,0.18316929884794408,0.3745784695201033
1539131649872370,0.9059586480506603,0.1776760509651334,0.3771419851987492
1539131649888351,0.9053482871747924,0.17755397878995982,0.37640955214770777
1539131649904332,0.9074235141527431,0.17584496833752983,0.3717708094911112
1539131649920313,0.9076676585030903,0.17938506141756339,0.3676203555352098
1539131649936293,0.9060807202258339,0.1801174944686048,0.3734798199435412
1539131649952240,0.9059586480506603,0.18084992751964624,0.37360189211871475
1539131649968220,0.9059586480506603,0.18280308232242337,0.37518883039597206
1539131649984201,0.9053482871747924,0.18377965972381194,0.37274738689249975
1539131650000182,0.905470359349966,0.18194857709620837,0.3717708094911112
1539131650016162,0.9059586480506603,0.18207064927138195,0.37152666514076405
1539131650032143,0.9049820706492717,0.1801174944686048,0.37518883039597206
1539131650048124,0.9052262149996189,0.17779812314030696,0.37909514000152633
1539131650064105,0.905470359349966,0.17730983443961268,0.3767757686732285
1539131650080085,0.9060807202258339,0.17523460746166197,0.3757991912718399
1539131650096066,0.905470359349966,0.18109407186999338,0.37409018081940903
1539131650112047,0.9044937819485774,0.18329137102311766,0.3771419851987492
1539131650128028,0.9044937819485774,0.18121614404516695,0.3805600061036092
1539131650144008,0.9035172045471889,0.18121614404516695,0.37518883039597206
1539131650159989,0.9052262149996189,0.17914091706721624,0.3734798199435412
1539131650175970,0.9079118028534374,0.1771877622644391,0.3700617990386812
1539131650191950,0.9079118028534374,0.1788967727168691,0.3687190051117719
1539131650207931,0.9066910811017017,0.18084992751964624,0.36945143816281334
1539131650223912,0.9073014419775696,0.1847562371252005,0.3696955825131605
1539131650239893,0.9064469367513546,0.18414587624933265,0.36847486076142477
1539131650255873,0.9073014419775696,0.18487830930037408,0.36823071641107763
1539131650271850,0.9073014419775696,0.1860990310521098,0.3670099946593419
1539131650287831,0.9064469367513546,0.1835355153734648,0.3678644998855569
1539131650303812,0.9069352254520489,0.18255893797207623,0.3707942320897226
1539131650319792,0.9053482871747924,0.18341344319829123,0.3779964904249642
1539131650335773,0.9033951323720153,0.18414587624933265,0.3838559548332956
1539131650351754,0.9036392767223624,0.1823147936217291,0.3787289234760056
1539131650367735,0.9053482871747924,0.18109407186999338,0.37274738689249975
1539131650383715,0.9085221637293053,0.17962920576791053,0.36566720073243264
1539131650399696,0.9096208133058674,0.1801174944686048,0.3591973754482334
1539131650415677,0.908888380254826,0.18255893797207623,0.36151674677653123
1539131650431657,0.9090104524299996,0.18463416495002694,0.35931944762340695
1539131650447638,0.9084000915541317,0.18707560845349835,0.3599298084992748
1539131650463619,0.9103532463569088,0.19183642328526762,0.36054016937514266
1539131650479600,0.911451895933471,0.18963912413214334,0.35638971541924125
1539131650495580,0.9129167620355538,0.18548867017624193,0.3537041275654227
1539131650511561,0.9086442359044788,0.1881742580300605,0.36054016937514266
1539131650527542,0.9047379262989246,0.19000534065766406,0.37201495384145833
1539131650543522,0.903761348897536,0.18707560845349835,0.37640955214770777
1539131650559503,0.9079118028534374,0.17999542229343124,0.3737239642938883
1539131650575484,0.9082780193789581,0.17926298924238981,0.3591973754482334
1539131650591430,0.9147478446631574,0.17816433966582768,0.35260547798886055
1539131650607411,0.9162127107652402,0.18255893797207623,0.3440604257267106
1539131650623392,0.9163347829404138,0.18780804150453978,0.3401541161211563
1539131650639372,0.9162127107652402,0.19220263981078833,0.3347829404135192
1539131650655353,0.9192645151445795,0.19476615548943332,0.3296559090562292
1539131650671334,0.9196307316701002,0.20099183642328544,0.32916762035553493
1539131650687315,0.9217059586480509,0.20135805294880615,0.3313649195086592
1539131650703295,0.9196307316701002,0.19476615548943332,0.33160906385900635
1539131650719276,0.9147478446631574,0.2048981460288397,0.33539330128938705
1539131650735257,0.9143816281376367,0.19830624856946688,0.34637979705500843
1539131650751237,0.9119401846341653,0.18927290760662263,0.35431448844129054
1539131650767218,0.914015411612116,0.17828641184100125,0.35602349889372054
1539131650783199,0.914869916838331,0.17840848401617482,0.3532158388647284
1539131650799180,0.9074235141527431,0.18402380407415908,0.3444266422522313
1539131650815160,0.9242694743266959,0.17901884489204267,0.3209887846189057
1539131650831141,0.9221942473487452,0.19073777370870548,0.3224536507209885
1539131650847122,0.9221942473487452,0.19940489814602902,0.31805905241474
1539131650863103,0.9215838864728774,0.20502021820401328,0.3184252689402607
1539131650879083,0.9235370412756545,0.19916075379568188,0.3205004959182114
1539131650895064,0.9225604638742659,0.20062561989776473,0.31940184634164925
1539131650911041,0.9197528038452738,0.18719768062867193,0.3230640115968564
1539131650927022,0.9243915465018695,0.1847562371252005,0.3230640115968564
1539131650943002,0.9262226291294731,0.1885404745555812,0.3250171663996335
1539131650958983,0.9254901960784316,0.19085984588387905,0.3250171663996335
1539131650974964,0.9242694743266959,0.18780804150453978,0.32404058899824495
1539131650990944,0.9254901960784316,0.1868314641031512,0.31903562981612854
1539131651006925,0.9247577630273902,0.1823147936217291,0.31891355764095497
1539131651022906,0.9251239795529109,0.1785305561913484,0.3200122072175171
1539131651038887,0.9251239795529109,0.1747463187609677,0.3229419394216828
1539131651054867,0.9243915465018695,0.17840848401617482,0.3258716716258485
1539131651070848,0.9206073090714888,0.17657740138857125,0.33124284733348563
1539131651086829,0.9218280308232245,0.17657740138857125,0.33368429083695705
1539131651102810,0.9198748760204474,0.17145037003128127,0.3389333943694206
1539131651118790,0.9196307316701002,0.17645532921339768,0.3352712291142135
1539131651134771,0.9207293812466624,0.18451209277485336,0.33539330128938705
1539131651150752,0.9197528038452738,0.1818265049210348,0.33331807431143634
1539131651166732,0.9224383916990924,0.17645532921339768,0.33368429083695705
1539131651182713,0.9218280308232245,0.17169451438162842,0.3344167238879985
1539131651198694,0.9225604638742659,0.16656748302433844,0.3355153734645606
1539131651214675,0.9243915465018695,0.16559090562294987,0.3318532082093535
1539131651230621,0.9235370412756545,0.17230487525749627,0.33026626993209707
1539131651246601,0.9245136186770431,0.17035172045471914,0.32990005340657635
1539131651262581,0.9243915465018695,0.17523460746166197,0.3277027542534521
1539131651278562,0.9240253299763488,0.1713282978561077,0.32440680552376566
1539131651294542,0.9259784847791259,0.18500038147554765,0.3230640115968564
1539131651310522,0.9262226291294731,0.18536659800106836,0.3200122072175171
1539131651326502,0.9256122682536052,0.18170443274586123,0.3184252689402607
1539131651342483,0.9280537117570766,0.17755397878995982,0.31854734111543426
1539131651358463,0.9268329900053409,0.1747463187609677,0.31683833066300426
1539131651374443,0.9264667734798202,0.17315938048371127,0.31769283588921926
1539131651390423,0.9279316395819031,0.17267109178301698,0.31696040283817783
1539131651406404,0.9271992065308616,0.1747463187609677,0.3145189593347064
1539131651422384,0.9278095674067295,0.17938506141756339,0.3081712062256807
1539131651438364,0.929640650034333,0.18451209277485336,0.3067063401235979
1539131651454344,0.9301289387350273,0.1835355153734648,0.3028000305180436
1539131651470325,0.9303730830853745,0.18316929884794408,0.3019455252918286
1539131651486305,0.9320820935378045,0.17877470054169553,0.30511940184634145
1539131651502285,0.932204165712978,0.17486839093614126,0.30170138094148147
1539131651518265,0.933913176165408,0.17438010223544698,0.2999923704890515
1539131651534246,0.9341573205157552,0.1797512779430841,0.2974288548104065
1539131651550262,0.9328145265888459,0.18377965972381194,0.2944991226062408
1539131651566243,0.9342793926909287,0.18365758754863837,0.28961623559929794
1539131651582224,0.9351338979171437,0.18548867017624193,0.28925001907377723
1539131651598204,0.9344014648661023,0.1826810101472498,0.2857099259937437
1539131651614185,0.9357442587930116,0.18622110322728336,0.28363469901579297
1539131651630166,0.9379415579461359,0.18377965972381194,0.27911802853437084
1539131651646146,0.9376974135957887,0.18487830930037408,0.2775310902571144
1539131651662127,0.9397726405737394,0.18829633020523406,0.2735027084763866
1539131651678108,0.9402609292744337,0.19000534065766406,0.269962615396353
1539131651694089,0.9389181353475244,0.1890287632562755,0.27069504844739445
1539131651710069,0.941603723201343,0.18951705195696977,0.26861982146944374
1539131651726050,0.9417257953765166,0.19122606240939977,0.2688639658197909
1539131651742031,0.940749217975128,0.19159227893492048,0.2641031509880216
1539131651758011,0.9419699397268637,0.18866254673075478,0.26349279011215376
1539131651773992,0.9430685893034259,0.1919584954604412,0.26190585183489734
1539131651789973,0.9427023727779051,0.19012741283283763,0.2600747692072938
1539131651805954,0.9448996719310294,0.19330128938735047,0.25519188220035094
1539131651821934,0.9428244449530787,0.19305714503700333,0.2510414282444495
1539131651837915,0.9423361562523844,0.19305714503700333,0.25555809872587165
1539131651853896,0.9422140840772109,0.19305714503700333,0.2565346761272602
1539131651869812,0.9431906614785994,0.19256885633630905,0.2545815213244831
1539131651885792,0.944167238879988,0.19476615548943332,0.2507972838941024
1539131651901772,0.9448996719310294,0.19305714503700333,0.2490882734416724
1539131651917752,0.9461203936827651,0.19073777370870548,0.24689097428854812
1539131651933733,0.9461203936827651,0.19684138246738403,0.24420538643472955
1539131651949713,0.9461203936827651,0.19794003204394617,0.2394445716029603
1539131651965693,0.9456321049820708,0.19891660944533474,0.24420538643472955
1539131651981673,0.9452658884565501,0.1965972381170369,0.24335088120851456
1539131651997654,0.9472190432593273,0.1928130006866562,0.24200808728160528
1539131652013634,0.9463645380331123,0.1940337224383919,0.24090943770504314
1539131652029614,0.9453879606317237,0.19391165026321833,0.2439612420843824
1539131652045594,0.9457541771572444,0.19635309376668975,0.24115358205539028
1539131652061575,0.9470969710841537,0.19501029983978047,0.24469367513542384
1539131652077555,0.9477073319600215,0.19293507286182976,0.24762340733958954
1539131652093535,0.9452658884565501,0.1906157015335319,0.2503089951934081
1539131652109515,0.945021744106203,0.1911039902342262,0.24933241779201953
1539131652125496,0.9447775997558558,0.18915083543144906,0.25006485084306096
1539131652141476,0.9451438162813766,0.19073777370870548,0.24640268558785383
1539131652157456,0.945021744106203,0.1928130006866562,0.24591439688715955
1539131652173436,0.945876249332418,0.19562066071564832,0.24347295338368813
1539131652189422,0.9470969710841537,0.19391165026321833,0.24042114900434886
1539131652205402,0.9442893110551616,0.19378957808804476,0.2515297169451438
1539131652221383,0.943312733653773,0.18793011367971335,0.25775539787899593
1539131652237363,0.9438010223544673,0.18805218585488692,0.26398107881284805
1539131652253343,0.944167238879988,0.18658731975280407,0.26178377965972377
1539131652269323,0.9417257953765166,0.1818265049210348,0.2633707179369802
1539131652285304,0.9434348058289466,0.1847562371252005,0.2599526970321202
1539131652301284,0.9413595788509959,0.1852445258258948,0.25934233615625235
1539131652317264,0.9439230945296408,0.1885404745555812,0.2600747692072938
1539131652333244,0.9411154345006487,0.18805218585488692,0.26056305790798806
1539131652349225,0.9425803006027316,0.1919584954604412,0.2604409857328145
1539131652365205,0.9412375066758223,0.19073777370870548,0.26263828488593877
1539131652381185,0.9406271457999544,0.18890669108110192,0.2688639658197909
1539131652397165,0.9397726405737394,0.18658731975280407,0.2695963988708323
1539131652413146,0.9370870527199209,0.1843900205996798,0.275089646753643
1539131652429126,0.9383077744716566,0.18377965972381194,0.2743572137026016
1539131652445106,0.9409933623254751,0.18451209277485336,0.27203784237430373
1539131652461086,0.9406271457999544,0.18780804150453978,0.26947432669565874
1539131652477067,0.9400167849240866,0.18841840238040763,0.26739909971770803
1539131652493047,0.9403830014496073,0.19122606240939977,0.26739909971770803
1539131652508972,0.9405050736247809,0.19256885633630905,0.26605630579079875
1539131652524952,0.9400167849240866,0.1919584954604412,0.26642252231631947
1539131652540932,0.9385519188220037,0.19220263981078833,0.2709391927977416
1539131652556913,0.9387960631723509,0.18951705195696977,0.274235141527428
1539131652572893,0.9375753414206152,0.18841840238040763,0.2780193789578087
1539131652588873,0.9375753414206152,0.18793011367971335,0.2755779354543373
1539131652604853,0.9365987640192266,0.18695353627832478,0.27704280155642014
1539131652620833,0.9370870527199209,0.18890669108110192,0.2813153276874951
1539131652636814,0.9367208361944002,0.1890287632562755,0.27948424505989156
1539131652652794,0.9378194857709623,0.19134813458457334,0.2775310902571144
1539131652668774,0.9387960631723509,0.19244678416113548,0.2747234302281223
1539131652684754,0.9368429083695737,0.19330128938735047,0.275944151979858
1539131652700735,0.9368429083695737,0.18963912413214334,0.27582207980468443
1539131652716715,0.9365987640192266,0.1931792172121769,0.2755779354543373
1539131652732695,0.9359884031433587,0.19037155718318477,0.28168154421301583
1539131652748675,0.935622186617838,0.18927290760662263,0.28583199816891725
1539131652764656,0.9346456092164495,0.18866254673075478,0.28290226596475154
1539131652780636,0.9350118257419702,0.18951705195696977,0.2860761425192644
1539131652796616,0.9355001144426645,0.18890669108110192,0.2857099259937437
1539131652812596,0.9355001144426645,0.18988326848249049,0.2838788433661401
1539131652828582,0.933913176165408,0.19342336156252404,0.2840009155413137
1539131652844563,0.9359884031433587,0.1906157015335319,0.28363469901579297
1539131652860543,0.9363546196688795,0.19171435111009405,0.28253604943923083
1539131652876523,0.9340352483405816,0.1914702067597469,0.28619821469443796
1539131652892503,0.9353780422674909,0.19220263981078833,0.2864423590447851
1539131652908484,0.931349660486763,0.19220263981078833,0.2898603799496451
1539131652924464,0.930495155260548,0.1814602883955141,0.2947432669565879
1539131652940444,0.9335469596398873,0.18084992751964624,0.30170138094148147
1539131652956424,0.9325703822384988,0.18951705195696977,0.305241474021515
1539131652972405,0.9297627222095066,0.19293507286182976,0.30426489662012646
1539131652988385,0.9265888456549938,0.18500038147554765,0.3196459906919964
1539131653004365,0.9226825360494395,0.18573281452658907,0.32062256809338496
1539131653020345,0.9203631647211417,0.18084992751964624,0.3401541161211563
1539131653036326,0.9169451438162817,0.17450217441062055,0.3489433127336534
1539131653052306,0.9193865873197531,0.16778820477607415,0.3466239414053556
1539131653068286,0.9164568551155874,0.17206073090714913,0.34918745708400056
1539131653084266,0.9179217212176702,0.18951705195696977,0.3411306935225449
1539131653100247,0.9112077515831238,0.1671778439002063,0.3792172121766999
1539131653116227,0.9002212558175025,0.14923323414969136,0.40924696726939835
1539131653132207,0.8942397192339975,0.14642557412069923,0.4199893186846726
1539131653148162,0.8886243991760132,0.16021972991531275,0.3997253376058598
1539131653164143,0.8927748531319146,0.17157244220645484,0.4182803082322426
1539131653180123,0.8939955748836503,0.1965972381170369,0.4523384451056689
1539131653196103,0.8434576943617911,0.09564354924849283,0.5127641718165865
1539131653212083,0.8574959945067517,0.1231097886625463,0.5132524605172808
1539131653228064,0.8412603952086668,0.13495078965438356,0.49164568551155874
1539131653244044,0.8832532234683761,0.1843900205996798,0.45294880598153675
1539131653260024,0.8352788586251618,0.12396429388876129,0.5280231937132829
1539131653276004,0.8015869382772562,0.124330510414282,0.5819790951400012
1539131653291985,0.7964599069199663,0.07635614557106862,0.611642633707179
1539131653307965,0.7915770199130234,0.12494087129014986,0.5537804226749063
1539131653323945,0.8026855878538184,0.1696192874036777,0.6128633554589147
1539131653339925,0.7897459372854199,0.13250934615091214,0.6475318532082097
1539131653355906,0.7638666361486228,0.07061875333791079,0.6840314335851074
1539131653371886,0.7472648203250172,0.07696650644693648,0.6802471961547267
1539131653387866,0.7514152742809186,0.1050431067368578,0.6605935759517818
1539131653403846,0.7631342030975814,0.14117647058823568,0.6071259632257568
1539131653419827,0.7764400701915006,0.18219272144655552,0.5894254978255891
1539131653435807,0.7952391851682306,0.205386434729534,0.5463340199893185
1539131653451787,0.763256275272755,0.16729991607537986,0.653147173266194
1539131653467773,0.7018539711604488,0.08661020828564858,0.716014343480583
1539131653483753,0.6797589074540324,0.10077058060578281,0.7273670557717251
1539131653499734,0.6295872434576948,0.10064850843060924,0.7996337834744791
1539131653515714,0.5993133440146483,0.13849088273441712,0.8162355992980848
1539131653531694,0.5547570000762949,0.12628366521706003,0.8426031891355761
1539131653547674,0.5166704814221408,0.0567025253681237,0.862256809338521
1539131653563655,0.5537804226749063,-0.002746623941405346,0.8335698481727318
1539131653579635,0.5788052185854884,0.10394445716029566,0.8103761348897534
1539131653595615,0.5591515983825435,0.19354543373769761,0.7862058442053863
1539131653611595,0.5454795147631035,0.14801251239795565,0.8458991378652625
1539131653627575,0.5164263370717936,0.20306706340123615,0.8214847028305483
1539131653643556,0.5027542534523537,0.17242694743266984,0.8258793011367969
1539131653659536,0.4737010757610438,0.09295796139467427,0.801953154802777
1539131653675516,0.4461127641718168,0.006408789196612474,0.801098649576562
1539131653691496,0.4561226825360496,-0.03582818341344307,0.8125734340428776
1539131653707477,0.6552224002441447,-0.08526741435873975,0.8112306401159683
1539131653723457,0.8258793011367969,-0.2721599145494773,0.7406729228656443
1539131653739437,0.8408941786831461,0.15802243076218847,0.6529030289158468
1539131653755417,0.7588616769665064,0.42059967956054045,0.6632791638056004
1539131653771398,0.7034409094377052,0.36932936598763977,0.7009994659342338
1539131653787384,0.6687724116884111,0.1893949797817962,0.7372549019607844
1539131653803364,0.6621805142290382,0.07257190814068792,0.7447013046463722
1539131653819344,0.6508278019378961,0.031311512932020946,0.7527580682078279
1539131653835324,0.6367895017929355,0.09832913710231139,0.7771725032425421
1539131653851305,0.6371557183184562,0.10663004501411422,0.7718013275349049
1539131653867285,0.6673075455863282,0.10809491111619707,0.7500724803540093
1539131653883265,0.6986800946059359,0.1301899748226143,0.7119859616998552
1539131653899245,0.7002670328831924,0.1465476462958728,0.7156481269550623
1539131653915226,0.6792706187533382,0.13067826352330858,0.730540932326238
1539131653931206,0.6603494316014347,0.10492103456168422,0.74531166552224
1539131653947186,0.6533913176165411,0.10052643625543567,0.7517814908064393
1539131653963166,0.6537575341420618,0.10846112764171778,0.7460440985732815
1539131653979147,0.657419699397269,0.10980392156862706,0.7434805828946365
1539131653995127,0.6572976272220954,0.10833905546654421,0.7473868925001907
1539131654011107,0.6662088960097661,0.1062638284885935,0.7425040054932479
1539131654027087,0.6659647516594189,0.1100480659189742,0.7420157167925536
1539131654043068,0.670481422140841,0.12164492256046344,0.7299305714503701
1539131654059048,0.6735332265201803,0.123476005188067,0.7334706645304037
1539131654075028,0.6718242160677503,0.12420843823910843,0.7283436331731137
1539131654091008,0.6659647516594189,0.11602960250247918,0.7385976958876936
1539131654106964,0.6681620508125432,0.12188906691081058,0.7382314793621729
1539131654122944,0.6662088960097661,0.11712825207904132,0.7370107576104372
1539131654138924,0.6659647516594189,0.11419851987487561,0.7406729228656443
1539131654154904,0.6640115968566418,0.10724040588998207,0.7431143663691158
1539131654170885,0.6615701533531704,0.10211337453269209,0.7510490577553979
1539131654186865,0.6588845654993518,0.10492103456168422,0.7466544594491493
1539131654202845,0.659983215075914,0.10260166323338638,0.7490959029526207
1539131654218825,0.6638895246814682,0.1062638284885935,0.7335927367055772
1539131654234806,0.6657206073090718,0.11017013809414777,0.742748149843595
1539131654250786,0.6698710612649732,0.11663996337834703,0.729686427100023
1539131654266766,0.674753948271916,0.1155413138017849,0.7329823758297094
1539131654282746,0.6748760204470896,0.11859311818112417,0.7323720149538415
1539131654298727,0.6749980926222632,0.1117570763714042,0.7282215609979401
1539131654314707,0.681589990081636,0.11749446860456203,0.7094224460212102
1539131654330687,0.6874494544899674,0.11920347905699202,0.7146715495536737
1539131654346667,0.6903791866941331,0.12506294346532432,0.7105210955977723
1539131654362648,0.6919661249713895,0.12213321126115773,0.7188220035095751
1539131654378628,0.6933089188982988,0.12323186083771986,0.7129625391012437
1539131654394608,0.695262073701076,0.12018005645838059,0.712596322575723
1539131654410588,0.6919661249713895,0.11786068513008274,0.714305333028153
1539131654426574,0.6912336919203481,0.11200122072175134,0.7146715495536737
1539131654442555,0.6900129701686124,0.10650797283894065,0.7243152513923858
1539131654458535,0.6881818875410088,0.09771877622644354,0.721995880064088
1539131654474515,0.6917219806210424,0.09210345616845927,0.7139391165026323
1539131654490495,0.7035629816128788,0.10553139543755208,0.7033188372625316
1539131654506476,0.7163805600061037,0.1231097886625463,0.676462958724346
1539131654522456,0.7252918287937744,0.13250934615091214,0.6712138551918825
1539131654538436,0.7370107576104372,0.14557106889448423,0.6623025864042118
1539131654554416,0.7411612115663386,0.14972152285038565,0.6547341115434504
1539131654570397,0.7422598611429008,0.14251926451514496,0.6607156481269554
1539131654586377,0.7449454489967193,0.13653772793163999,0.6524147402151526
1539131654602357,0.7434805828946365,0.14593728542000495,0.6555886167696654
1539131654618337,0.7522697795071336,0.14459449149309567,0.6422827496757462
1539131654634317,0.7613031204699778,0.14752422369726137,0.641184100099184
1539131654650298,0.7644769970244907,0.15924315251392418,0.6303196765087362
1539131654666278,0.7553215838864729,0.1439841306172278,0.6422827496757462
1539131654682258,0.74531166552224,0.12213321126115773,0.6521705958648054
1539131654698238,0.7421377889677272,0.10931563286793278,0.6626688029297325
1539131654714219,0.7477531090257115,0.1146868085755699,0.656565194171054
1539131654730199,0.754711223010605,0.11810482948042988,0.6409399557488369
1539131654746154,0.7686274509803921,0.1386129549095907,0.6237277790493625
1539131654762134,0.7727779049362935,0.1448386358434428,0.6123750667582204
1539131654778114,0.7750972762645914,0.13873502708476426,0.6177462424658575
1539131654794094,0.7759517814908063,0.14288548104066567,0.6070038910505833
1539131654810073,0.7812008850232699,0.13788052185854927,0.605661097123674
1539131654826053,0.7907225146868084,0.1579003585870149,0.5873502708476384
1539131654842033,0.7912108033875027,0.15045395590142707,0.5904020752269776
1539131654858013,0.7949950408178834,0.15521477073319634,0.5861295490959026
1539131654873993,0.7981689173723963,0.1604638742656599,0.5769741359578848
1539131654889972,0.7997558556496527,0.16217288471808988,0.5774624246585791
1539131654905952,0.8042725261310748,0.16009765774013918,0.5719691767757684
1539131654921932,0.8052491035324634,0.15631342030975848,0.567818722819867
1539131654937912,0.8093995574883648,0.15057602807660064,0.5674525062943463
1539131654953891,0.8126955062180512,0.16192874036774274,0.5546349279011213
1539131654969871,0.8161135271229112,0.16119630731670131,0.5541466392004271
1539131654985851,0.8186770428015562,0.16058594644083346,0.5474326695658807
1539131655001831,0.8230716411078047,0.15899900816357704,0.5471885252155335
1539131655017810,0.8268558785381854,0.17438010223544698,0.5336385137712671
1539131655033790,0.8262455176623176,0.17694361791409197,0.5285114824139772
1539131655049770,0.8294193942168304,0.16827649347676843,0.5305867093919279
1539131655065765,0.8313725490196076,0.16974135957885128,0.5249713893339436
1539131655081745,0.8345464255741204,0.16522468909742916,0.5215533684290836
1539131655097725,0.8350347142748147,0.17413595788509983,0.5194781414511329
1539131655113706,0.8354009308003354,0.16937514305333057,0.5170366979476615
1539131655129686,0.8366216525520711,0.1818265049210348,0.5104448004882887
1539131655145666,0.838086518654154,0.17193865873197556,0.5125200274662394
1539131655161646,0.8400396734569311,0.18023956664377838,0.5062943465323873
1539131655177627,0.8405279621576254,0.17840848401617482,0.506660563057908
1539131655193607,0.8417486839093611,0.1771877622644391,0.5062943465323873
1539131655209587,0.8454108491645682,0.18036163881895195,0.5003128099488823
1539131655225567,0.8465094987411304,0.170962081330587,0.5031204699778744
1539131655241548,0.8499275196459903,0.18573281452658907,0.4910353246356909
1539131655257528,0.8480964370183868,0.1751125352864884,0.4977492942702373
1539131655273508,0.8491950865949489,0.1852445258258948,0.49372091248950944
1539131655289488,0.8496833752956432,0.21014724956130326,0.4767528801403831
1539131655305469,0.8452887769893946,0.1730373083085377,0.49909208819714657
1539131655321449,0.8474860761425189,0.16485847257190844,0.5056839856565194
1539131655337429,0.8489509422446018,0.15863279163805633,0.4979934386205844
1539131655353409,0.8539559014267182,0.17840848401617482,0.48444342717631805
1539131655369390,0.8557869840543217,0.20184634164950044,0.4699168383306631
1539131655385345,0.8549324788281067,0.18707560845349835,0.47565423056382095
1539131655401325,0.8548104066529332,0.19378957808804476,0.47479972533760595
1539131655417305,0.8512703135728996,0.19049362935835834,0.4863965819790952
1539131655433284,0.852002746623941,0.19037155718318477,0.48395513847562377
1539131655449264,0.852002746623941,0.16510261692225559,0.4901808194094759
1539131655465244,0.8550545510032803,0.17450217441062055,0.4862745098039216
1539131655481224,0.8577401388570989,0.17999542229343124,0.4746776531624324
1539131655497203,0.8600595101853967,0.1928130006866562,0.4650339513237203
1539131655513183,0.8615243762874796,0.20209048599984758,0.4612497138933396
1539131655529163,0.8609140154116117,0.19171435111009405,0.46173800259403386
1539131655545143,0.8611581597619589,0.18341344319829123,0.4707713435568781
1539131655561123,0.8615243762874796,0.18414587624933265,0.46393530174715814
1539131655577102,0.8623788815136946,0.1860990310521098,0.465400167849241
1539131655593082,0.8635996032654303,0.1893949797817962,0.4612497138933396
1539131655609062,0.8655527580682074,0.18316929884794408,0.4616159304188603
1539131655625042,0.866529335469596,0.2016021972991533,0.4523384451056689
1539131655641021,0.8628671702143889,0.18707560845349835,0.4606393530174717
1539131655657001,0.8635996032654303,0.1986724650949876,0.463691157396811
1539131655672981,0.8603036545357439,0.16974135957885128,0.4702830548561838
1539131655688961,0.8617685206378267,0.17828641184100125,0.47235828183413453
1539131655704956,0.8604257267109174,0.18634317540245693,0.4641794460975053
1539131655720935,0.862256809338521,0.1957427328908219,0.4566109712367439
1539131655736915,0.8615243762874796,0.1785305561913484,0.467963683527886
1539131655752895,0.8628671702143889,0.17999542229343124,0.4691844052796217
1539131655768875,0.8618905928130003,0.18121614404516695,0.46808575570305955
1539131655784855,0.863111314564736,0.19256885633630905,0.4633249408712903
1539131655800834,0.862256809338521,0.18756389715419264,0.46515602349889384
1539131655816814,0.8632333867399096,0.18890669108110192,0.462836652170596
1539131655832794,0.8629892423895624,0.18927290760662263,0.46259250782024885
1539131655848774,0.8629892423895624,0.19378957808804476,0.4616159304188603
1539131655864753,0.8610360875867853,0.18377965972381194,0.4678416113527124
1539131655880733,0.8615243762874796,0.1839017318989855,0.465400167849241
1539131655896713,0.8644541084916453,0.18890669108110192,0.4623483634699017
1539131655912693,0.863111314564736,0.18316929884794408,0.4635690852216374
1539131655928672,0.863111314564736,0.18780804150453978,0.459418631265736
1539131655944652,0.8633554589150831,0.1940337224383919,0.4561226825360496
1539131655960632,0.8654306858930338,0.19549858854047475,0.4539253833829253
1539131655976612,0.8659189745937281,0.1911039902342262,0.46015106431677744
1539131655992591,0.8651865415426867,0.19513237201495404,0.456855115587091
1539131656008571,0.8640878919661246,0.19269092851148262,0.45758754863813245
1539131656024536,0.8640878919661246,0.19806210421911974,0.45636682688639674
1539131656040516,0.8644541084916453,0.19098191805905262,0.4535591668574046
1539131656056495,0.863965819790951,0.19269092851148262,0.45966277561608315
1539131656072475,0.8640878919661246,0.1893949797817962,0.4603952086671246
1539131656088455,0.8646982528419924,0.19415579461356547,0.4523384451056689
1539131656104435,0.8654306858930338,0.1890287632562755,0.45551232166018174
1539131656120414,0.8668955519951167,0.18841840238040763,0.456000610360876
1539131656136394,0.866529335469596,0.18793011367971335,0.45966277561608315
1539131656152374,0.8642099641412981,0.19354543373769761,0.45380331120775175
1539131656168354,0.8664072632944224,0.19415579461356547,0.4540474555580989
1539131656184333,0.869092851148241,0.19452201113908618,0.4506294346532389
1539131656200313,0.8706797894254974,0.2024567025253683,0.4413519493400475
1539131656216293,0.8694590676737617,0.19647516594186332,0.4435492484931718
1539131656232273,0.8720225833524067,0.20587472343022828,0.43659113450827824
1539131656248252,0.871656366826886,0.2057526512550547,0.44000915541313823
1539131656264232,0.8717784390020595,0.2116121156633861,0.4363469901579311
1539131656280212,0.8686045624475467,0.2016021972991533,0.4456244754711225
1539131656296192,0.8693369954985881,0.20062561989776473,0.4455024032959489
1539131656312172,0.8700694285496295,0.1995269703212026,0.44452582589456036
1539131656328151,0.868238345922026,0.19452201113908618,0.4442816815442132
1539131656344146,0.8693369954985881,0.18463416495002694,0.4527046616311896
1539131656360126,0.8700694285496295,0.18915083543144906,0.44965285725185034
1539131656376106,0.8710460059510181,0.19183642328526762,0.4472114137483789
1539131656392086,0.8719005111772331,0.1990386816205083,0.44293888761730393
1539131656408065,0.8715342946517124,0.20929274433508827,0.43537041275654254
1539131656424045,0.870801861600671,0.2116121156633861,0.4330510414282447
1539131656440025,0.8711680781261917,0.19598687724116903,0.44831006332494105
1539131656456005,0.8687266346227203,0.1940337224383919,0.4485542076752882
1539131656471984,0.8692149233234145,0.1885404745555812,0.45087357900358604
1539131656487964,0.8715342946517124,0.19415579461356547,0.44708934157320535
1539131656503944,0.8709239337758445,0.19366750591287119,0.4452582589456018
1539131656519924,0.8684824902723731,0.19635309376668975,0.4469672693980318
1539131656535904,0.8698252841992824,0.19305714503700333,0.45001907377737105
1539131656551883,0.8666514076447696,0.19208056763561476,0.4540474555580989
1539131656567863,0.8672617685206374,0.18915083543144906,0.4552681773098346
1539131656583843,0.8686045624475467,0.1928130006866562,0.4468451972228582
1539131656599823,0.8687266346227203,0.19256885633630905,0.4489204242008089
1539131656615802,0.8706797894254974,0.1981841763942933,0.44281681544213036
1539131656631782,0.8677500572213317,0.20001525902189687,0.4490424963759825
1539131656647762,0.8683604180971995,0.19220263981078833,0.4506294346532389
1539131656663757,0.8671396963454638,0.1943999389639126,0.45551232166018174
1539131656679737,0.8678721293965053,0.18793011367971335,0.45416952773327246
1539131656695716,0.8675059128709846,0.1902494850080112,0.4530708781567103
1539131656711696,0.8660410467689017,0.1911039902342262,0.4536812390325782
1539131656727676,0.8650644693675131,0.19537651636530118,0.44965285725185034
1539131656743656,0.8649423971923396,0.18634317540245693,0.45758754863813245
1539131656759636,0.8659189745937281,0.1856107423514155,0.456855115587091
1539131656775615,0.8666514076447696,0.18548867017624193,0.45709925993743816
1539131656791595,0.8667734798199431,0.18915083543144906,0.4539253833829253
1539131656807575,0.8678721293965053,0.19220263981078833,0.45038529030289176
1539131656823555,0.868238345922026,0.19598687724116903,0.44831006332494105
1539131656839534,0.8678721293965053,0.201113908598459,0.4489204242008089
1539131656855514,0.868238345922026,0.18976119630731692,0.4509956511787596
1539131656871494,0.8667734798199431,0.19391165026321833,0.45258258945601604
1539131656887474,0.8675059128709846,0.19159227893492048,0.4547798886091403
1539131656903453,0.8686045624475467,0.1911039902342262,0.45136186770428033
1539131656919433,0.869947356374456,0.18744182497901907,0.45123979552910676
1539131656935413,0.8700694285496295,0.1881742580300605,0.4540474555580989
1539131656951393,0.8666514076447696,0.19269092851148262,0.4531929503318839
1539131656967373,0.865674830243381,0.19049362935835834,0.4574654764629589
1539131656983337,0.8635996032654303,0.19305714503700333,0.45331502250705746
1539131656999317,0.8644541084916453,0.1943999389639126,0.4581979095140003
1539131657015297,0.8644541084916453,0.19452201113908618,0.456000610360876
1539131657031276,0.8633554589150831,0.19769588769359903,0.456855115587091
1539131657047256,0.8654306858930338,0.19855039291981402,0.4539253833829253
1539131657063236,0.8659189745937281,0.19537651636530118,0.45636682688639674
1539131657079216,0.8644541084916453,0.1965972381170369,0.4552681773098346
1539131657095195,0.8660410467689017,0.19049362935835834,0.4557564660105289
1539131657111175,0.8672617685206374,0.19220263981078833,0.4561226825360496
1539131657127155,0.8664072632944224,0.1876859693293662,0.4557564660105289
1539131657143135,0.8668955519951167,0.1893949797817962,0.4545357442587932
1539131657159114,0.8654306858930338,0.18988326848249049,0.45551232166018174
1539131657175094,0.866529335469596,0.19269092851148262,0.4522163729304953
1539131657191074,0.8679942015716788,0.19415579461356547,0.4528267338063632
1539131657207054,0.8683604180971995,0.19427786678873904,0.4522163729304953
1539131657223034,0.8692149233234145,0.1957427328908219,0.45050736247806533
1539131657239013,0.8670176241702903,0.1981841763942933,0.4501411459525446
1539131657254993,0.8661631189440753,0.19501029983978047,0.4527046616311896
1539131657270973,0.866529335469596,0.19330128938735047,0.45636682688639674
1539131657286953,0.866529335469596,0.18756389715419264,0.45722133211261173
1539131657302948,0.8664072632944224,0.1881742580300605,0.4574654764629589
1539131657318927,0.865674830243381,0.1881742580300605,0.45929655909056244
1539131657334907,0.865674830243381,0.18658731975280407,0.45795376516365316
1539131657350887,0.866529335469596,0.19159227893492048,0.4544136720836196
1539131657366867,0.868238345922026,0.19122606240939977,0.4518501564049746
1539131657382846,0.8666514076447696,0.1957427328908219,0.4522163729304953
1539131657398826,0.8668955519951167,0.19501029983978047,0.45294880598153675
1539131657414806,0.865674830243381,0.1923247119859619,0.4557564660105289
1539131657430786,0.8666514076447696,0.1948882276646069,0.45429159990844603
1539131657446766,0.8657969024185546,0.19366750591287119,0.4536812390325782
1539131657462745,0.867383840695811,0.19537651636530118,0.45343709468223103
1539131657478725,0.8677500572213317,0.19171435111009405,0.4556343938353553
1539131657494705,0.8681162737468524,0.19647516594186332,0.45209430075532175
1539131657510685,0.867383840695811,0.19000534065766406,0.455146105134661
1539131657526664,0.8664072632944224,0.19171435111009405,0.45343709468223103
1539131657542644,0.8671396963454638,0.1902494850080112,0.456000610360876
1539131657558624,0.8659189745937281,0.1931792172121769,0.4539253833829253
1539131657574604,0.8671396963454638,0.1952544441901276,0.45636682688639674
1539131657590583,0.8667734798199431,0.19415579461356547,0.45429159990844603
1539131657606563,0.8655527580682074,0.19476615548943332,0.45807583733882673
1539131657622528,0.8657969024185546,0.19208056763561476,0.45831998168917387
1539131657638507,0.8659189745937281,0.1965972381170369,0.4545357442587932
1539131657654487,0.8675059128709846,0.1973296711680783,0.45929655909056244
1539131657670467,0.8662851911192488,0.1914702067597469,0.4540474555580989
1539131657686447,0.8667734798199431,0.18719768062867193,0.4536812390325782
1539131657702427,0.8655527580682074,0.18695353627832478,0.4519722285801482
1539131657718406,0.8679942015716788,0.18866254673075478,0.4523384451056689
1539131657734386,0.8670176241702903,0.18695353627832478,0.4547798886091403
1539131657750366,0.8671396963454638,0.19159227893492048,0.45172808422980104
1539131657766346,0.8667734798199431,0.1823147936217291,0.4557564660105289
1539131657782325,0.8662851911192488,0.1890287632562755,0.4566109712367439
1539131657798305,0.8671396963454638,0.1809719996948198,0.457709620813306
1539131657814285,0.8700694285496295,0.18695353627832478,0.4552681773098346
1539131657830265,0.8666514076447696,0.18414587624933265,0.45465781643396674
1539131657846244,0.8688487067978938,0.1856107423514155,0.45246051728084247
1539131657862224,0.8698252841992824,0.19134813458457334,0.45123979552910676
1539131657878204,0.8689707789730674,0.18878461890592835,0.4536812390325782
1539131657894184,0.8676279850461581,0.1890287632562755,0.45209430075532175
1539131657910164,0.867383840695811,0.18890669108110192,0.4556343938353553
1539131657926143,0.8679942015716788,0.18695353627832478,0.45636682688639674
1539131657942138,0.8694590676737617,0.18756389715419264,0.45331502250705746
1539131657958118,0.8704356450751503,0.1902494850080112,0.4518501564049746
1539131657974098,0.8693369954985881,0.18878461890592835,0.4501411459525446
1539131657990078,0.8693369954985881,0.18805218585488692,0.45380331120775175
1539131658006057,0.868238345922026,0.1885404745555812,0.4536812390325782
1539131658022037,0.8676279850461581,0.1893949797817962,0.45038529030289176
1539131658038017,0.8679942015716788,0.1906157015335319,0.4507515068284125
1539131658053997,0.8695811398489353,0.1923247119859619,0.45050736247806533
1539131658069976,0.8697032120241088,0.19085984588387905,0.4511177233539332
1539131658085956,0.8687266346227203,0.18963912413214334,0.45087357900358604
1539131658101936,0.868238345922026,0.18805218585488692,0.4530708781567103
1539131658117916,0.8693369954985881,0.1914702067597469,0.4498970016021975
1539131658133895,0.8698252841992824,0.1885404745555812,0.4514839398794539
1539131658149875,0.8678721293965053,0.1893949797817962,0.4506294346532389
1539131658165855,0.8693369954985881,0.19134813458457334,0.45172808422980104
1539131658181835,0.8695811398489353,0.18963912413214334,0.45038529030289176
1539131658197815,0.8688487067978938,0.19122606240939977,0.4523384451056689
1539131658213794,0.8684824902723731,0.19208056763561476,0.45087357900358604
1539131658229774,0.8700694285496295,0.1902494850080112,0.45123979552910676
1539131658245754,0.8689707789730674,0.19171435111009405,0.4518501564049746
1539131658261718,0.8697032120241088,0.18988326848249049,0.4506294346532389
1539131658277698,0.8694590676737617,0.19073777370870548,0.45087357900358604
1539131658293678,0.8687266346227203,0.1885404745555812,0.4528267338063632
1539131658309658,0.8686045624475467,0.19220263981078833,0.4506294346532389
1539131658325637,0.8681162737468524,0.1902494850080112,0.45172808422980104
1539131658341617,0.868238345922026,0.19159227893492048,0.45136186770428033
1539131658357597,0.8678721293965053,0.18756389715419264,0.4528267338063632
1539131658373577,0.869092851148241,0.19220263981078833,0.4528267338063632
1539131658389557,0.8676279850461581,0.18841840238040763,0.4530708781567103
1539131658405536,0.867383840695811,0.18878461890592835,0.4544136720836196
1539131658421516,0.8668955519951167,0.1911039902342262,0.4514839398794539
1539131658437496,0.8660410467689017,0.1902494850080112,0.4514839398794539
1539131658453476,0.8689707789730674,0.19415579461356547,0.45087357900358604
1539131658469455,0.8683604180971995,0.18927290760662263,0.456000610360876
1539131658485435,0.8672617685206374,0.19244678416113548,0.45038529030289176
1539131658501415,0.869947356374456,0.19122606240939977,0.45331502250705746
1539131658517395,0.867383840695811,0.19073777370870548,0.4540474555580989
1539131658533374,0.8670176241702903,0.1911039902342262,0.45551232166018174
1539131658549354,0.8672617685206374,0.1893949797817962,0.4574654764629589
1539131658565334,0.8692149233234145,0.1885404745555812,0.45807583733882673
1539131658581329,0.8773937590600447,0.1948882276646069,0.47431143663691167
1539131658597309,0.8616464484626531,0.1948882276646069,0.44831006332494105
1539131658613289,0.8576180666819253,0.1885404745555812,0.4539253833829253
1539131658629268,0.8806897077897311,0.19330128938735047,0.45380331120775175
1539131658645248,0.8769054703593504,0.19623102159151617,0.45429159990844603
1539131658661228,0.8633554589150831,0.18805218585488692,0.4561226825360496
1539131658677208,0.8655527580682074,0.18756389715419264,0.4561226825360496
1539131658693187,0.8659189745937281,0.18756389715419264,0.45343709468223103
1539131658709167,0.8633554589150831,0.19049362935835834,0.4522163729304953
1539131658725147,0.8646982528419924,0.18915083543144906,0.45465781643396674
1539131658741127,0.8654306858930338,0.1860990310521098,0.4518501564049746
1539131658757106,0.8679942015716788,0.1902494850080112,0.4549019607843139
1539131658773086,0.8662851911192488,0.18878461890592835,0.459418631265736
1539131658789066,0.8677500572213317,0.19183642328526762,0.4574654764629589
1539131658805046,0.8653086137178603,0.1902494850080112,0.4599069199664303
1539131658821025,0.8653086137178603,0.19244678416113548,0.46002899214160387
1539131658837005,0.8634775310902567,0.18951705195696977,0.462836652170596
1539131658852985,0.8642099641412981,0.18756389715419264,0.46259250782024885
1539131658868965,0.8626230258640417,0.18951705195696977,0.46381322957198456
1539131658884945,0.8644541084916453,0.18927290760662263,0.4612497138933396
1539131658900940,0.8618905928130003,0.1864652475776305,0.46478980697337313
1539131658916919,0.8611581597619589,0.18377965972381194,0.4674753948271917
1539131658932899,0.862256809338521,0.18194857709620837,0.464545662623026
1539131658948879,0.8618905928130003,0.18512245365072122,0.46381322957198456
1539131658964859,0.8623788815136946,0.1890287632562755,0.45844205386434744
1539131658980838,0.8616464484626531,0.19073777370870548,0.4614938582436867
1539131658996818,0.8610360875867853,0.1928130006866562,0.46564431219958813
1539131659012798,0.8635996032654303,0.19330128938735047,0.46466773479819956
1539131659028778,0.8606698710612646,0.19134813458457334,0.4650339513237203
1539131659044757,0.8621347371633474,0.1911039902342262,0.4624704356450753
1539131659060737,0.8617685206378267,0.19049362935835834,0.46393530174715814
1539131659076717,0.861402304112306,0.19000534065766406,0.4661326009002824
1539131659092697,0.861402304112306,0.18756389715419264,0.4686961165789274
1539131659108677,0.8594491493095289,0.18670939192797764,0.467963683527886
1539131659124656,0.8595712214847024,0.18622110322728336,0.4707713435568781
1539131659140636,0.8607919432364382,0.18866254673075478,0.46564431219958813
1539131659156616,0.8603036545357439,0.1864652475776305,0.466254673075456
1539131659172596,0.8604257267109174,0.18976119630731692,0.4669871061264974
1539131659188575,0.8594491493095289,0.18915083543144906,0.46979476615548954
1539131659204555,0.8593270771343553,0.1873197528038455,0.46588845654993527
1539131659220520,0.8585946440833139,0.1911039902342262,0.4673533226520181
1539131659236499,0.8625009536888681,0.18963912413214334,0.46552224002441456
1539131659252479,0.8612802319371324,0.1881742580300605,0.4664988174258031
1539131659268459,0.8600595101853967,0.18988326848249049,0.46515602349889384
1539131659284439,0.8599374380102232,0.18841840238040763,0.4666208896009767
1539131659300418,0.8598153658350496,0.1864652475776305,0.46771953917753883
1539131659316398,0.8598153658350496,0.1902494850080112,0.4666208896009767
1539131659332378,0.8611581597619589,0.1885404745555812,0.4666208896009767
1539131659348358,0.8612802319371324,0.18988326848249049,0.4661326009002824
1539131659364338,0.8599374380102232,0.1906157015335319,0.46857404440375383
1539131659380317,0.8600595101853967,0.1873197528038455,0.47150377660791953
1539131659396297,0.8600595101853967,0.18719768062867193,0.4700389105058367
1539131659412277,0.8601815823605703,0.18744182497901907,0.46759746700236526
1539131659428257,0.8623788815136946,0.1873197528038455,0.4690623331044481
1539131659444236,0.8611581597619589,0.18927290760662263,0.46674296177615027
1539131659460216,0.8616464484626531,0.18927290760662263,0.46588845654993527
1539131659476196,0.8601815823605703,0.1890287632562755,0.46686503395132384
1539131659492176,0.8595712214847024,0.18829633020523406,0.4700389105058367
1539131659508155,0.8603036545357439,0.18780804150453978,0.4690623331044481
1539131659524135,0.8616464484626531,0.18780804150453978,0.46674296177615027
1539131659540130,0.8606698710612646,0.19037155718318477,0.46478980697337313
1539131659556110,0.8600595101853967,0.18805218585488692,0.463691157396811
1539131659572090,0.8603036545357439,0.18536659800106836,0.47016098268101025
1539131659588070,0.8599374380102232,0.18585488670176264,0.4690623331044481
1539131659604049,0.8599374380102232,0.18426794842450622,0.4683299000534067
1539131659620029,0.8604257267109174,0.18744182497901907,0.467109178301671
1539131659636009,0.8610360875867853,0.18878461890592835,0.466254673075456
1539131659651989,0.861402304112306,0.19037155718318477,0.46588845654993527
1539131659667968,0.8606698710612646,0.1885404745555812,0.46686503395132384
1539131659683948,0.8611581597619589,0.1902494850080112,0.46686503395132384
1539131659699928,0.8600595101853967,0.18805218585488692,0.4686961165789274
1539131659715908,0.8601815823605703,0.18878461890592835,0.467109178301671
1539131659731887,0.8604257267109174,0.18670939192797764,0.46723125047684455
1539131659747867,0.860547798886091,0.18780804150453978,0.47052719920653097
1539131659763847,0.8593270771343553,0.18536659800106836,0.46894026092927454
1539131659779827,0.8601815823605703,0.18402380407415908,0.4707713435568781
1539131659795807,0.8590829327840082,0.1876859693293662,0.467963683527886
1539131659811786,0.862256809338521,0.18841840238040763,0.46478980697337313
1539131659827766,0.8621347371633474,0.18829633020523406,0.46466773479819956
1539131659843746,0.8599374380102232,0.18780804150453978,0.46759746700236526
1539131659859710,0.8599374380102232,0.18793011367971335,0.4695506218051424
1539131659875690,0.860547798886091,0.1876859693293662,0.46686503395132384
1539131659891670,0.860547798886091,0.18963912413214334,0.46674296177615027
1539131659907650,0.8601815823605703,0.19098191805905262,0.4694285496299688
1539131659923629,0.8593270771343553,0.18780804150453978,0.46686503395132384
1539131659939609,0.8590829327840082,0.18585488670176264,0.4664988174258031
1539131659955589,0.861402304112306,0.18793011367971335,0.46857404440375383
1539131659971569,0.8600595101853967,0.1885404745555812,0.467963683527886
1539131659987548,0.8606698710612646,0.18670939192797764,0.46894026092927454
1539131660003528,0.8593270771343553,0.18793011367971335,0.466254673075456
1539131660019508,0.8600595101853967,0.18829633020523406,0.465400167849241
1539131660035488,0.8594491493095289,0.18841840238040763,0.46552224002441456
1539131660051468,0.861402304112306,0.19085984588387905,0.4633249408712903
1539131660067447,0.8615243762874796,0.18988326848249049,0.46381322957198456
1539131660083427,0.8595712214847024,0.18805218585488692,0.4649118791485467
1539131660099407,0.8595712214847024,0.1860990310521098,0.46478980697337313
1539131660115387,0.8650644693675131,0.1868314641031512,0.467109178301671
1539131660131366,0.8612802319371324,0.19122606240939977,0.46515602349889384
1539131660147346,0.8627450980392153,0.19342336156252404,0.4627145799954224
1539131660163326,0.8617685206378267,0.19537651636530118,0.4623483634699017
1539131660179321,0.862256809338521,0.1890287632562755,0.461127641718166
1539131660195301,0.8621347371633474,0.1978179598687726,0.45709925993743816
1539131660211280,0.8638437476157774,0.1948882276646069,0.4581979095140003
1539131660227260,0.8638437476157774,0.1957427328908219,0.45831998168917387
1539131660243240,0.863111314564736,0.19623102159151617,0.456855115587091
1539131660259220,0.8645761806668188,0.19647516594186332,0.4573434042877853
1539131660275200,0.8634775310902567,0.19964904249637616,0.4549019607843139
1539131660291179,0.8640878919661246,0.19354543373769761,0.458564126039521
1539131660307159,0.8634775310902567,0.19501029983978047,0.458564126039521
1539131660323139,0.8628671702143889,0.19037155718318477,0.45807583733882673
1539131660339119,0.8635996032654303,0.1919584954604412,0.4578316929884796
1539131660355098,0.8644541084916453,0.19256885633630905,0.4566109712367439
1539131660371078,0.8664072632944224,0.19305714503700333,0.459418631265736
1539131660387058,0.863965819790951,0.19647516594186332,0.45539024948500817
1539131660403038,0.8634775310902567,0.19085984588387905,0.4573434042877853
1539131660419017,0.8640878919661246,0.1943999389639126,0.4556343938353553
1539131660434997,0.8660410467689017,0.1928130006866562,0.4566109712367439
1539131660450977,0.8654306858930338,0.19269092851148262,0.4573434042877853
1539131660466957,0.866529335469596,0.19427786678873904,0.45929655909056244
1539131660482936,0.8649423971923396,0.19330128938735047,0.4578316929884796
1539131660498901,0.8635996032654303,0.19208056763561476,0.45880827038986816
1539131660514881,0.8634775310902567,0.19122606240939977,0.4581979095140003
1539131660530861,0.8650644693675131,0.19427786678873904,0.4564888990615703
1539131660546840,0.8640878919661246,0.18988326848249049,0.457709620813306
1539131660562820,0.8650644693675131,0.1931792172121769,0.4586861982146946
1539131660578800,0.8651865415426867,0.19208056763561476,0.46051728084229815
1539131660594780,0.8660410467689017,0.19342336156252404,0.456000610360876
1539131660610759,0.8654306858930338,0.1928130006866562,0.4586861982146946
1539131660626739,0.8634775310902567,0.19562066071564832,0.4564888990615703
1539131660642719,0.8651865415426867,0.19183642328526762,0.45722133211261173
1539131660658699,0.8653086137178603,0.19037155718318477,0.46002899214160387
1539131660674678,0.863965819790951,0.19037155718318477,0.45673304341191745
1539131660690658,0.8661631189440753,0.1919584954604412,0.4547798886091403
1539131660706638,0.8642099641412981,0.19037155718318477,0.4556343938353553
1539131660722618,0.8653086137178603,0.19415579461356547,0.455146105134661
1539131660738597,0.8651865415426867,0.19293507286182976,0.4569771877622646
1539131660754577,0.8657969024185546,0.19220263981078833,0.45709925993743816
1539131660770557,0.8633554589150831,0.19183642328526762,0.4573434042877853
1539131660786537,0.8655527580682074,0.19427786678873904,0.45551232166018174
1539131660802517,0.8649423971923396,0.19354543373769761,0.45795376516365316
1539131660818512,0.863111314564736,0.19391165026321833,0.45758754863813245
1539131660834491,0.8645761806668188,0.19159227893492048,0.459418631265736
1539131660850471,0.8653086137178603,0.19134813458457334,0.45758754863813245
1539131660866451,0.8676279850461581,0.19208056763561476,0.4564888990615703
1539131660882431,0.8645761806668188,0.1940337224383919,0.4578316929884796
1539131660898410,0.8642099641412981,0.19366750591287119,0.4573434042877853
1539131660914390,0.8618905928130003,0.18585488670176264,0.4612497138933396
1539131660930370,0.8635996032654303,0.1931792172121769,0.46051728084229815
1539131660946350,0.8635996032654303,0.1943999389639126,0.459418631265736
1539131660962329,0.8612802319371324,0.19208056763561476,0.4607614251926453
1539131660978309,0.8623788815136946,0.19122606240939977,0.4606393530174717
1539131660994289,0.865674830243381,0.19073777370870548,0.4597848477912567
1539131661010269,0.8611581597619589,0.19159227893492048,0.46295872434576957
1539131661026249,0.8621347371633474,0.19122606240939977,0.463691157396811
1539131661042228,0.8621347371633474,0.19183642328526762,0.461982146944381
1539131661058208,0.8626230258640417,0.18866254673075478,0.46186007476920743
1539131661074188,0.8618905928130003,0.1890287632562755,0.4624704356450753
1539131661090168,0.8621347371633474,0.19183642328526762,0.46137178606851315
1539131661106147,0.8623788815136946,0.18695353627832478,0.4627145799954224
1539131661122127,0.861402304112306,0.18573281452658907,0.46686503395132384
1539131661138092,0.8620126649881739,0.19391165026321833,0.46259250782024885
1539131661154071,0.8642099641412981,0.18915083543144906,0.4581979095140003
1539131661170051,0.8670176241702903,0.19293507286182976,0.45380331120775175
1539131661186031,0.8577401388570989,0.19708552681773117,0.4733348592355231
1539131661202011,0.852857251850156,0.18829633020523406,0.4816357671473259
1539131661217991,0.8531013962005032,0.18194857709620837,0.4816357671473259
1539131661233970,0.8557869840543217,0.18341344319829123,0.4757763027389945
1539131661249950,0.8606698710612646,0.1876859693293662,0.46894026092927454
1539131661265930,0.8634775310902567,0.18072785534447267,0.465400167849241
1539131661281910,0.861402304112306,0.17877470054169553,0.46894026092927454
1539131661297889,0.8594491493095289,0.18084992751964624,0.47138170443274596
1539131661313869,0.8582284275577932,0.18072785534447267,0.4757763027389945
1539131661329849,0.8572518501564046,0.19208056763561476,0.4702830548561838
1539131661345829,0.8559090562294953,0.19342336156252404,0.4745555809872588
1539131661361808,0.8589608606088346,0.19623102159151617,0.4755321583886474
1539131661377788,0.857129777981231,0.19378957808804476,0.4712596322575724
1539131661393768,0.8577401388570989,0.19049362935835834,0.47260242618448167
1539131661409748,0.8568856336308839,0.1885404745555812,0.47016098268101025
1539131661425727,0.8552986953536275,0.18426794842450622,0.4758983749141681
1539131661441707,0.8557869840543217,0.17901884489204267,0.4769970244907302
1539131661457672,0.8548104066529332,0.18341344319829123,0.4771190966659038
1539131661473652,0.8566414892805367,0.18292515449759694,0.47980468451972236
1539131661489631,0.8552986953536275,0.1843900205996798,0.47809567406729236
1539131661505611,0.8555428397039746,0.1885404745555812,0.47736324101625094
1539131661521591,0.8565194171053632,0.18829633020523406,0.4754100862134738
1539131661537571,0.8544441901274125,0.18988326848249049,0.4805371175707638
1539131661553550,0.8563973449301896,0.18976119630731692,0.4791943236438545
1539131661569530,0.8546883344777596,0.19073777370870548,0.4776073853665981
1539131661585510,0.8549324788281067,0.18500038147554765,0.47638666361486237
1539131661601490,0.8556649118791482,0.18756389715419264,0.4762645914396888
1539131661617469,0.8542000457770653,0.1856107423514155,0.4793163958190281
1539131661633449,0.8529793240253296,0.18695353627832478,0.48065918974593735
1539131661649429,0.8560311284046689,0.18634317540245693,0.4745555809872588
1539131661665409,0.8543221179522389,0.18585488670176264,0.47565423056382095
1539131661681388,0.8552986953536275,0.18793011367971335,0.4766308079652095
1539131661697368,0.8512703135728996,0.18695353627832478,0.4779736018921188
1539131661713348,0.8557869840543217,0.19049362935835834,0.47650873579003594
1539131661729328,0.8555428397039746,0.1911039902342262,0.4755321583886474
1539131661745308,0.8570077058060575,0.1864652475776305,0.4755321583886474
1539131661761287,0.8581063553826196,0.1893949797817962,0.4728465705348288
1539131661777282,0.8589608606088346,0.19415579461356547,0.4683299000534067
1539131661793262,0.8584725719081403,0.19391165026321833,0.4704051270313574
1539131661809242,0.8563973449301896,0.19671931029221046,0.465400167849241
1539131661825222,0.857984283207446,0.20257877470054186,0.4674753948271917
1539131661841201,0.8589608606088346,0.20123598077363258,0.4682078278782331
1539131661857181,0.8572518501564046,0.20123598077363258,0.4686961165789274
1539131661873161,0.8590829327840082,0.19476615548943332,0.4664988174258031
1539131661889141,0.8584725719081403,0.19415579461356547,0.46808575570305955
1539131661905120,0.8589608606088346,0.1881742580300605,0.4712596322575724
1539131661921100,0.8578622110322724,0.1928130006866562,0.46930647745479526
1539131661937080,0.859693293659876,0.19208056763561476,0.4699168383306631
1539131661953060,0.8584725719081403,0.1943999389639126,0.4673533226520181
1539131661969040,0.8616464484626531,0.19549858854047475,0.4623483634699017
1539131661985019,0.8585946440833139,0.18890669108110192,0.4699168383306631
1539131662000999,0.8559090562294953,0.1919584954604412,0.4732127870603495
1539131662016979,0.8559090562294953,0.18780804150453978,0.4746776531624324
1539131662032959,0.857984283207446,0.1893949797817962,0.4755321583886474
1539131662048938,0.8589608606088346,0.19000534065766406,0.47260242618448167
1539131662064918,0.8594491493095289,0.1902494850080112,0.4699168383306631
1539131662080898,0.8582284275577932,0.19415579461356547,0.4691844052796217
1539131662096862,0.8561532005798425,0.18951705195696977,0.47064927138170454
1539131662112842,0.8570077058060575,0.18622110322728336,0.47516594186312666
1539131662128822,0.8574959945067517,0.18805218585488692,0.4704051270313574
1539131662144802,0.8581063553826196,0.1868314641031512,0.4724803540093081
1539131662160781,0.857129777981231,0.19342336156252404,0.47186999313344025
1539131662176761,0.8577401388570989,0.18866254673075478,0.47394522011139095
1539131662192741,0.8577401388570989,0.19293507286182976,0.47309071488517596
1539131662208721,0.8565194171053632,0.19342336156252404,0.46845197222858026
1539131662224701,0.8551766231784539,0.19415579461356547,0.46930647745479526
1539131662240680,0.8573739223315782,0.1928130006866562,0.47357900358587024
1539131662256660,0.857984283207446,0.19452201113908618,0.47101548790722525
1539131662272640,0.857984283207446,0.19549858854047475,0.4711375600823988
1539131662288620,0.8574959945067517,0.1965972381170369,0.4694285496299688
1539131662304599,0.8581063553826196,0.19415579461356547,0.4694285496299688
1539131662320579,0.8573739223315782,0.19342336156252404,0.4694285496299688
1539131662336559,0.8573739223315782,0.19794003204394617,0.46857404440375383
1539131662352539,0.857129777981231,0.19244678416113548,0.47016098268101025
1539131662368518,0.8581063553826196,0.19378957808804476,0.47052719920653097
1539131662384498,0.8578622110322724,0.19378957808804476,0.4695506218051424
1539131662400478,0.858838788433661,0.19794003204394617,0.46759746700236526
1539131662416473,0.8577401388570989,0.19501029983978047,0.468818188754101
1539131662432453,0.8594491493095289,0.19537651636530118,0.46515602349889384
1539131662448433,0.8587167162584874,0.19855039291981402,0.4649118791485467
1539131662464412,0.8609140154116117,0.19720759899290474,0.46601052872510884
1539131662480392,0.8607919432364382,0.19378957808804476,0.46515602349889384
1539131662496372,0.8599374380102232,0.19964904249637616,0.465400167849241
1539131662512352,0.8592050049591817,0.1978179598687726,0.46637674525062955
1539131662528331,0.8620126649881739,0.19708552681773117,0.4649118791485467
1539131662544311,0.8582284275577932,0.20209048599984758,0.4603952086671246
1539131662560291,0.8657969024185546,0.20978103303578255,0.466254673075456
1539131662576271,0.8600595101853967,0.1990386816205083,0.4614938582436867
1539131662592250,0.858838788433661,0.2016021972991533,0.46100556954299243
1539131662608230,0.8593270771343553,0.20355535210193043,0.459418631265736
1539131662624210,0.8606698710612646,0.19964904249637616,0.45807583733882673
1539131662640190,0.857984283207446,0.1943999389639126,0.4603952086671246
1539131662656170,0.8617685206378267,0.1969634546425576,0.45636682688639674
1539131662672149,0.858838788433661,0.19647516594186332,0.45636682688639674
1539131662688129,0.8609140154116117,0.19635309376668975,0.4581979095140003
1539131662704109,0.8621347371633474,0.19806210421911974,0.45929655909056244
1539131662720089,0.8635996032654303,0.19842832074464045,0.45807583733882673
1539131662736084,0.8625009536888681,0.20086976424811187,0.4566109712367439
1539131662752063,0.8625009536888681,0.19940489814602902,0.4581979095140003
1539131662768043,0.8640878919661246,0.20050354772259116,0.45539024948500817
1539131662784023,0.8627450980392153,0.19830624856946688,0.4564888990615703
1539131662800003,0.8655527580682074,0.20050354772259116,0.45380331120775175
1539131662815982,0.8654306858930338,0.20184634164950044,0.4547798886091403
1539131662831962,0.8661631189440753,0.19769588769359903,0.4574654764629589
1539131662847942,0.8642099641412981,0.1943999389639126,0.45709925993743816
1539131662863922,0.8646982528419924,0.19830624856946688,0.4545357442587932
1539131662879902,0.865674830243381,0.19720759899290474,0.4547798886091403
1539131662895881,0.8659189745937281,0.20025940337224402,0.45136186770428033
1539131662911861,0.865674830243381,0.19891660944533474,0.4519722285801482
1539131662927841,0.8651865415426867,0.20123598077363258,0.45160601205462747
1539131662943821,0.8661631189440753,0.19549858854047475,0.45246051728084247
1539131662959800,0.8667734798199431,0.1973296711680783,0.45123979552910676
1539131662975780,0.8671396963454638,0.20257877470054186,0.44879835202563534
1539131662991760,0.8659189745937281,0.19806210421911974,0.45209430075532175
1539131663007740,0.8664072632944224,0.20025940337224402,0.4506294346532389
1539131663023719,0.8675059128709846,0.19830624856946688,0.4539253833829253
1539131663039699,0.8672617685206374,0.19891660944533474,0.455146105134661
1539131663055664,0.866529335469596,0.1978179598687726,0.4514839398794539
1539131663071643,0.8660410467689017,0.1995269703212026,0.4514839398794539
1539131663087623,0.8664072632944224,0.20050354772259116,0.45160601205462747
1539131663103603,0.8649423971923396,0.19940489814602902,0.45136186770428033
1539131663119583,0.8644541084916453,0.20233463035019472,0.45807583733882673
1539131663135563,0.8651865415426867,0.20148012512397973,0.4549019607843139
1539131663151542,0.8635996032654303,0.19684138246738403,0.45465781643396674
1539131663167522,0.8649423971923396,0.1981841763942933,0.45465781643396674
1539131663183502,0.864820325017166,0.19794003204394617,0.45673304341191745
1539131663199482,0.864820325017166,0.19842832074464045,0.4547798886091403
1539131663215461,0.8640878919661246,0.1998931868467233,0.4552681773098346
1539131663231441,0.8627450980392153,0.20135805294880615,0.45294880598153675
1539131663247421,0.8643320363164717,0.19928282597085545,0.4527046616311896
1539131663263401,0.8644541084916453,0.20221255817502115,0.4536812390325782
1539131663279380,0.8628671702143889,0.20013733119707044,0.45258258945601604
1539131663295360,0.8643320363164717,0.19891660944533474,0.45880827038986816
1539131663311340,0.8661631189440753,0.1978179598687726,0.4561226825360496
1539131663327320,0.8650644693675131,0.19855039291981402,0.4566109712367439
1539131663343299,0.866529335469596,0.19769588769359903,0.45636682688639674
1539131663359279,0.8655527580682074,0.19671931029221046,0.45429159990844603
