Timestamp (microseconds),Gyro X (°/s),Gyro Y (°/s),Gyro Z (°/s)
1539131637806732,0.09155413138023505,-0.2746623941404778,0.3967345693140487
1539131637822728,0.213626306553806,-0.9460593575952316,-0.03051804379333589
1539131637838724,0.2746623941404778,-0.9460593575952316,-0.09155413138023505
1539131637854720,0.213626306553806,-0.5798428320745188,0.03051804379333589
1539131637870716,0.213626306553806,-0.03051804379333589,0.33569848172737693
1539131637886712,0.3967345693140487,0.5798428320745188,0.5188067444876197
1539131637902708,0.2746623941404778,1.0070954451819034,0.7019150072480898
1539131637918704,0.213626306553806,1.3122758831159445,0.7629510948347615
1539131637934700,0.2746623941404778,1.3122758831159445,0.8239871824216607
1539131637950696,0.2746623941404778,1.3122758831159445,0.8239871824216607
1539131637966692,0.2746623941404778,1.3122758831159445,0.8239871824216607
1539131637982688,0.5798428320745188,1.6174563210497581,0.8850232700083325
1539131637998684,0.7629510948347615,2.4719615472647547,1.0681315327688026
1539131638014680,0.5798428320745188,3.875791561760934,1.4953841458761872
1539131638030676,0.2746623941404778,4.791332875562603,1.983672846570471
1539131638046671,0.03051804379333589,4.9134050507361735,2.4719615472647547
1539131638062667,0.03051804379333589,3.692683299000464,2.532997634851654
1539131638078663,-0.03051804379333589,2.7771419851987957,2.105745021744042
1539131638094659,0.15259021896690683,1.5564202334630863,1.4343480582895154
1539131638110655,0.45777065690094787,0.7019150072480898,0.8239871824216607
1539131638126617,0.3967345693140487,0.2746623941404778,0.33569848172737693
1539131638142613,0.45777065690094787,-0.03051804379333589,0.15259021896690683
1539131638158609,0.45777065690094787,-0.09155413138023505,0.15259021896690683
1539131638174605,0.45777065690094787,0.03051804379333589,0.33569848172737693
1539131638190601,0.5188067444876197,0.15259021896690683,0.3967345693140487
1539131638206597,0.33569848172737693,0.213626306553806,0.3967345693140487
1539131638222593,0.09155413138023505,0.213626306553806,0.33569848172737693
1539131638238589,0.15259021896690683,0.213626306553806,0.33569848172737693
1539131638254585,0.03051804379333589,0.213626306553806,0.45777065690094787
1539131638270581,-0.09155413138023505,0.5188067444876197,0.5798428320745188
1539131638286577,-0.09155413138023505,0.7019150072480898,0.7019150072480898
1539131638302573,-0.03051804379333589,0.9460593575952316,0.8239871824216607
1539131638318569,-0.03051804379333589,1.3122758831159445,0.9460593575952316
1539131638334565,0.03051804379333589,1.739528496223329,1.1291676203554744
1539131638350561,0.03051804379333589,2.227817196917613,1.1902037079423735
1539131638366557,-0.09155413138023505,2.532997634851654,1.1291676203554744
1539131638382553,-0.09155413138023505,2.532997634851654,1.1291676203554744
1539131638398549,-0.213626306553806,2.532997634851654,1.3122758831159445
1539131638414545,0.03051804379333589,2.227817196917613,1.2512397955290453
1539131638430541,-0.09155413138023505,1.8616006713969,1.2512397955290453
1539131638446533,0.03051804379333589,1.4953841458761872,1.1902037079423735
1539131638462528,-0.03051804379333589,0.8850232700083325,0.9460593575952316
1539131638478524,0.213626306553806,0.15259021896690683,0.6408789196611906
1539131638494519,0.5188067444876197,-0.5188067444876197,0.33569848172737693
1539131638510515,0.6408789196611906,-0.9460593575952316,0.09155413138023505
1539131638526510,0.6408789196611906,-1.0070954451819034,0.03051804379333589
1539131638542506,0.5798428320745188,-0.7019150072480898,-0.03051804379333589
1539131638558501,0.6408789196611906,-0.45777065690094787,-0.03051804379333589
1539131638574497,0.5188067444876197,-0.33569848172737693,0.2746623941404778
1539131638590492,0.7629510948347615,-0.45777065690094787,0.5188067444876197
1539131638606488,0.5798428320745188,-0.15259021896690683,0.5798428320745188
1539131638622483,0.33569848172737693,0.45777065690094787,0.5188067444876197
1539131638638479,0.15259021896690683,0.45777065690094787,0.33569848172737693
1539131638654474,0.213626306553806,0.45777065690094787,0.33569848172737693
1539131638670470,0.2746623941404778,0.5188067444876197,0.33569848172737693
1539131638686465,0.213626306553806,0.7019150072480898,0.45777065690094787
1539131638702461,0.15259021896690683,0.8239871824216607,0.5798428320745188
1539131638718456,0.213626306553806,1.0681315327688026,0.7019150072480898
1539131638734452,0.09155413138023505,1.1902037079423735,0.7019150072480898
1539131638750447,0.03051804379333589,1.1902037079423735,0.7019150072480898
1539131638766143,0.09155413138023505,0.8850232700083325,0.6408789196611906
1539131638782138,0.213626306553806,0.5798428320745188,0.45777065690094787
1539131638798133,0.33569848172737693,0.213626306553806,0.213626306553806
1539131638814127,0.33569848172737693,0.213626306553806,0.09155413138023505
1539131638830122,0.33569848172737693,0.2746623941404778,0.09155413138023505
1539131638846116,0.2746623941404778,0.5798428320745188,0.09155413138023505
1539131638862111,0.2746623941404778,1.0681315327688026,0.15259021896690683
1539131638878105,0.2746623941404778,1.4343480582895154,0.2746623941404778
1539131638894100,0.2746623941404778,1.739528496223329,0.3967345693140487
1539131638910094,0.15259021896690683,1.9226367589837992,0.5798428320745188
1539131638926089,0.15259021896690683,1.8005645838102282,0.7019150072480898
1539131638942083,0.09155413138023505,1.6174563210497581,0.6408789196611906
1539131638958078,0.15259021896690683,1.3122758831159445,0.5798428320745188
1539131638974073,0.33569848172737693,1.0681315327688026,0.5188067444876197
1539131638990067,0.2746623941404778,0.8239871824216607,0.5188067444876197
1539131639006062,0.213626306553806,0.5798428320745188,0.5188067444876197
1539131639022056,0.33569848172737693,0.15259021896690683,0.45777065690094787
1539131639038051,0.45777065690094787,-0.09155413138023505,0.33569848172737693
1539131639054045,0.5188067444876197,-0.213626306553806,0.2746623941404778
1539131639070040,0.5188067444876197,-0.5188067444876197,0.15259021896690683
1539131639085785,0.45777065690094787,-0.8239871824216607,0.03051804379333589
1539131639101778,0.6408789196611906,-0.8239871824216607,-0.03051804379333589
1539131639117772,0.5798428320745188,-0.6408789196611906,-0.03051804379333589
1539131639133765,0.45777065690094787,-0.7019150072480898,0.09155413138023505
1539131639149759,0.45777065690094787,-1.1902037079423735,0.15259021896690683
1539131639165753,0.45777065690094787,-1.2512397955290453,0.213626306553806
1539131639181746,0.45777065690094787,-0.7019150072480898,0.213626306553806
1539131639197740,0.2746623941404778,-0.5188067444876197,0.2746623941404778
1539131639213733,0.2746623941404778,-0.6408789196611906,0.15259021896690683
1539131639229727,0.3967345693140487,-0.5798428320745188,0.213626306553806
1539131639245720,0.33569848172737693,-0.3967345693140487,0.3967345693140487
1539131639261714,0.3967345693140487,-0.15259021896690683,0.45777065690094787
1539131639277708,0.3967345693140487,0.15259021896690683,0.3967345693140487
1539131639293701,0.33569848172737693,0.33569848172737693,0.45777065690094787
1539131639309695,0.09155413138023505,0.33569848172737693,0.5188067444876197
1539131639325688,0.15259021896690683,0.213626306553806,0.5188067444876197
1539131639341682,0.213626306553806,0.09155413138023505,0.45777065690094787
1539131639357676,0.213626306553806,-0.09155413138023505,0.3967345693140487
1539131639373669,0.2746623941404778,-0.15259021896690683,0.33569848172737693
1539131639389663,0.33569848172737693,-0.03051804379333589,0.15259021896690683
1539131639405365,0.3967345693140487,0.03051804379333589,0.213626306553806
1539131639421357,0.3967345693140487,0.03051804379333589,0.2746623941404778
1539131639437349,0.33569848172737693,-0.03051804379333589,0.3967345693140487
1539131639453341,0.45777065690094787,-0.09155413138023505,0.45777065690094787
1539131639469333,0.45777065690094787,-0.03051804379333589,0.5798428320745188
1539131639485325,0.2746623941404778,0.03051804379333589,0.6408789196611906
1539131639501318,0.2746623941404778,-0.09155413138023505,0.5798428320745188
1539131639517310,0.2746623941404778,-0.2746623941404778,0.5188067444876197
1539131639533302,0.45777065690094787,-0.45777065690094787,0.3967345693140487
1539131639549294,0.45777065690094787,-0.6408789196611906,0.33569848172737693
1539131639565286,0.45777065690094787,-0.6408789196611906,0.2746623941404778
1539131639581278,0.45777065690094787,-0.6408789196611906,0.2746623941404778
1539131639597271,0.5188067444876197,-0.3967345693140487,0.3967345693140487
1539131639613263,0.45777065690094787,-0.03051804379333589,0.5798428320745188
1539131639629255,0.2746623941404778,0.15259021896690683,0.7019150072480898
1539131639645247,0.33569848172737693,-0.03051804379333589,0.7019150072480898
1539131639661239,0.3967345693140487,-0.03051804379333589,0.5798428320745188
1539131639677231,0.2746623941404778,0.09155413138023505,0.6408789196611906
1539131639693224,0.2746623941404778,-0.03051804379333589,0.5798428320745188
1539131639709216,0.33569848172737693,-0.213626306553806,0.5188067444876197
1539131639725006,0.2746623941404778,-0.213626306553806,0.5798428320745188
1539131639740997,0.45777065690094787,-0.09155413138023505,0.5798428320745188
1539131639756989,0.45777065690094787,0.03051804379333589,0.6408789196611906
1539131639772981,0.3967345693140487,-0.15259021896690683,0.7019150072480898
1539131639788972,0.5798428320745188,-0.8239871824216607,0.8239871824216607
1539131639804964,0.5798428320745188,-1.1902037079423735,0.9460593575952316
1539131639820956,0.5798428320745188,-1.0070954451819034,0.8850232700083325
1539131639836948,0.45777065690094787,-0.9460593575952316,0.7629510948347615
1539131639852939,0.45777065690094787,-1.0070954451819034,0.5188067444876197
1539131639868931,0.6408789196611906,-1.0070954451819034,0.3967345693140487
1539131639884923,0.5188067444876197,-0.9460593575952316,0.3967345693140487
1539131639900914,0.3967345693140487,-1.0070954451819034,0.5188067444876197
1539131639916906,0.6408789196611906,-1.2512397955290453,0.5798428320745188
1539131639932898,0.5798428320745188,-1.3122758831159445,0.5188067444876197
1539131639948889,0.5188067444876197,-1.3733119707026162,0.45777065690094787
1539131639964881,0.5188067444876197,-1.3122758831159445,0.3967345693140487
1539131639980873,0.3967345693140487,-1.1902037079423735,0.33569848172737693
1539131639996864,0.45777065690094787,-0.8850232700083325,0.3967345693140487
1539131640012856,0.5188067444876197,-0.5798428320745188,0.45777065690094787
1539131640028848,0.6408789196611906,-0.213626306553806,0.7019150072480898
1539131640044586,0.45777065690094787,0.15259021896690683,0.8239871824216607
1539131640060577,0.33569848172737693,0.2746623941404778,1.0070954451819034
1539131640076567,0.33569848172737693,0.03051804379333589,1.0070954451819034
1539131640092558,0.3967345693140487,-0.15259021896690683,0.8850232700083325
1539131640108549,0.45777065690094787,-0.3967345693140487,0.7629510948347615
1539131640124539,0.45777065690094787,-0.5798428320745188,0.7019150072480898
1539131640140530,0.45777065690094787,-0.7629510948347615,0.5798428320745188
1539131640156521,0.5798428320745188,-0.8239871824216607,0.45777065690094787
1539131640172512,0.5798428320745188,-0.7019150072480898,0.5188067444876197
1539131640188502,0.5798428320745188,-0.6408789196611906,0.5798428320745188
1539131640204493,0.5798428320745188,-0.6408789196611906,0.5188067444876197
1539131640220484,0.5798428320745188,-0.8239871824216607,0.45777065690094787
1539131640236475,0.45777065690094787,-1.0070954451819034,0.3967345693140487
1539131640252465,0.5188067444876197,-1.1291676203554744,0.15259021896690683
1539131640268456,0.7629510948347615,-1.2512397955290453,-0.15259021896690683
1539131640284447,1.0070954451819034,-1.8005645838102282,-0.45777065690094787
1539131640300438,1.0681315327688026,-2.5940337224383256,-0.5188067444876197
1539131640316428,1.1291676203554744,-3.2043945983061803,-0.45777065690094787
1539131640332419,1.3122758831159445,-3.7537193865873633,-0.5188067444876197
1539131640348410,1.1902037079423735,-4.364080262455218,-0.6408789196611906
1539131640364227,1.1291676203554744,-4.730296787975931,-0.5188067444876197
1539131640380217,1.3122758831159445,-4.547188525215461,-0.2746623941404778
1539131640396206,1.2512397955290453,-4.180971999694748,0.09155413138023505
1539131640412196,0.9460593575952316,-3.7537193865873633,0.3967345693140487
1539131640428186,0.7629510948347615,-2.532997634851654,0.5188067444876197
1539131640444176,0.5798428320745188,-1.739528496223329,0.3967345693140487
1539131640460166,0.5188067444876197,-1.2512397955290453,0.45777065690094787
1539131640476155,0.33569848172737693,-0.9460593575952316,0.45777065690094787
1539131640492145,0.213626306553806,-0.5798428320745188,0.5798428320745188
1539131640508135,0.09155413138023505,-0.213626306553806,0.7629510948347615
1539131640524125,-0.03051804379333589,0.09155413138023505,0.8239871824216607
1539131640540115,-0.03051804379333589,0.2746623941404778,0.8239871824216607
1539131640556104,-0.03051804379333589,0.33569848172737693,0.8850232700083325
1539131640572094,0.03051804379333589,0.6408789196611906,0.8850232700083325
1539131640588084,0.03051804379333589,1.0070954451819034,0.8850232700083325
1539131640604074,-0.09155413138023505,1.0070954451819034,0.8850232700083325
1539131640620063,-0.15259021896690683,0.9460593575952316,0.8239871824216607
1539131640636053,0.09155413138023505,1.0070954451819034,0.7629510948347615
1539131640652043,-0.09155413138023505,1.1902037079423735,0.7019150072480898
1539131640668033,-0.03051804379333589,1.3122758831159445,0.7019150072480898
1539131640683807,-0.09155413138023505,1.3733119707026162,0.5798428320745188
1539131640699796,0.33569848172737693,1.2512397955290453,0.5188067444876197
1539131640715785,-0.03051804379333589,0.8239871824216607,-0.09155413138023505
1539131640731773,0.2746623941404778,-0.03051804379333589,0.03051804379333589
1539131640747762,0.33569848172737693,-0.3967345693140487,-0.15259021896690683
1539131640763751,0.3967345693140487,-0.5798428320745188,-0.213626306553806
1539131640779740,0.5188067444876197,-0.8239871824216607,-0.213626306553806
1539131640795729,0.5188067444876197,-1.0070954451819034,-0.03051804379333589
1539131640811718,0.6408789196611906,-1.1902037079423735,0.03051804379333589
1539131640827706,0.5798428320745188,-1.1291676203554744,0.15259021896690683
1539131640843695,0.6408789196611906,-1.0070954451819034,0.15259021896690683
1539131640859684,0.45777065690094787,-0.8239871824216607,0.09155413138023505
1539131640875673,0.45777065690094787,-0.8239871824216607,0.15259021896690683
1539131640891662,0.33569848172737693,-0.5798428320745188,0.213626306553806
1539131640907651,0.33569848172737693,-0.213626306553806,0.2746623941404778
1539131640923639,0.09155413138023505,-0.213626306553806,0.3967345693140487
1539131640939628,0.213626306553806,-0.213626306553806,0.5188067444876197
1539131640955617,0.213626306553806,-0.09155413138023505,0.7019150072480898
1539131640971606,0.15259021896690683,-0.45777065690094787,0.8239871824216607
1539131640987595,0.15259021896690683,-0.5188067444876197,0.8850232700083325
1539131641003448,-0.09155413138023505,-0.15259021896690683,0.7019150072480898
1539131641019436,0.03051804379333589,-0.09155413138023505,0.5188067444876197
1539131641035425,0.09155413138023505,-0.213626306553806,0.45777065690094787
1539131641051413,0.33569848172737693,-0.2746623941404778,0.33569848172737693
1539131641067402,0.3967345693140487,-0.09155413138023505,0.3967345693140487
1539131641083390,0.2746623941404778,0.213626306553806,0.5798428320745188
1539131641099378,0.213626306553806,0.5188067444876197,0.6408789196611906
1539131641115367,0.03051804379333589,0.7629510948347615,0.6408789196611906
1539131641131355,-0.03051804379333589,0.7629510948347615,0.5798428320745188
1539131641147343,-0.09155413138023505,0.8239871824216607,0.5188067444876197
1539131641163332,-0.03051804379333589,0.7019150072480898,0.2746623941404778
1539131641179320,0.09155413138023505,0.6408789196611906,0.213626306553806
1539131641195308,0.03051804379333589,0.6408789196611906,0.213626306553806
1539131641211297,0.09155413138023505,0.5798428320745188,0.2746623941404778
1539131641227285,0.15259021896690683,0.45777065690094787,0.33569848172737693
1539131641243273,0.2746623941404778,0.33569848172737693,0.33569848172737693
1539131641259262,0.213626306553806,0.33569848172737693,0.45777065690094787
1539131641275250,0.15259021896690683,0.213626306553806,0.45777065690094787
1539131641291238,0.213626306553806,0.213626306553806,0.3967345693140487
1539131641307227,0.2746623941404778,0.33569848172737693,0.3967345693140487
1539131641323028,0.15259021896690683,0.7019150072480898,0.45777065690094787
1539131641339016,0.03051804379333589,1.1902037079423735,0.6408789196611906
1539131641355004,-0.03051804379333589,1.6174563210497581,0.7629510948347615
1539131641370992,-0.03051804379333589,1.9226367589837992,0.9460593575952316
1539131641386980,-0.03051804379333589,1.9226367589837992,1.0070954451819034
1539131641402968,0.03051804379333589,1.739528496223329,1.0070954451819034
1539131641418955,0.09155413138023505,1.5564202334630863,0.9460593575952316
1539131641434943,0.15259021896690683,1.3122758831159445,0.8239871824216607
1539131641450931,0.09155413138023505,1.0070954451819034,0.6408789196611906
1539131641466919,0.15259021896690683,0.5188067444876197,0.5188067444876197
1539131641482907,0.213626306553806,0.45777065690094787,0.5188067444876197
1539131641498895,0.2746623941404778,0.5798428320745188,0.45777065690094787
1539131641514883,0.33569848172737693,0.45777065690094787,0.45777065690094787
1539131641530871,0.2746623941404778,0.5188067444876197,0.5188067444876197
1539131641546858,0.213626306553806,0.213626306553806,0.8239871824216607
1539131641562846,0.2746623941404778,0.3967345693140487,0.9460593575952316
1539131641578834,0.15259021896690683,1.0070954451819034,1.0681315327688026
1539131641594822,0.2746623941404778,1.2512397955290453,1.1291676203554744
1539131641610810,0.03051804379333589,1.4343480582895154,1.0070954451819034
1539131641626798,0.03051804379333589,1.1902037079423735,1.0070954451819034
1539131641642639,0.15259021896690683,0.8239871824216607,0.8850232700083325
1539131641658626,0.213626306553806,0.6408789196611906,0.7629510948347615
1539131641674613,0.2746623941404778,0.33569848172737693,0.6408789196611906
1539131641690600,0.213626306553806,0.03051804379333589,0.45777065690094787
1539131641706586,0.2746623941404778,-0.2746623941404778,0.33569848172737693
1539131641722573,0.3967345693140487,-0.3967345693140487,0.33569848172737693
1539131641738560,0.6408789196611906,-0.2746623941404778,0.3967345693140487
1539131641754547,0.5188067444876197,-0.213626306553806,0.45777065690094787
1539131641770534,0.3967345693140487,-0.213626306553806,0.3967345693140487
1539131641786521,0.45777065690094787,-0.33569848172737693,0.33569848172737693
1539131641802508,0.33569848172737693,-0.45777065690094787,0.213626306553806
1539131641818495,0.213626306553806,-0.8239871824216607,0.15259021896690683
1539131641834482,0.2746623941404778,-1.2512397955290453,-0.09155413138023505
1539131641850469,0.2746623941404778,-1.4953841458761872,-0.213626306553806
1539131641866456,0.03051804379333589,-1.8005645838102282,-0.3967345693140487
1539131641882443,0.213626306553806,-2.288853284504512,-0.45777065690094787
1539131641898429,0.09155413138023505,-2.5940337224383256,-0.5188067444876197
1539131641914416,0.09155413138023505,-3.1433585107195086,-0.7629510948347615
1539131641930403,0.09155413138023505,-3.875791561760934,-1.0681315327688026
1539131641946390,0.5188067444876197,-4.730296787975931,-1.4953841458761872
1539131641962249,0.7019150072480898,-5.096513313496644,-1.6784924086366573
1539131641978236,1.0070954451819034,-4.791332875562603,-1.4343480582895154
1539131641994222,1.1291676203554744,-3.692683299000464,-1.0070954451819034
1539131642010209,0.8850232700083325,-1.9226367589837992,-0.2746623941404778
1539131642026195,0.7019150072480898,-0.213626306553806,0.5188067444876197
1539131642042182,0.5188067444876197,1.1902037079423735,1.1902037079423735
1539131642058168,0.33569848172737693,2.04470893415737,1.5564202334630863
1539131642074154,0.15259021896690683,2.166781109330941,1.6174563210497581
1539131642090141,0.15259021896690683,1.8616006713969,1.3733119707026162
1539131642106127,0.09155413138023505,1.4953841458761872,1.0070954451819034
1539131642122114,0.09155413138023505,1.0681315327688026,0.6408789196611906
1539131642138100,0.09155413138023505,0.3967345693140487,0.45777065690094787
1539131642154087,0.5188067444876197,-0.6408789196611906,0.33569848172737693
1539131642170073,0.6408789196611906,-1.0681315327688026,0.45777065690094787
1539131642186060,0.5798428320745188,-0.7019150072480898,0.5188067444876197
1539131642202046,0.45777065690094787,-0.7629510948347615,0.5188067444876197
1539131642218032,0.7019150072480898,-1.3733119707026162,0.2746623941404778
1539131642234019,0.213626306553806,-2.105745021744042,-0.15259021896690683
1539131642250005,0.7019150072480898,-2.9602502479590385,-0.5188067444876197
1539131642265992,1.1291676203554744,-3.7537193865873633,-0.8239871824216607
1539131642281860,1.1902037079423735,-3.936827649347606,-0.9460593575952316
1539131642297846,1.1902037079423735,-3.5095750362402214,-0.7019150072480898
1539131642313832,1.0681315327688026,-2.8381780727854675,-0.3967345693140487
1539131642329818,0.8239871824216607,-1.9226367589837992,0.15259021896690683
1539131642345804,0.5188067444876197,-1.1902037079423735,0.5188067444876197
1539131642361790,0.6408789196611906,-0.5798428320745188,0.6408789196611906
1539131642377776,0.5798428320745188,-0.3967345693140487,0.6408789196611906
1539131642393762,0.3967345693140487,-0.5798428320745188,0.45777065690094787
1539131642409748,0.45777065690094787,-0.8239871824216607,0.2746623941404778
1539131642425734,0.5188067444876197,-1.0070954451819034,0.2746623941404778
1539131642441720,0.33569848172737693,-1.3733119707026162,0.2746623941404778
1539131642457706,0.8850232700083325,-2.410925459678083,0.45777065690094787
1539131642473692,2.227817196917613,-3.875791561760934,1.1291676203554744
1539131642489678,2.8992141603723667,-4.486152437628789,1.739528496223329
1539131642505663,2.5940337224383256,-4.058899824521177,1.5564202334630863
1539131642521649,2.166781109330941,-3.2043945983061803,1.3122758831159445
1539131642537635,1.5564202334630863,-2.410925459678083,0.9460593575952316
1539131642553621,1.0681315327688026,-1.9226367589837992,0.7019150072480898
1539131642569607,0.8239871824216607,-1.6784924086366573,0.5188067444876197
1539131642585593,0.45777065690094787,-1.1291676203554744,0.5188067444876197
1539131642601471,-0.09155413138023505,-0.15259021896690683,0.5798428320745188
1539131642617456,-0.7019150072480898,0.8239871824216607,0.213626306553806
1539131642633442,-0.8239871824216607,1.3122758831159445,0.15259021896690683
1539131642649427,-0.7019150072480898,1.4953841458761872,0.3967345693140487
1539131642665413,-0.7629510948347615,1.5564202334630863,0.7629510948347615
1539131642681398,-0.5188067444876197,1.6174563210497581,1.1291676203554744
1539131642697384,-0.45777065690094787,1.5564202334630863,1.3733119707026162
1539131642713369,-0.15259021896690683,1.2512397955290453,1.4343480582895154
1539131642729354,-0.03051804379333589,0.6408789196611906,1.2512397955290453
1539131642745340,0.2746623941404778,-0.03051804379333589,1.0070954451819034
1539131642761325,0.2746623941404778,-0.7629510948347615,0.7019150072480898
1539131642777311,0.5798428320745188,-1.4953841458761872,0.45777065690094787
1539131642793296,0.7019150072480898,-1.8616006713969,0.5188067444876197
1539131642809282,0.8850232700083325,-2.288853284504512,0.7019150072480898
1539131642825267,0.7629510948347615,-2.3498893720911838,0.7629510948347615
1539131642841253,0.5798428320745188,-2.105745021744042,0.5188067444876197
1539131642857238,0.6408789196611906,-2.04470893415737,0.3967345693140487
1539131642873224,0.7019150072480898,-2.105745021744042,0.33569848172737693
1539131642889209,0.7629510948347615,-1.8616006713969,0.3967345693140487
1539131642905195,1.0070954451819034,-1.8005645838102282,0.5798428320745188
1539131642921081,0.8850232700083325,-1.6784924086366573,0.7629510948347615
1539131642937066,0.7629510948347615,-1.739528496223329,0.6408789196611906
1539131642953051,0.7629510948347615,-1.8005645838102282,0.3967345693140487
1539131642969036,0.8850232700083325,-1.8616006713969,0.2746623941404778
1539131642985021,0.5188067444876197,-1.8616006713969,0.09155413138023505
1539131643001006,0.7629510948347615,-1.739528496223329,-0.03051804379333589
1539131643016991,0.5798428320745188,-1.2512397955290453,0.09155413138023505
1539131643032976,0.5798428320745188,-0.6408789196611906,0.3967345693140487
1539131643048961,0.45777065690094787,-0.15259021896690683,0.5798428320745188
1539131643064946,0.3967345693140487,0.3967345693140487,0.7629510948347615
1539131643080931,0.2746623941404778,0.6408789196611906,0.7629510948347615
1539131643096916,0.15259021896690683,0.8850232700083325,0.8239871824216607
1539131643112901,0.03051804379333589,0.7019150072480898,0.7629510948347615
1539131643128886,0.15259021896690683,0.7629510948347615,0.5798428320745188
1539131643144871,0.03051804379333589,0.8850232700083325,0.5798428320745188
1539131643160856,0.09155413138023505,0.7019150072480898,0.5798428320745188
1539131643176841,-0.09155413138023505,0.6408789196611906,0.5798428320745188
1539131643192826,0.2746623941404778,0.5798428320745188,0.6408789196611906
1539131643208811,0.03051804379333589,0.5798428320745188,0.7629510948347615
1539131643224796,0.03051804379333589,0.45777065690094787,0.7019150072480898
1539131643240661,0.09155413138023505,0.2746623941404778,0.5798428320745188
1539131643256646,0.33569848172737693,0.09155413138023505,0.5798428320745188
1539131643272630,0.45777065690094787,-0.09155413138023505,0.5798428320745188
1539131643288615,0.7019150072480898,-0.3967345693140487,0.5798428320745188
1539131643304599,0.8239871824216607,-0.9460593575952316,0.7629510948347615
1539131643320584,0.7629510948347615,-1.0070954451819034,0.8239871824216607
1539131643336568,0.6408789196611906,-0.6408789196611906,0.7019150072480898
1539131643352553,0.5188067444876197,-0.7019150072480898,0.33569848172737693
1539131643368538,0.3967345693140487,-1.0070954451819034,0.15259021896690683
1539131643384522,0.33569848172737693,-1.4343480582895154,-0.09155413138023505
1539131643400507,0.3967345693140487,-1.8616006713969,-0.213626306553806
1539131643416491,0.3967345693140487,-2.227817196917613,-0.3967345693140487
1539131643432476,0.09155413138023505,-1.8616006713969,-0.5798428320745188
1539131643448460,0.03051804379333589,-1.983672846570471,-0.8850232700083325
1539131643464445,0.3967345693140487,-2.410925459678083,-1.0070954451819034
1539131643480429,0.3967345693140487,-2.288853284504512,-0.9460593575952316
1539131643496414,0.5188067444876197,-1.5564202334630863,-0.5798428320745188
1539131643512398,0.5188067444876197,-0.2746623941404778,-0.03051804379333589
1539131643528383,0.33569848172737693,1.2512397955290453,0.7019150072480898
1539131643544367,0.15259021896690683,2.655069810025225,1.4343480582895154
1539131643560272,-0.09155413138023505,3.570611123826893,1.9226367589837992
1539131643576256,-0.5188067444876197,3.692683299000464,2.04470893415737
1539131643592241,-0.3967345693140487,3.4485389486533222,1.9226367589837992
1539131643608225,-0.45777065690094787,3.1433585107195086,1.5564202334630863
1539131643624210,-0.5188067444876197,2.655069810025225,1.2512397955290453
1539131643640195,-0.45777065690094787,2.166781109330941,1.0070954451819034
1539131643656179,-0.33569848172737693,1.6784924086366573,0.7019150072480898
1539131643672164,-0.09155413138023505,1.1291676203554744,0.5798428320745188
1539131643688148,-0.09155413138023505,0.33569848172737693,0.3967345693140487
1539131643704133,0.2746623941404778,-0.5798428320745188,0.09155413138023505
1539131643720117,0.33569848172737693,-1.4343480582895154,-0.09155413138023505
1539131643736102,0.45777065690094787,-2.105745021744042,-0.3967345693140487
1539131643752086,0.45777065690094787,-2.410925459678083,-0.5798428320745188
1539131643768071,0.5798428320745188,-2.7161058976118966,-0.7629510948347615
1539131643784055,0.6408789196611906,-2.655069810025225,-0.7629510948347615
1539131643800040,0.7629510948347615,-2.166781109330941,-0.5798428320745188
1539131643816024,0.7629510948347615,-1.3122758831159445,-0.2746623941404778
1539131643832009,0.5798428320745188,-0.33569848172737693,0.213626306553806
1539131643847993,0.33569848172737693,0.7629510948347615,0.6408789196611906
1539131643863978,0.2746623941404778,1.8616006713969,1.0681315327688026
1539131643879882,0.5188067444876197,3.0823224231326094,1.4953841458761872
1539131643895866,0.3967345693140487,4.058899824521177,1.739528496223329
1539131643911851,0.213626306553806,4.669260700389032,1.9226367589837992
1539131643927835,-0.09155413138023505,4.974441138323073,1.9226367589837992
1539131643943819,-0.2746623941404778,4.547188525215461,1.739528496223329
1539131643959803,-0.09155413138023505,3.4485389486533222,1.3733119707026162
1539131643975787,0.15259021896690683,1.8616006713969,0.9460593575952316
1539131643991771,0.33569848172737693,0.33569848172737693,0.5188067444876197
1539131644007755,0.2746623941404778,0.2746623941404778,0.3967345693140487
1539131644023739,0.213626306553806,0.7019150072480898,0.5798428320745188
1539131644039723,0.09155413138023505,1.0681315327688026,0.7019150072480898
1539131644055707,0.09155413138023505,1.1291676203554744,0.8239871824216607
1539131644071691,0.15259021896690683,0.8239871824216607,0.8239871824216607
1539131644087675,0.213626306553806,0.45777065690094787,0.7019150072480898
1539131644103659,0.213626306553806,0.2746623941404778,0.5798428320745188
1539131644119643,0.213626306553806,0.45777065690094787,0.5188067444876197
1539131644135627,0.03051804379333589,0.8239871824216607,0.45777065690094787
1539131644151611,0.15259021896690683,1.0070954451819034,0.3967345693140487
1539131644167595,0.213626306553806,1.3122758831159445,0.5798428320745188
1539131644183580,0.3967345693140487,1.8616006713969,0.7019150072480898
1539131644199493,0.2746623941404778,2.8992141603723667,0.9460593575952316
1539131644215477,0.09155413138023505,3.936827649347606,1.3122758831159445
1539131644231460,-0.33569848172737693,4.486152437628789,1.6784924086366573
1539131644247444,-0.5798428320745188,4.180971999694748,1.9226367589837992
1539131644263427,-0.5798428320745188,3.5095750362402214,1.6784924086366573
1539131644279411,-0.45777065690094787,2.410925459678083,1.2512397955290453
1539131644295395,0.03051804379333589,1.4343480582895154,0.7629510948347615
1539131644311378,0.09155413138023505,0.8239871824216607,0.3967345693140487
1539131644327362,0.15259021896690683,0.6408789196611906,0.33569848172737693
1539131644343345,0.03051804379333589,0.45777065690094787,0.33569848172737693
1539131644359329,0.15259021896690683,-0.03051804379333589,0.33569848172737693
1539131644375312,0.213626306553806,-0.3967345693140487,0.2746623941404778
1539131644391296,0.2746623941404778,-0.9460593575952316,0.09155413138023505
1539131644407280,0.3967345693140487,-1.4953841458761872,-0.09155413138023505
1539131644423263,0.2746623941404778,-1.983672846570471,-0.2746623941404778
1539131644439247,0.33569848172737693,-2.410925459678083,-0.45777065690094787
1539131644455230,0.45777065690094787,-2.655069810025225,-0.5798428320745188
1539131644471214,0.5188067444876197,-2.7771419851987957,-0.7019150072480898
1539131644487198,0.5798428320745188,-3.0212863355459376,-0.7629510948347615
1539131644503181,0.9460593575952316,-2.8992141603723667,-0.6408789196611906
1539131644519073,0.8239871824216607,-2.3498893720911838,-0.33569848172737693
1539131644535056,0.7019150072480898,-1.6174563210497581,0.09155413138023505
1539131644551039,0.7629510948347615,-0.7629510948347615,0.45777065690094787
1539131644567022,0.33569848172737693,0.03051804379333589,0.7019150072480898
1539131644583006,0.2746623941404778,0.3967345693140487,0.7019150072480898
1539131644598989,0.2746623941404778,0.213626306553806,0.5798428320745188
1539131644614972,0.45777065690094787,-0.2746623941404778,0.6408789196611906
1539131644630955,0.5188067444876197,-0.03051804379333589,0.5798428320745188
1539131644646938,0.45777065690094787,0.5798428320745188,0.6408789196611906
1539131644662921,0.33569848172737693,1.0681315327688026,0.7019150072480898
1539131644678904,0.2746623941404778,1.3122758831159445,0.8850232700083325
1539131644694887,0.213626306553806,1.1291676203554744,0.8850232700083325
1539131644710870,0.33569848172737693,0.7019150072480898,0.7629510948347615
1539131644726853,0.2746623941404778,0.33569848172737693,0.5798428320745188
1539131644742837,0.3967345693140487,-0.15259021896690683,0.3967345693140487
1539131644758820,0.5798428320745188,-0.45777065690094787,0.2746623941404778
1539131644774803,0.5188067444876197,-0.5798428320745188,0.213626306553806
1539131644790786,0.3967345693140487,-0.5188067444876197,0.3967345693140487
1539131644806769,0.3967345693140487,-0.2746623941404778,0.6408789196611906
1539131644822752,0.33569848172737693,-0.15259021896690683,0.7019150072480898
1539131644838653,0.3967345693140487,-0.213626306553806,0.7019150072480898
1539131644854636,0.3967345693140487,-0.3967345693140487,0.5188067444876197
1539131644870619,0.45777065690094787,-0.7629510948347615,0.33569848172737693
1539131644886603,0.5188067444876197,-1.0070954451819034,0.213626306553806
1539131644902586,0.5188067444876197,-0.9460593575952316,0.15259021896690683
1539131644918569,0.45777065690094787,-0.9460593575952316,0.15259021896690683
1539131644934552,0.33569848172737693,-0.7629510948347615,0.2746623941404778
1539131644950535,0.2746623941404778,-0.7629510948347615,0.3967345693140487
1539131644966518,0.3967345693140487,-1.0070954451819034,0.33569848172737693
1539131644982501,0.45777065690094787,-1.3122758831159445,0.2746623941404778
1539131644998484,0.5188067444876197,-1.6174563210497581,0.15259021896690683
1539131645014467,0.7019150072480898,-2.166781109330941,-0.03051804379333589
1539131645030450,0.8239871824216607,-2.3498893720911838,-0.213626306553806
1539131645046434,1.0070954451819034,-2.5940337224383256,-0.09155413138023505
1539131645062417,1.0681315327688026,-2.532997634851654,0.15259021896690683
1539131645078400,0.8850232700083325,-2.3498893720911838,0.3967345693140487
1539131645094383,0.7019150072480898,-2.04470893415737,0.5798428320745188
1539131645110366,0.5188067444876197,-1.6784924086366573,0.6408789196611906
1539131645126349,0.6408789196611906,-1.3733119707026162,0.5798428320745188
1539131645142332,0.45777065690094787,-1.0070954451819034,0.5188067444876197
1539131645158264,0.5798428320745188,-0.8239871824216607,0.7019150072480898
1539131645174246,0.5188067444876197,-0.7629510948347615,0.8239871824216607
1539131645190229,0.45777065690094787,-1.1291676203554744,0.8850232700083325
1539131645206212,0.5188067444876197,-1.4953841458761872,0.9460593575952316
1539131645222194,0.5798428320745188,-1.6784924086366573,1.0070954451819034
1539131645238177,0.45777065690094787,-2.04470893415737,0.7629510948347615
1539131645254160,0.7019150072480898,-2.532997634851654,0.45777065690094787
1539131645270142,0.8850232700083325,-2.7771419851987957,0.3967345693140487
1539131645286125,1.1291676203554744,-2.7771419851987957,0.5188067444876197
1539131645302107,1.1902037079423735,-2.8381780727854675,0.8239871824216607
1539131645318090,1.1291676203554744,-2.3498893720911838,0.9460593575952316
1539131645334073,0.8850232700083325,-1.6174563210497581,1.0070954451819034
1539131645350055,0.7019150072480898,-1.1291676203554744,1.0681315327688026
1539131645366038,0.45777065690094787,-1.0070954451819034,1.0681315327688026
1539131645382021,0.6408789196611906,-1.3122758831159445,0.9460593575952316
1539131645398003,0.7629510948347615,-1.5564202334630863,0.8850232700083325
1539131645413986,0.7629510948347615,-1.3122758831159445,0.8850232700083325
1539131645429968,0.6408789196611906,-0.9460593575952316,0.9460593575952316
1539131645445951,0.5188067444876197,-0.7019150072480898,0.9460593575952316
1539131645461934,0.33569848172737693,-0.3967345693140487,1.0070954451819034
1539131645477874,0.33569848172737693,-0.15259021896690683,1.0681315327688026
1539131645493857,0.45777065690094787,0.03051804379333589,1.1291676203554744
1539131645509840,0.33569848172737693,0.2746623941404778,1.1291676203554744
1539131645525822,0.33569848172737693,0.45777065690094787,1.1291676203554744
1539131645541805,0.2746623941404778,0.7019150072480898,1.1902037079423735
1539131645557788,0.2746623941404778,0.8850232700083325,1.1291676203554744
1539131645573770,0.213626306553806,0.8850232700083325,1.2512397955290453
1539131645589753,0.2746623941404778,0.6408789196611906,1.1902037079423735
1539131645605735,0.45777065690094787,0.33569848172737693,1.0070954451819034
1539131645621718,0.3967345693140487,-0.03051804379333589,0.8850232700083325
1539131645637701,0.5188067444876197,-0.3967345693140487,0.7629510948347615
1539131645653683,0.5188067444876197,-0.5798428320745188,0.5798428320745188
1539131645669666,0.5798428320745188,-0.7629510948347615,0.5798428320745188
1539131645685649,0.5798428320745188,-0.7019150072480898,0.5188067444876197
1539131645701631,0.7019150072480898,-0.7019150072480898,0.5798428320745188
1539131645717614,0.7019150072480898,-0.7019150072480898,0.7019150072480898
1539131645733596,0.5798428320745188,-0.6408789196611906,0.5798428320745188
1539131645749579,0.5188067444876197,-0.7019150072480898,0.5188067444876197
1539131645765562,0.5798428320745188,-0.8850232700083325,0.3967345693140487
1539131645781544,0.5798428320745188,-0.9460593575952316,0.2746623941404778
1539131645797454,0.45777065690094787,-0.8850232700083325,0.2746623941404778
1539131645813437,0.3967345693140487,-0.5798428320745188,0.2746623941404778
1539131645829419,0.5188067444876197,-0.2746623941404778,0.3967345693140487
1539131645845401,0.33569848172737693,0.09155413138023505,0.5798428320745188
1539131645861383,0.213626306553806,0.5188067444876197,0.7019150072480898
1539131645877365,0.15259021896690683,0.5798428320745188,0.5798428320745188
1539131645893347,0.2746623941404778,0.33569848172737693,0.5188067444876197
1539131645909330,0.3967345693140487,0.03051804379333589,0.5188067444876197
1539131645925312,0.5188067444876197,-0.33569848172737693,0.5798428320745188
1539131645941294,0.5188067444876197,-0.5188067444876197,0.5798428320745188
1539131645957276,0.213626306553806,0.15259021896690683,0.6408789196611906
1539131645973258,0.213626306553806,0.3967345693140487,0.5798428320745188
1539131645989240,0.213626306553806,0.5188067444876197,0.5798428320745188
1539131646005222,0.33569848172737693,0.6408789196611906,0.6408789196611906
1539131646021205,0.15259021896690683,0.7629510948347615,0.6408789196611906
1539131646037187,0.15259021896690683,0.8239871824216607,0.6408789196611906
1539131646053169,0.15259021896690683,0.8239871824216607,0.6408789196611906
1539131646069151,0.15259021896690683,0.6408789196611906,0.5798428320745188
1539131646085133,0.09155413138023505,0.33569848172737693,0.5188067444876197
1539131646101115,0.15259021896690683,0.09155413138023505,0.45777065690094787
1539131646117065,0.09155413138023505,0.03051804379333589,0.3967345693140487
1539131646133047,0.09155413138023505,0.09155413138023505,0.33569848172737693
1539131646149029,-0.03051804379333589,0.33569848172737693,0.33569848172737693
1539131646165012,0.03051804379333589,0.5188067444876197,0.3967345693140487
1539131646180994,0.09155413138023505,0.6408789196611906,0.3967345693140487
1539131646196976,-0.09155413138023505,0.6408789196611906,0.45777065690094787
1539131646212958,0.09155413138023505,0.5188067444876197,0.45777065690094787
1539131646228940,0.09155413138023505,0.33569848172737693,0.3967345693140487
1539131646244922,0.09155413138023505,0.3967345693140487,0.5188067444876197
1539131646260904,0.15259021896690683,0.5188067444876197,0.5188067444876197
1539131646276887,0.09155413138023505,0.6408789196611906,0.5798428320745188
1539131646292869,0.09155413138023505,0.7019150072480898,0.7019150072480898
1539131646308851,0.213626306553806,0.3967345693140487,0.5798428320745188
1539131646324833,0.33569848172737693,0.15259021896690683,0.5188067444876197
1539131646340815,0.33569848172737693,-0.03051804379333589,0.3967345693140487
1539131646356797,0.15259021896690683,-0.09155413138023505,0.33569848172737693
1539131646372779,0.33569848172737693,-0.213626306553806,0.2746623941404778
1539131646388762,0.213626306553806,-0.213626306553806,0.3967345693140487
1539131646404744,0.33569848172737693,-0.03051804379333589,0.3967345693140487
1539131646420726,0.3967345693140487,0.15259021896690683,0.45777065690094787
1539131646436645,0.2746623941404778,0.15259021896690683,0.5188067444876197
1539131646452627,0.45777065690094787,0.09155413138023505,0.5798428320745188
1539131646468608,0.3967345693140487,0.03051804379333589,0.5188067444876197
1539131646484590,0.33569848172737693,0.03051804379333589,0.45777065690094787
1539131646500572,0.2746623941404778,-0.09155413138023505,0.33569848172737693
1539131646516554,0.2746623941404778,-0.2746623941404778,0.2746623941404778
1539131646532535,0.3967345693140487,-0.33569848172737693,0.45777065690094787
1539131646548517,0.3967345693140487,-0.5188067444876197,0.7629510948347615
1539131646564499,0.09155413138023505,0.15259021896690683,0.7019150072480898
1539131646580480,0.15259021896690683,0.3967345693140487,0.7019150072480898
1539131646596462,0.09155413138023505,0.2746623941404778,0.6408789196611906
1539131646612444,0.03051804379333589,-0.03051804379333589,0.45777065690094787
1539131646628425,0.213626306553806,-0.3967345693140487,0.2746623941404778
1539131646644407,0.3967345693140487,-0.33569848172737693,0.2746623941404778
1539131646660389,0.3967345693140487,-0.09155413138023505,0.33569848172737693
1539131646676370,0.213626306553806,0.213626306553806,0.3967345693140487
1539131646692352,0.15259021896690683,0.33569848172737693,0.45777065690094787
1539131646708334,0.09155413138023505,0.15259021896690683,0.3967345693140487
1539131646724315,0.15259021896690683,-0.09155413138023505,0.3967345693140487
1539131646740297,0.213626306553806,0.03051804379333589,0.3967345693140487
1539131646756256,-0.09155413138023505,0.33569848172737693,0.2746623941404778
1539131646772237,-0.15259021896690683,0.3967345693140487,0.15259021896690683
1539131646788219,0.03051804379333589,0.2746623941404778,-0.03051804379333589
1539131646804201,0.03051804379333589,-0.03051804379333589,-0.09155413138023505
1539131646820182,0.33569848172737693,-0.3967345693140487,-0.213626306553806
1539131646836164,0.213626306553806,-0.5188067444876197,-0.3967345693140487
1539131646852146,0.09155413138023505,-0.3967345693140487,-0.33569848172737693
1539131646868127,-0.09155413138023505,-0.09155413138023505,-0.15259021896690683
1539131646884109,-0.03051804379333589,0.213626306553806,0.15259021896690683
1539131646900091,-0.03051804379333589,0.6408789196611906,0.5188067444876197
1539131646916072,-0.03051804379333589,0.8850232700083325,0.7629510948347615
1539131646932054,-0.09155413138023505,0.8850232700083325,0.7629510948347615
1539131646948036,0.09155413138023505,0.6408789196611906,0.5798428320745188
1539131646964017,-0.03051804379333589,0.3967345693140487,0.3967345693140487
1539131646979999,0.09155413138023505,0.33569848172737693,0.2746623941404778
1539131646995981,0.15259021896690683,0.33569848172737693,0.2746623941404778
1539131647011963,0.09155413138023505,0.5188067444876197,0.2746623941404778
1539131647027944,0.09155413138023505,0.8850232700083325,0.45777065690094787
1539131647043926,0.03051804379333589,0.8239871824216607,0.5798428320745188
1539131647059908,0.09155413138023505,0.7629510948347615,0.5188067444876197
1539131647075836,0.15259021896690683,0.45777065690094787,0.5188067444876197
1539131647091817,0.213626306553806,-0.15259021896690683,0.33569848172737693
1539131647107799,0.213626306553806,-0.45777065690094787,0.2746623941404778
1539131647123781,0.33569848172737693,-0.7629510948347615,0.09155413138023505
1539131647139763,0.3967345693140487,-0.8239871824216607,0.03051804379333589
1539131647155744,0.45777065690094787,-1.0681315327688026,-0.03051804379333589
1539131647171726,0.5188067444876197,-1.4343480582895154,0.09155413138023505
1539131647187708,0.5188067444876197,-0.9460593575952316,0.2746623941404778
1539131647203689,0.45777065690094787,-0.45777065690094787,0.3967345693140487
1539131647219671,0.3967345693140487,-0.09155413138023505,0.3967345693140487
1539131647235653,0.2746623941404778,0.09155413138023505,0.3967345693140487
1539131647251634,0.2746623941404778,0.15259021896690683,0.45777065690094787
1539131647267616,0.213626306553806,0.45777065690094787,0.45777065690094787
1539131647283598,0.33569848172737693,0.7629510948347615,0.5798428320745188
1539131647299579,0.15259021896690683,1.0070954451819034,0.6408789196611906
1539131647315561,0.09155413138023505,0.9460593575952316,0.7629510948347615
1539131647331543,0.09155413138023505,0.8239871824216607,0.7629510948347615
1539131647347524,0.09155413138023505,0.8239871824216607,0.7629510948347615
1539131647363506,0.2746623941404778,0.7019150072480898,0.8239871824216607
1539131647379488,0.2746623941404778,0.8850232700083325,0.7629510948347615
1539131647395446,0.213626306553806,1.1902037079423735,0.7629510948347615
1539131647411428,0.15259021896690683,1.1291676203554744,0.8239871824216607
1539131647427410,0.15259021896690683,0.8850232700083325,0.6408789196611906
1539131647443391,0.2746623941404778,0.45777065690094787,0.5188067444876197
1539131647459373,0.45777065690094787,0.09155413138023505,0.45777065690094787
1539131647475355,0.33569848172737693,-0.09155413138023505,0.33569848172737693
1539131647491336,0.3967345693140487,-0.03051804379333589,0.33569848172737693
1539131647507318,0.213626306553806,0.2746623941404778,0.5188067444876197
1539131647523300,0.2746623941404778,0.33569848172737693,0.7629510948347615
1539131647539281,0.2746623941404778,0.45777065690094787,0.8239871824216607
1539131647555263,0.3967345693140487,0.45777065690094787,0.8850232700083325
1539131647571245,0.5188067444876197,0.45777065690094787,0.8850232700083325
1539131647587226,0.45777065690094787,0.3967345693140487,0.7629510948347615
1539131647603208,0.33569848172737693,0.33569848172737693,0.8239871824216607
1539131647619190,0.33569848172737693,0.09155413138023505,0.7019150072480898
1539131647635172,0.45777065690094787,-0.213626306553806,0.6408789196611906
1539131647651153,0.5188067444876197,-0.45777065690094787,0.5798428320745188
1539131647667135,0.6408789196611906,-0.7629510948347615,0.3967345693140487
1539131647683117,0.5798428320745188,-0.8239871824216607,0.33569848172737693
1539131647699098,0.5798428320745188,-0.8850232700083325,0.33569848172737693
1539131647715026,0.6408789196611906,-0.7629510948347615,0.5188067444876197
1539131647731008,0.6408789196611906,-0.7019150072480898,0.5188067444876197
1539131647746989,0.5188067444876197,-0.5798428320745188,0.5798428320745188
1539131647762970,0.45777065690094787,-0.7019150072480898,0.6408789196611906
1539131647778951,0.45777065690094787,-0.7629510948347615,0.5798428320745188
1539131647794932,0.45777065690094787,-0.7629510948347615,0.3967345693140487
1539131647810914,0.5188067444876197,-0.7019150072480898,0.3967345693140487
1539131647826895,0.6408789196611906,-1.5564202334630863,0.2746623941404778
1539131647842876,0.8239871824216607,-1.6784924086366573,0.3967345693140487
1539131647858857,0.45777065690094787,-0.6408789196611906,0.6408789196611906
1539131647874838,0.213626306553806,-0.15259021896690683,0.9460593575952316
1539131647890820,0.2746623941404778,0.03051804379333589,0.8239871824216607
1539131647906801,0.5798428320745188,0.09155413138023505,0.5188067444876197
1539131647922782,0.3967345693140487,0.09155413138023505,0.5798428320745188
1539131647938763,0.15259021896690683,-0.03051804379333589,0.7019150072480898
1539131647954744,0.213626306553806,-0.3967345693140487,0.7019150072480898
1539131647970726,0.3967345693140487,-0.7019150072480898,0.5798428320745188
1539131647986707,0.6408789196611906,-0.5798428320745188,0.3967345693140487
1539131648002688,0.5798428320745188,-0.45777065690094787,0.6408789196611906
1539131648018669,0.5188067444876197,-0.15259021896690683,0.8850232700083325
1539131648034668,0.3967345693140487,0.03051804379333589,0.9460593575952316
1539131648050649,0.45777065690094787,-0.03051804379333589,0.8239871824216607
1539131648066630,0.45777065690094787,-0.09155413138023505,0.5798428320745188
1539131648082611,0.5798428320745188,-0.09155413138023505,0.5188067444876197
1539131648098592,0.45777065690094787,0.09155413138023505,0.5798428320745188
1539131648114574,0.3967345693140487,0.2746623941404778,0.7019150072480898
1539131648130555,0.33569848172737693,0.33569848172737693,0.8239871824216607
1539131648146536,0.33569848172737693,0.33569848172737693,0.8850232700083325
1539131648162517,0.2746623941404778,0.213626306553806,0.7629510948347615
1539131648178498,0.2746623941404778,0.03051804379333589,0.7019150072480898
1539131648194480,0.3967345693140487,-0.15259021896690683,0.5798428320745188
1539131648210461,0.33569848172737693,-0.3967345693140487,0.3967345693140487
1539131648226442,0.3967345693140487,-0.45777065690094787,0.3967345693140487
1539131648242423,0.45777065690094787,-0.3967345693140487,0.3967345693140487
1539131648258404,0.45777065690094787,-0.15259021896690683,0.5798428320745188
1539131648274386,0.2746623941404778,0.03051804379333589,0.6408789196611906
1539131648290367,0.5188067444876197,-0.09155413138023505,0.5798428320745188
1539131648306348,0.45777065690094787,-0.15259021896690683,0.5188067444876197
1539131648322329,0.5188067444876197,-0.33569848172737693,0.5798428320745188
1539131648338310,0.5188067444876197,-0.5188067444876197,0.5798428320745188
1539131648354248,0.33569848172737693,-0.5798428320745188,0.5798428320745188
1539131648370229,0.3967345693140487,-0.7019150072480898,0.45777065690094787
1539131648386210,0.5188067444876197,-0.8239871824216607,0.45777065690094787
1539131648402191,0.5188067444876197,-0.7629510948347615,0.45777065690094787
1539131648418172,0.3967345693140487,-0.6408789196611906,0.3967345693140487
1539131648434154,0.5188067444876197,-0.5798428320745188,0.3967345693140487
1539131648450135,0.33569848172737693,-0.8239871824216607,0.33569848172737693
1539131648466116,0.6408789196611906,-1.2512397955290453,0.33569848172737693
1539131648482097,0.5798428320745188,-1.4343480582895154,0.45777065690094787
1539131648498078,0.3967345693140487,-0.9460593575952316,0.45777065690094787
1539131648514060,0.213626306553806,-0.5188067444876197,0.45777065690094787
1539131648530041,0.09155413138023505,-0.2746623941404778,0.3967345693140487
1539131648546022,0.213626306553806,-0.213626306553806,0.3967345693140487
1539131648562003,0.213626306553806,-0.15259021896690683,0.45777065690094787
1539131648577984,0.2746623941404778,-0.09155413138023505,0.5188067444876197
1539131648593966,0.2746623941404778,-0.03051804379333589,0.5188067444876197
1539131648609947,0.33569848172737693,0.213626306553806,0.5188067444876197
1539131648625928,0.33569848172737693,0.5188067444876197,0.6408789196611906
1539131648641909,0.15259021896690683,0.7019150072480898,0.7019150072480898
1539131648657890,0.213626306553806,0.6408789196611906,0.8239871824216607
1539131648673858,0.15259021896690683,0.3967345693140487,0.7629510948347615
1539131648689839,0.2746623941404778,0.2746623941404778,0.6408789196611906
1539131648705821,0.33569848172737693,0.2746623941404778,0.5188067444876197
1539131648721802,0.33569848172737693,0.33569848172737693,0.45777065690094787
1539131648737783,0.213626306553806,0.3967345693140487,0.45777065690094787
1539131648753764,0.213626306553806,0.15259021896690683,0.3967345693140487
1539131648769745,0.213626306553806,0.03051804379333589,0.45777065690094787
1539131648785727,0.33569848172737693,-0.03051804379333589,0.45777065690094787
1539131648801708,0.33569848172737693,0.03051804379333589,0.45777065690094787
1539131648817689,0.15259021896690683,0.09155413138023505,0.5188067444876197
1539131648833670,0.213626306553806,0.09155413138023505,0.3967345693140487
1539131648849651,0.15259021896690683,0.03051804379333589,0.3967345693140487
1539131648865633,0.2746623941404778,-0.15259021896690683,0.2746623941404778
1539131648881614,0.2746623941404778,-0.15259021896690683,0.213626306553806
1539131648897595,0.213626306553806,-0.213626306553806,0.2746623941404778
1539131648913576,0.2746623941404778,-0.213626306553806,0.33569848172737693
1539131648929557,0.213626306553806,-0.03051804379333589,0.45777065690094787
1539131648945539,0.33569848172737693,0.03051804379333589,0.5188067444876197
1539131648961520,0.15259021896690683,0.213626306553806,0.5188067444876197
1539131648977501,0.2746623941404778,0.213626306553806,0.45777065690094787
1539131648993469,0.09155413138023505,0.15259021896690683,0.5188067444876197
1539131649009450,0.15259021896690683,0.15259021896690683,0.45777065690094787
1539131649025431,0.213626306553806,0.09155413138023505,0.3967345693140487
1539131649041412,0.213626306553806,-0.03051804379333589,0.45777065690094787
1539131649057394,0.09155413138023505,-0.09155413138023505,0.45777065690094787
1539131649073375,0.213626306553806,0.03051804379333589,0.5188067444876197
1539131649089356,0.15259021896690683,0.15259021896690683,0.45777065690094787
1539131649105337,0.213626306553806,0.09155413138023505,0.5188067444876197
1539131649121318,0.33569848172737693,-0.33569848172737693,0.5188067444876197
1539131649137300,0.2746623941404778,-0.5188067444876197,0.5188067444876197
1539131649153281,0.33569848172737693,-0.213626306553806,0.5188067444876197
1539131649169262,0.2746623941404778,0.09155413138023505,0.45777065690094787
1539131649185243,0.2746623941404778,0.33569848172737693,0.5188067444876197
1539131649201224,0.15259021896690683,0.45777065690094787,0.5188067444876197
1539131649217206,0.15259021896690683,0.3967345693140487,0.45777065690094787
1539131649233187,0.2746623941404778,0.2746623941404778,0.45777065690094787
1539131649249168,0.33569848172737693,0.213626306553806,0.5188067444876197
1539131649265149,0.2746623941404778,0.3967345693140487,0.5798428320745188
1539131649281130,0.2746623941404778,0.3967345693140487,0.5798428320745188
1539131649297112,0.15259021896690683,0.2746623941404778,0.5798428320745188
1539131649313049,0.3967345693140487,0.09155413138023505,0.5188067444876197
1539131649329030,0.33569848172737693,-0.09155413138023505,0.45777065690094787
1539131649345010,0.45777065690094787,0.03051804379333589,0.3967345693140487
1539131649360991,0.45777065690094787,0.2746623941404778,0.3967345693140487
1539131649376972,0.3967345693140487,0.7019150072480898,0.5188067444876197
1539131649392953,0.2746623941404778,1.1291676203554744,0.6408789196611906
1539131649408933,0.213626306553806,1.1902037079423735,0.7019150072480898
1539131649424914,0.03051804379333589,1.0681315327688026,0.7019150072480898
1539131649440895,-0.03051804379333589,0.6408789196611906,0.45777065690094787
1539131649456875,0.09155413138023505,0.15259021896690683,0.33569848172737693
1539131649472856,0.09155413138023505,0.03051804379333589,0.15259021896690683
1539131649488837,0.15259021896690683,0.03051804379333589,0.09155413138023505
1539131649504818,0.15259021896690683,0.213626306553806,0.2746623941404778
1539131649520798,0.15259021896690683,0.45777065690094787,0.3967345693140487
1539131649536779,0.213626306553806,0.6408789196611906,0.6408789196611906
1539131649552760,0.213626306553806,0.7629510948347615,0.9460593575952316
1539131649568740,0.09155413138023505,0.6408789196611906,0.9460593575952316
1539131649584721,0.09155413138023505,0.2746623941404778,0.7629510948347615
1539131649600702,0.09155413138023505,-0.03051804379333589,0.5188067444876197
1539131649616683,0.213626306553806,-0.15259021896690683,0.33569848172737693
1539131649632660,0.15259021896690683,-0.2746623941404778,0.2746623941404778
1539131649648640,0.33569848172737693,-0.33569848172737693,0.15259021896690683
1539131649664621,0.33569848172737693,-0.33569848172737693,0.213626306553806
1539131649680602,0.45777065690094787,-0.15259021896690683,0.3967345693140487
1539131649696582,0.33569848172737693,0.03051804379333589,0.5188067444876197
1539131649712563,0.213626306553806,-0.213626306553806,0.5188067444876197
1539131649728544,0.3967345693140487,-0.6408789196611906,0.5188067444876197
1539131649744525,0.45777065690094787,-1.0681315327688026,0.3967345693140487
1539131649760505,0.3967345693140487,-1.1902037079423735,0.2746623941404778
1539131649776486,0.45777065690094787,-1.1291676203554744,0.15259021896690683
1539131649792467,0.45777065690094787,-0.9460593575952316,0.213626306553806
1539131649808447,0.3967345693140487,-0.9460593575952316,0.3967345693140487
1539131649824428,0.3967345693140487,-0.5798428320745188,0.5798428320745188
1539131649840409,0.5798428320745188,0.03051804379333589,0.7019150072480898
1539131649856390,0.7019150072480898,0.2746623941404778,0.7019150072480898
1539131649872370,0.6408789196611906,0.03051804379333589,0.5798428320745188
1539131649888351,0.7629510948347615,-0.33569848172737693,0.3967345693140487
1539131649904332,0.8239871824216607,-0.5188067444876197,0.213626306553806
1539131649920313,0.8850232700083325,-0.6408789196611906,0.09155413138023505
1539131649936293,0.6408789196611906,-0.6408789196611906,-0.03051804379333589
1539131649952240,0.45777065690094787,-0.8239871824216607,-0.03051804379333589
1539131649968220,0.45777065690094787,-0.8850232700083325,0.15259021896690683
1539131649984201,0.33569848172737693,-0.45777065690094787,0.45777065690094787
1539131650000182,0.2746623941404778,0.3967345693140487,0.7019150072480898
1539131650016162,0.15259021896690683,0.9460593575952316,0.8239871824216607
1539131650032143,-0.09155413138023505,1.3122758831159445,0.8239871824216607
1539131650048124,-0.15259021896690683,1.1291676203554744,0.8239871824216607
1539131650064105,-0.09155413138023505,0.7019150072480898,0.6408789196611906
1539131650080085,0.15259021896690683,0.45777065690094787,0.33569848172737693
1539131650096066,0.6408789196611906,0.2746623941404778,-0.03051804379333589
1539131650112047,0.3967345693140487,-0.3967345693140487,-0.09155413138023505
1539131650128028,0.45777065690094787,-1.3122758831159445,0.03051804379333589
1539131650144008,1.0681315327688026,-2.227817196917613,0.2746623941404778
1539131650159989,1.1291676203554744,-2.8381780727854675,0.213626306553806
1539131650175970,0.9460593575952316,-3.3264667734797513,-0.03051804379333589
1539131650191950,0.7629510948347615,-3.3875028610666504,-0.3967345693140487
1539131650207931,0.3967345693140487,-3.0212863355459376,-0.6408789196611906
1539131650223912,0.3967345693140487,-2.532997634851654,-0.7019150072480898
1539131650239893,0.45777065690094787,-1.9226367589837992,-0.6408789196611906
1539131650255873,0.3967345693140487,-1.1902037079423735,-0.45777065690094787
1539131650271850,0.09155413138023505,-0.3967345693140487,-0.09155413138023505
1539131650287831,-0.2746623941404778,0.33569848172737693,0.15259021896690683
1539131650303812,-0.2746623941404778,0.8850232700083325,0.33569848172737693
1539131650319792,-0.2746623941404778,0.8239871824216607,0.33569848172737693
1539131650335773,-0.15259021896690683,-0.45777065690094787,0.33569848172737693
1539131650351754,0.15259021896690683,-2.410925459678083,0.33569848172737693
1539131650367735,0.8239871824216607,-4.364080262455218,0.09155413138023505
1539131650383715,1.0070954451819034,-5.706874189364498,-0.2746623941404778
1539131650399696,0.8239871824216607,-6.073090714885211,-0.8850232700083325
1539131650415677,0.3967345693140487,-5.828946364538069,-1.3733119707026162
1539131650431657,0.09155413138023505,-5.3406576638437855,-1.8005645838102282
1539131650447638,0.15259021896690683,-4.60822461280236,-1.739528496223329
1539131650463619,0.33569848172737693,-3.692683299000464,-1.3122758831159445
1539131650479600,0.213626306553806,-2.7771419851987957,-0.6408789196611906
1539131650495580,0.03051804379333589,-1.3733119707026162,-0.09155413138023505
1539131650511561,-0.15259021896690683,-0.213626306553806,0.213626306553806
1539131650527542,0.03051804379333589,-0.7629510948347615,0.33569848172737693
1539131650543522,-0.03051804379333589,-3.2654306858930795,0.5188067444876197
1539131650559503,0.33569848172737693,-6.744487678339738,0.33569848172737693
1539131650575484,0.5798428320745188,-10.101472495613052,-0.45777065690094787
1539131650591430,1.1291676203554744,-11.749446860456146,-1.4953841458761872
1539131650607411,1.0070954451819034,-12.4208438239109,-2.7161058976118966
1539131650623392,0.45777065690094787,-12.054627298390187,-3.7537193865873633
1539131650639372,-0.15259021896690683,-10.711833371480907,-3.936827649347606
1539131650655353,-0.5188067444876197,-8.45349813076973,-3.5095750362402214
1539131650671334,-0.8239871824216607,-5.828946364538069,-2.5940337224383256
1539131650687315,-1.2512397955290453,-3.0212863355459376,-1.3122758831159445
1539131650703295,-1.6174563210497581,-0.2746623941404778,0.15259021896690683
1539131650719276,-2.105745021744042,1.3733119707026162,1.1291676203554744
1539131650735257,-3.2654306858930795,1.3733119707026162,2.288853284504512
1539131650751237,-3.570611123826893,-0.45777065690094787,2.9602502479590385
1539131650767218,-2.655069810025225,-3.936827649347606,2.532997634851654
1539131650783199,-0.8850232700083325,-7.904173342488775,1.3122758831159445
1539131650799180,-0.15259021896690683,-9.979400320439481,0.09155413138023505
1539131650815160,-0.5188067444876197,-10.955977721828049,-1.1291676203554744
1539131650831141,-0.7019150072480898,-11.261158159761862,-2.105745021744042
1539131650847122,-0.9460593575952316,-9.918364232852582,-2.04470893415737
1539131650863103,-1.1291676203554744,-7.843137254901876,-0.8239871824216607
1539131650879083,-1.0070954451819034,-5.401693751430457,0.8850232700083325
1539131650895064,-0.15259021896690683,-3.4485389486533222,2.5940337224383256
1539131650911041,-0.3967345693140487,-1.6174563210497581,3.5095750362402214
1539131650927022,-1.2512397955290453,-0.9460593575952316,3.4485389486533222
1539131650943002,-1.4953841458761872,-0.7629510948347615,3.0823224231326094
1539131650958983,-1.0681315327688026,-0.33569848172737693,3.3875028610666504
1539131650974964,-0.3967345693140487,0.03051804379333589,4.180971999694748
1539131650990944,0.5188067444876197,0.45777065690094787,4.730296787975931
1539131651006925,0.6408789196611906,1.5564202334630863,5.157549401083315
1539131651022906,0.5798428320745188,2.7161058976118966,5.0354772259097444
1539131651038887,0.3967345693140487,4.119935912108076,4.730296787975931
1539131651054867,0.03051804379333589,5.096513313496644,4.242008087281647
1539131651070848,-0.09155413138023505,5.401693751430457,3.814755474174035
1539131651086829,-0.03051804379333589,4.974441138323073,3.3875028610666504
1539131651102810,-0.09155413138023505,3.5095750362402214,2.9602502479590385
1539131651118790,0.03051804379333589,1.739528496223329,2.288853284504512
1539131651134771,0.33569848172737693,0.8239871824216607,2.3498893720911838
1539131651150752,0.33569848172737693,0.09155413138023505,3.0212863355459376
1539131651166732,0.5188067444876197,-0.5798428320745188,3.4485389486533222
1539131651182713,0.7629510948347615,-1.6784924086366573,3.3875028610666504
1539131651198694,1.1291676203554744,-2.655069810025225,2.7161058976118966
1539131651214675,1.8005645838102282,-3.3264667734797513,1.6784924086366573
1539131651230621,2.410925459678083,-3.875791561760934,0.7629510948347615
1539131651246601,2.288853284504512,-4.303044174868319,-0.15259021896690683
1539131651262581,2.288853284504512,-4.9134050507361735,-0.8850232700083325
1539131651278562,1.8005645838102282,-5.645838101777599,-1.4343480582895154
1539131651294542,1.9226367589837992,-6.012054627298312,-1.4343480582895154
1539131651310522,1.739528496223329,-5.889982452124741,-0.5798428320745188
1539131651326502,1.4953841458761872,-5.706874189364498,0.213626306553806
1539131651342483,1.3122758831159445,-5.706874189364498,0.7629510948347615
1539131651358463,1.1291676203554744,-5.76791027695117,0.7019150072480898
1539131651374443,0.8850232700083325,-6.073090714885211,0.213626306553806
1539131651390423,0.8239871824216607,-6.500343327992596,-0.3967345693140487
1539131651406404,0.7629510948347615,-7.354848554207592,-1.1902037079423735
1539131651422384,0.7629510948347615,-8.026245517662346,-1.6784924086366573
1539131651438364,0.6408789196611906,-8.209353780422589,-1.6174563210497581
1539131651454344,0.5188067444876197,-7.965209430075447,-1.1291676203554744
1539131651470325,0.3967345693140487,-7.782101167315204,-0.5798428320745188
1539131651486305,0.15259021896690683,-7.721065079728305,-0.3967345693140487
1539131651502285,0.15259021896690683,-7.965209430075447,-0.5798428320745188
1539131651518265,0.2746623941404778,-8.392462043183059,-1.0681315327688026
1539131651534246,0.5188067444876197,-8.758678568703772,-1.739528496223329
1539131651550262,0.5798428320745188,-9.002822919050914,-2.166781109330941
1539131651566243,0.45777065690094787,-9.369039444571627,-2.04470893415737
1539131651582224,0.3967345693140487,-9.55214770733187,-1.8005645838102282
1539131651598204,0.3967345693140487,-9.55214770733187,-1.6174563210497581
1539131651614185,0.3967345693140487,-9.491111619745197,-1.6784924086366573
1539131651630166,0.2746623941404778,-9.613183794918768,-1.8616006713969
1539131651646146,0.3967345693140487,-9.73525597009234,-2.04470893415737
1539131651662127,0.45777065690094787,-9.73525597009234,-2.166781109330941
1539131651678108,0.45777065690094787,-9.185931181811156,-2.227817196917613
1539131651694089,0.33569848172737693,-9.002822919050914,-2.227817196917613
1539131651710069,0.5188067444876197,-9.369039444571627,-2.105745021744042
1539131651726050,0.45777065690094787,-8.270389868009488,-1.6784924086366573
1539131651742031,0.2746623941404778,-7.11070420386045,-1.2512397955290453
1539131651758011,0.213626306553806,-6.683451590753066,-1.0681315327688026
1539131651773992,0.2746623941404778,-6.561379415579495,-1.0681315327688026
1539131651789973,0.3967345693140487,-6.622415503166167,-1.0070954451819034
1539131651805954,0.7019150072480898,-6.378271152819025,-0.8850232700083325
1539131651821934,0.5798428320745188,-5.584802014190927,-0.7019150072480898
1539131651837915,0.33569848172737693,-5.279621576256886,-0.6408789196611906
1539131651853896,0.33569848172737693,-5.462729839017356,-0.5798428320745188
1539131651869812,0.33569848172737693,-5.706874189364498,-0.5798428320745188
1539131651885792,0.45777065690094787,-5.889982452124741,-0.5188067444876197
1539131651901772,0.33569848172737693,-5.706874189364498,-0.5188067444876197
1539131651917752,0.3967345693140487,-5.76791027695117,-0.5188067444876197
1539131651933733,0.5188067444876197,-5.462729839017356,-0.5188067444876197
1539131651949713,0.33569848172737693,-4.42511635004189,-0.213626306553806
1539131651965693,0.213626306553806,-3.0212863355459376,0.33569848172737693
1539131651981673,0.03051804379333589,-2.227817196917613,0.7629510948347615
1539131651997654,0.09155413138023505,-1.3733119707026162,1.1291676203554744
1539131652013634,0.15259021896690683,-0.45777065690094787,1.2512397955290453
1539131652029614,0.213626306553806,0.6408789196611906,1.3122758831159445
1539131652045594,0.15259021896690683,1.4343480582895154,1.3122758831159445
1539131652061575,0.03051804379333589,2.105745021744042,1.4343480582895154
1539131652077555,0.03051804379333589,2.4719615472647547,1.8005645838102282
1539131652093535,0.09155413138023505,2.288853284504512,2.04470893415737
1539131652109515,0.33569848172737693,2.04470893415737,2.105745021744042
1539131652125496,0.09155413138023505,1.739528496223329,1.8005645838102282
1539131652141476,0.213626306553806,1.5564202334630863,1.3733119707026162
1539131652157456,0.2746623941404778,2.04470893415737,1.3122758831159445
1539131652173436,0.33569848172737693,3.1433585107195086,1.6784924086366573
1539131652189422,0.5188067444876197,4.669260700389032,2.166781109330941
1539131652205402,0.3967345693140487,6.317235065232353,2.532997634851654
1539131652221383,0.03051804379333589,6.439307240405924,2.655069810025225
1539131652237363,0.213626306553806,5.828946364538069,2.532997634851654
1539131652253343,0.3967345693140487,4.9134050507361735,2.166781109330941
1539131652269323,0.33569848172737693,3.875791561760934,1.8005645838102282
1539131652285304,0.3967345693140487,2.8992141603723667,1.1291676203554744
1539131652301284,0.2746623941404778,2.532997634851654,0.5798428320745188
1539131652317264,0.45777065690094787,2.9602502479590385,0.45777065690094787
1539131652333244,0.5798428320745188,3.875791561760934,0.5798428320745188
1539131652349225,0.7019150072480898,4.852368963149502,0.8239871824216607
1539131652365205,0.45777065690094787,5.584802014190927,1.1902037079423735
1539131652381185,0.15259021896690683,5.645838101777599,1.4953841458761872
1539131652397165,0.09155413138023505,5.2185854886702145,1.4343480582895154
1539131652413146,0.09155413138023505,3.875791561760934,1.0681315327688026
1539131652429126,0.33569848172737693,2.04470893415737,0.3967345693140487
1539131652445106,0.45777065690094787,0.7019150072480898,-0.33569848172737693
1539131652461086,0.5188067444876197,0.03051804379333589,-0.8850232700083325
1539131652477067,0.5798428320745188,0.03051804379333589,-1.0070954451819034
1539131652493047,0.5188067444876197,0.45777065690094787,-0.9460593575952316
1539131652508972,0.45777065690094787,1.2512397955290453,-0.7019150072480898
1539131652524952,0.45777065690094787,2.288853284504512,-0.213626306553806
1539131652540932,0.3967345693140487,3.2654306858930795,0.15259021896690683
1539131652556913,0.2746623941404778,3.692683299000464,0.45777065690094787
1539131652572893,0.15259021896690683,3.814755474174035,0.45777065690094787
1539131652588873,0.15259021896690683,3.5095750362402214,0.2746623941404778
1539131652604853,0.03051804379333589,2.9602502479590385,-0.03051804379333589
1539131652620833,-0.03051804379333589,2.04470893415737,-0.33569848172737693
1539131652636814,0.03051804379333589,1.0070954451819034,-0.5188067444876197
1539131652652794,0.15259021896690683,0.6408789196611906,-0.45777065690094787
1539131652668774,0.15259021896690683,0.8850232700083325,-0.2746623941404778
1539131652684754,0.03051804379333589,1.6174563210497581,0.09155413138023505
1539131652700735,-0.2746623941404778,2.532997634851654,0.33569848172737693
1539131652716715,-0.15259021896690683,3.3875028610666504,0.5188067444876197
1539131652732695,-0.5188067444876197,3.875791561760934,0.7019150072480898
1539131652748675,-0.3967345693140487,3.6316472114137923,0.7629510948347615
1539131652764656,-0.15259021896690683,3.0212863355459376,0.7629510948347615
1539131652780636,0.03051804379333589,2.5940337224383256,0.6408789196611906
1539131652796616,0.213626306553806,2.410925459678083,0.6408789196611906
1539131652812596,0.2746623941404778,2.5940337224383256,0.6408789196611906
1539131652828582,0.33569848172737693,3.3875028610666504,0.8850232700083325
1539131652844563,0.213626306553806,4.42511635004189,1.3733119707026162
1539131652860543,0.15259021896690683,5.889982452124741,1.9226367589837992
1539131652876523,-0.03051804379333589,7.843137254901876,2.5940337224383256
1539131652892503,0.213626306553806,10.101472495613052,3.2654306858930795
1539131652908484,0.09155413138023505,12.909132524605184,3.997863736934505
1539131652924464,-0.8239871824216607,14.679179064621849,4.058899824521177
1539131652940444,-1.0681315327688026,16.26611734187827,3.692683299000464
1539131652956424,-1.0681315327688026,18.76859693293659,3.7537193865873633
1539131652972405,-0.6408789196611906,21.51522087434182,4.730296787975931
1539131652988385,-1.0681315327688026,24.26184481574728,5.95101853971164
1539131653004365,-0.7629510948347615,26.6422522316318,6.9886320286868795
1539131653020345,-0.5188067444876197,28.290226596475122,7.904173342488775
1539131653036326,-0.5188067444876197,29.938200961318216,8.33142595559616
1539131653052306,0.33569848172737693,32.379644464789635,9.124895094224485
1539131653068286,1.1291676203554744,37.07942320897223,10.162508583199724
1539131653084266,0.8239871824216607,43.24406805523745,11.383230334935433
1539131653100247,-3.4485389486533222,47.27244983596529,11.566338597695903
1539131653116227,-5.462729839017356,49.2866407263291,11.566338597695903
1539131653132207,-3.936827649347606,51.23979552910623,13.092240787365427
1539131653148162,-1.0681315327688026,55.32921339742097,14.190890363927565
1539131653164143,-1.8616006713969,59.60173952849618,14.251926451514464
1539131653180123,-8.51453421835663,62.10421911955427,10.772869459067579
1539131653196103,-12.542915999084471,61.310749980926175,8.575570305943302
1539131653212083,-3.936827649347606,59.296559090561914,11.871519035629717
1539131653228064,1.8616006713969,61.79903868162046,11.566338597695903
1539131653244044,3.7537193865873633,66.62088960097662,11.261158159761862
1539131653260024,-6.8665598535133086,69.48958571755566,8.087281605249018
1539131653276004,-11.261158159761862,67.53643091477852,6.8665598535133086
1539131653291985,-8.575570305943302,62.714579995422355,7.4158846417944915
1539131653307965,1.3733119707026162,61.00556954299191,7.2938124666209205
1539131653323945,0.8239871824216607,62.0431830319676,5.523765926604028
1539131653339925,-5.645838101777599,61.67696650644666,3.1433585107195086
1539131653355906,-4.9134050507361735,56.73304341191715,0.213626306553806
1539131653371886,2.166781109330941,51.911192492560986,-3.0823224231326094
1539131653387866,7.354848554207592,50.873579003585746,-4.180971999694748
1539131653403846,10.467689021133765,57.09925993743764,-3.3875028610666504
1539131653419827,7.782101167315204,68.8181887541009,-0.9460593575952316
1539131653435807,-3.4485389486533222,80.04882887006943,0.3967345693140487
1539131653451787,-19.501029983978015,86.15243762874798,0.03051804379333589
1539131653467773,-26.092927443350845,81.5747310597394,0.6408789196611906
1539131653483753,-21.14900434882111,73.82314793621754,-0.7019150072480898
1539131653499734,-20.904859998473967,65.94949263752233,-3.2043945983061803
1539131653515714,-21.087968261234437,57.28236820019811,-9.613183794918768
1539131653531694,-33.844510566872714,46.41794460975029,-14.435034714274707
1539131653547674,-44.647898069733856,35.61455710688938,-20.843823910887295
1539131653563655,-45.38033112077528,28.412298771648693,-41.59609369039458
1539131653579635,-33.844510566872714,13.76363775082018,-66.07156481269544
1539131653595615,-47.27244983596552,5.279621576256886,-96.6506446936753
1539131653611595,-76.81391622796968,3.4485389486533222,-123.81170366979472
1539131653627575,-99.39726863508054,-1.3122758831159445,-149.9961852445258
1539131653643556,-121.06507972838949,-7.049668116273779,-158.66330968184957
1539131653659536,-136.1409933623254,-13.031204699778755,-150.91172655832747
1539131653675516,-132.53986419470516,-23.102159151598244,-138.277256427863
1539131653691496,-110.26169222552835,-44.464789806973386,-113.4966048676281
1539131653707477,-76.81391622796968,-65.0339513237202,-78.82810711833372
1539131653723457,-10.650797283894008,-68.51300831616686,-34.3938353551539
1539131653739437,65.27809567406757,-58.808270389868085,-5.157549401083315
1539131653755417,65.27809567406757,-39.276722362096734,0.5188067444876197
1539131653771398,21.087968261234437,-21.45418478675515,-1.983672846570471
1539131653787384,-15.777828641183987,-16.44922560463874,0.45777065690094787
1539131653803364,-23.285267414358714,-13.885709925993751,6.622415503166167
1539131653819344,-10.345616845960194,-5.889982452124741,10.162508583199724
1539131653835324,6.012054627298312,-0.9460593575952316,15.045395590142562
1539131653851305,14.679179064621849,-1.4343480582895154,18.097199969481835
1539131653867285,19.1348134584573,-1.6174563210497581,17.914091706721592
1539131653883265,19.317921721217544,-0.6408789196611906,15.167467765316132
1539131653899245,14.496070801861606,0.8850232700083325,11.505302510109004
1539131653915226,6.744487678339738,1.1291676203554744,8.697642481116873
1539131653931206,1.8005645838102282,0.3967345693140487,6.927595941100208
1539131653947186,2.288853284504512,-0.2746623941404778,6.073090714885211
1539131653963166,4.364080262455218,-0.8239871824216607,5.95101853971164
1539131653979147,5.584802014190927,-1.4953841458761872,6.134126802471883
1539131653995127,6.378271152819025,-1.8005645838102282,5.706874189364498
1539131654011107,6.622415503166167,-2.3498893720911838,4.974441138323073
1539131654027087,6.378271152819025,-2.3498893720911838,3.814755474174035
1539131654043068,6.317235065232353,-1.6174563210497581,3.2654306858930795
1539131654059048,5.3406576638437855,-0.7629510948347615,3.4485389486533222
1539131654075028,3.814755474174035,0.15259021896690683,3.814755474174035
1539131654091008,2.5940337224383256,0.7629510948347615,3.875791561760934
1539131654106964,2.105745021744042,1.2512397955290453,3.936827649347606
1539131654122944,1.2512397955290453,1.1291676203554744,3.692683299000464
1539131654138924,-0.03051804379333589,0.33569848172737693,3.0823224231326094
1539131654154904,-1.4343480582895154,-1.3122758831159445,2.166781109330941
1539131654170885,-1.8005645838102282,-3.5095750362402214,0.9460593575952316
1539131654186865,-1.4953841458761872,-6.012054627298312,-0.09155413138023505
1539131654202845,-1.1291676203554744,-7.843137254901876,-1.0070954451819034
1539131654218825,-0.15259021896690683,-9.185931181811156,-1.6784924086366573
1539131654234806,0.9460593575952316,-10.162508583199724,-2.166781109330941
1539131654250786,1.3122758831159445,-11.20012207217519,-2.105745021744042
1539131654266766,1.3733119707026162,-11.444266422522333,-1.8005645838102282
1539131654282746,1.4953841458761872,-11.810482948043045,-1.1902037079423735
1539131654298727,1.6174563210497581,-12.054627298390187,-0.5798428320745188
1539131654314707,2.7161058976118966,-11.322194247348762,-0.15259021896690683
1539131654330687,3.2654306858930795,-9.796292057679011,0.03051804379333589
1539131654346667,3.2654306858930795,-8.819714656290444,0.09155413138023505
1539131654362648,2.532997634851654,-8.819714656290444,0.213626306553806
1539131654378628,1.739528496223329,-9.55214770733187,0.15259021896690683
1539131654394608,0.5798428320745188,-10.711833371480907,-0.03051804379333589
1539131654410588,-0.45777065690094787,-12.4208438239109,-0.6408789196611906
1539131654426574,-1.5564202334630863,-15.045395590142562,-1.6174563210497581
1539131654442555,-1.983672846570471,-18.82963302052326,-2.7161058976118966
1539131654458535,-2.105745021744042,-22.73594262607753,-4.058899824521177
1539131654474515,-0.9460593575952316,-25.787747005416804,-5.584802014190927
1539131654490495,2.105745021744042,-27.313649195086555,-7.17174029144735
1539131654506476,4.242008087281647,-27.374685282673227,-8.270389868009488
1539131654522456,4.974441138323073,-26.459143968871558,-8.575570305943302
1539131654538436,5.0354772259097444,-25.116350041962278,-7.904173342488775
1539131654554416,3.7537193865873633,-23.590447852292527,-6.744487678339738
1539131654570397,2.4719615472647547,-21.942473487449433,-5.3406576638437855
1539131654586377,2.166781109330941,-19.745174334325156,-3.814755474174035
1539131654602357,2.655069810025225,-17.730983443961122,-2.5940337224383256
1539131654618337,1.983672846570471,-15.960936903944457,-1.9226367589837992
1539131654634317,1.2512397955290453,-14.740215152208748,-1.3733119707026162
1539131654650298,-0.33569848172737693,-13.64156557564661,-0.5798428320745188
1539131654666278,-3.936827649347606,-13.45845731288614,0.03051804379333589
1539131654682258,-5.157549401083315,-14.068818188753994,-0.33569848172737693
1539131654698238,-4.42511635004189,-15.838864728770886,-1.739528496223329
1539131654714219,-2.105745021744042,-18.097199969481835,-3.1433585107195086
1539131654730199,0.03051804379333589,-20.05035477225897,-4.486152437628789
1539131654746154,1.739528496223329,-21.69832913710229,-5.76791027695117
1539131654762134,1.1291676203554744,-23.529411764705856,-6.744487678339738
1539131654778114,-0.09155413138023505,-25.48256656748299,-7.354848554207592
1539131654794094,-0.213626306553806,-26.214999618524416,-7.782101167315204
1539131654810073,0.213626306553806,-26.031891355763946,-8.087281605249018
1539131654826053,1.3122758831159445,-24.872205691615136,-8.33142595559616
1539131654842033,0.213626306553806,-24.383916990920852,-8.51453421835663
1539131654858013,0.03051804379333589,-23.651483939879427,-8.33142595559616
1539131654873993,-0.09155413138023505,-22.49179827573039,-7.965209430075447
1539131654889972,-0.8239871824216607,-22.003509575036105,-7.476920729381163
1539131654905952,-1.8005645838102282,-21.820401312275862,-6.805523765926637
1539131654921932,-2.5940337224383256,-21.820401312275862,-6.439307240405924
1539131654937912,-2.04470893415737,-21.637293049515392,-6.317235065232353
1539131654953891,-1.0681315327688026,-21.27107652399468,-6.378271152819025
1539131654969871,-0.7019150072480898,-21.087968261234437,-6.012054627298312
1539131654985851,-0.7629510948347615,-20.477607385366582,-5.828946364538069
1539131655001831,-0.09155413138023505,-19.684138246738257,-5.645838101777599
1539131655017810,0.5188067444876197,-18.646524757763018,-5.584802014190927
1539131655033790,0.09155413138023505,-17.730983443961122,-5.3406576638437855
1539131655049770,-0.213626306553806,-17.24269474326684,-4.9134050507361735
1539131655065765,-0.5188067444876197,-16.754406042572555,-4.791332875562603
1539131655081745,-0.8850232700083325,-15.899900816357558,-5.096513313496644
1539131655097725,-0.45777065690094787,-14.740215152208748,-5.096513313496644
1539131655113706,-0.8239871824216607,-13.64156557564661,-5.279621576256886
1539131655129686,-0.7629510948347615,-12.664988174258042,-5.096513313496644
1539131655145666,-1.3122758831159445,-12.054627298390187,-4.669260700389032
1539131655161646,-1.3733119707026162,-11.444266422522333,-4.42511635004189
1539131655177627,-1.1902037079423735,-10.711833371480907,-4.119935912108076
1539131655193607,-1.0070954451819034,-10.223544670786623,-3.875791561760934
1539131655209587,-1.0070954451819034,-9.918364232852582,-3.5095750362402214
1539131655225567,-1.2512397955290453,-9.67421988250544,-3.3264667734797513
1539131655241548,-0.6408789196611906,-8.819714656290444,-3.2654306858930795
1539131655257528,-1.3122758831159445,-8.148317692835917,-2.8381780727854675
1539131655273508,-0.9460593575952316,-7.049668116273779,-2.288853284504512
1539131655289488,-0.7019150072480898,-5.889982452124741,-1.3733119707026162
1539131655305469,-2.410925459678083,-6.378271152819025,-0.8850232700083325
1539131655321449,-1.9226367589837992,-7.721065079728305,-1.1902037079423735
1539131655337429,-0.9460593575952316,-8.819714656290444,-2.3498893720911838
1539131655353409,0.45777065690094787,-8.45349813076973,-3.2043945983061803
1539131655369390,0.45777065690094787,-6.9886320286868795,-3.0823224231326094
1539131655385345,-1.4343480582895154,-6.317235065232353,-3.2043945983061803
1539131655401325,-1.4953841458761872,-5.95101853971164,-2.7771419851987957
1539131655417305,-1.4953841458761872,-5.706874189364498,-2.04470893415737
1539131655433284,-1.3733119707026162,-6.073090714885211,-1.2512397955290453
1539131655449264,-1.739528496223329,-7.4158846417944915,-1.3122758831159445
1539131655465244,-0.6408789196611906,-8.575570305943302,-1.983672846570471
1539131655481224,-0.15259021896690683,-9.002822919050914,-2.410925459678083
1539131655497203,0.213626306553806,-8.45349813076973,-2.3498893720911838
1539131655513183,-0.03051804379333589,-7.476920729381163,-1.8005645838102282
1539131655529163,-0.8850232700083325,-6.927595941100208,-1.1902037079423735
1539131655545143,-0.9460593575952316,-6.317235065232353,-0.8239871824216607
1539131655561123,-0.33569848172737693,-5.523765926604028,-0.45777065690094787
1539131655577102,0.3967345693140487,-4.547188525215461,-0.15259021896690683
1539131655593082,0.6408789196611906,-3.570611123826893,-0.03051804379333589
1539131655609062,0.5188067444876197,-2.410925459678083,0.15259021896690683
1539131655625042,0.45777065690094787,-1.0681315327688026,0.5798428320745188
1539131655641021,-0.45777065690094787,0.33569848172737693,1.3122758831159445
1539131655657001,-0.5188067444876197,1.1291676203554744,1.983672846570471
1539131655672981,-1.3733119707026162,0.7019150072480898,1.8005645838102282
1539131655688961,-0.09155413138023505,0.2746623941404778,1.2512397955290453
1539131655704956,0.7019150072480898,0.213626306553806,0.7019150072480898
1539131655720935,0.8850232700083325,0.213626306553806,0.5188067444876197
1539131655736915,-0.03051804379333589,-0.213626306553806,0.15259021896690683
1539131655752895,-0.09155413138023505,-0.9460593575952316,-0.5798428320745188
1539131655768875,0.03051804379333589,-1.2512397955290453,-0.9460593575952316
1539131655784855,0.5188067444876197,-1.2512397955290453,-1.0070954451819034
1539131655800834,0.15259021896690683,-1.4343480582895154,-1.1291676203554744
1539131655816814,0.03051804379333589,-1.5564202334630863,-1.2512397955290453
1539131655832794,-0.213626306553806,-1.5564202334630863,-1.3733119707026162
1539131655848774,-0.09155413138023505,-1.5564202334630863,-1.0681315327688026
1539131655864753,-0.33569848172737693,-1.8616006713969,-0.8850232700083325
1539131655880733,-0.09155413138023505,-2.3498893720911838,-0.8850232700083325
1539131655896713,0.03051804379333589,-2.7161058976118966,-1.0681315327688026
1539131655912693,-0.213626306553806,-3.2043945983061803,-1.3122758831159445
1539131655928672,0.2746623941404778,-3.0823224231326094,-1.5564202334630863
1539131655944652,0.3967345693140487,-2.8381780727854675,-1.6174563210497581
1539131655960632,0.03051804379333589,-2.655069810025225,-1.4953841458761872
1539131655976612,-0.213626306553806,-2.4719615472647547,-1.3733119707026162
1539131655992591,-0.09155413138023505,-2.166781109330941,-1.2512397955290453
1539131656008571,-0.2746623941404778,-1.8616006713969,-0.9460593575952316
1539131656024536,-0.213626306553806,-1.739528496223329,-0.6408789196611906
1539131656040516,-0.5798428320745188,-1.983672846570471,-0.5798428320745188
1539131656056495,-0.45777065690094787,-2.04470893415737,-0.5798428320745188
1539131656072475,-0.7019150072480898,-2.410925459678083,-0.5798428320745188
1539131656088455,-0.5188067444876197,-2.8381780727854675,-0.8850232700083325
1539131656104435,-0.7629510948347615,-3.3875028610666504,-1.3122758831159445
1539131656120414,-0.8850232700083325,-4.058899824521177,-1.9226367589837992
1539131656136394,-1.0070954451819034,-4.730296787975931,-2.532997634851654
1539131656152374,-0.7019150072480898,-5.462729839017356,-2.8992141603723667
1539131656168354,-0.2746623941404778,-5.95101853971164,-3.0212863355459376
1539131656184333,-0.2746623941404778,-6.134126802471883,-3.0212863355459376
1539131656200313,-0.15259021896690683,-6.012054627298312,-3.0823224231326094
1539131656216293,-0.5188067444876197,-5.157549401083315,-2.7161058976118966
1539131656232273,-0.5188067444876197,-3.875791561760934,-2.410925459678083
1539131656248252,-0.5798428320745188,-2.166781109330941,-1.5564202334630863
1539131656264232,-0.7629510948347615,-0.8239871824216607,-0.5188067444876197
1539131656280212,-1.1902037079423735,0.09155413138023505,0.6408789196611906
1539131656296192,-1.1902037079423735,0.45777065690094787,1.4953841458761872
1539131656312172,-0.8239871824216607,0.5798428320745188,1.983672846570471
1539131656328151,-0.8850232700083325,0.33569848172737693,1.8005645838102282
1539131656344146,-0.8239871824216607,-0.45777065690094787,1.1291676203554744
1539131656360126,-0.213626306553806,-1.3733119707026162,0.03051804379333589
1539131656376106,0.09155413138023505,-1.8005645838102282,-0.6408789196611906
1539131656392086,0.213626306553806,-1.739528496223329,-0.6408789196611906
1539131656408065,0.15259021896690683,-0.7629510948347615,-0.03051804379333589
1539131656424045,-0.45777065690094787,0.3967345693140487,0.6408789196611906
1539131656440025,-1.3122758831159445,1.0681315327688026,1.3733119707026162
1539131656456005,-1.2512397955290453,1.2512397955290453,1.6784924086366573
1539131656471984,-1.0070954451819034,1.2512397955290453,1.6784924086366573
1539131656487964,-0.5188067444876197,1.3122758831159445,1.4953841458761872
1539131656503944,-0.7019150072480898,1.5564202334630863,1.1902037079423735
1539131656519924,-0.8850232700083325,1.6174563210497581,0.7629510948347615
1539131656535904,-1.0070954451819034,1.6174563210497581,0.5798428320745188
1539131656551883,-0.9460593575952316,1.2512397955290453,0.5188067444876197
1539131656567863,-0.33569848172737693,0.5188067444876197,0.3967345693140487
1539131656583843,0.2746623941404778,0.15259021896690683,0.33569848172737693
1539131656599823,0.213626306553806,0.45777065690094787,0.3967345693140487
1539131656615802,0.03051804379333589,0.8850232700083325,0.7019150072480898
1539131656631782,-0.33569848172737693,1.4343480582895154,1.1291676203554744
1539131656647762,-0.5798428320745188,1.739528496223329,1.4953841458761872
1539131656663757,-0.45777065690094787,1.8005645838102282,1.8616006713969
1539131656679737,-0.3967345693140487,1.4953841458761872,1.983672846570471
1539131656695716,-0.03051804379333589,1.2512397955290453,1.9226367589837992
1539131656711696,0.03051804379333589,1.2512397955290453,1.8005645838102282
1539131656727676,0.03051804379333589,1.1902037079423735,1.6784924086366573
1539131656743656,-0.213626306553806,0.8239871824216607,1.3122758831159445
1539131656759636,0.213626306553806,0.15259021896690683,0.7629510948347615
1539131656775615,0.5798428320745188,-0.45777065690094787,0.15259021896690683
1539131656791595,0.9460593575952316,-0.8239871824216607,-0.33569848172737693
1539131656807575,0.8850232700083325,-0.8850232700083325,-0.5188067444876197
1539131656823555,0.8239871824216607,-0.6408789196611906,-0.45777065690094787
1539131656839534,0.5798428320745188,-0.33569848172737693,0.03051804379333589
1539131656855514,0.09155413138023505,-0.213626306553806,0.45777065690094787
1539131656871494,0.3967345693140487,-0.213626306553806,0.6408789196611906
1539131656887474,0.3967345693140487,-0.09155413138023505,0.7019150072480898
1539131656903453,0.3967345693140487,0.09155413138023505,0.8239871824216607
1539131656919433,0.3967345693140487,0.5188067444876197,0.5798428320745188
1539131656935413,0.2746623941404778,1.0070954451819034,-0.03051804379333589
1539131656951393,0.09155413138023505,1.1902037079423735,-0.5188067444876197
1539131656967373,0.03051804379333589,1.1902037079423735,-0.7629510948347615
1539131656983337,0.2746623941404778,0.7629510948347615,-0.8850232700083325
1539131656999317,0.3967345693140487,0.45777065690094787,-0.8850232700083325
1539131657015297,0.3967345693140487,0.09155413138023505,-0.7019150072480898
1539131657031276,0.5188067444876197,-0.15259021896690683,-0.2746623941404778
1539131657047256,0.33569848172737693,-0.2746623941404778,0.213626306553806
1539131657063236,0.09155413138023505,-0.45777065690094787,0.7019150072480898
1539131657079216,0.09155413138023505,-0.45777065690094787,1.1291676203554744
1539131657095195,-0.09155413138023505,-0.45777065690094787,1.3733119707026162
1539131657111175,0.09155413138023505,-0.3967345693140487,1.2512397955290453
1539131657127155,0.09155413138023505,-0.5188067444876197,1.0070954451819034
1539131657143135,0.3967345693140487,-0.7629510948347615,0.5188067444876197
1539131657159114,0.3967345693140487,-0.9460593575952316,0.213626306553806
1539131657175094,0.5798428320745188,-1.1291676203554744,0.09155413138023505
1539131657191074,0.7019150072480898,-0.8850232700083325,0.09155413138023505
1539131657207054,0.6408789196611906,-0.5798428320745188,0.3967345693140487
1539131657223034,0.5188067444876197,-0.09155413138023505,0.7629510948347615
1539131657239013,0.45777065690094787,0.45777065690094787,1.3122758831159445
1539131657254993,0.33569848172737693,0.7629510948347615,1.6784924086366573
1539131657270973,0.33569848172737693,0.6408789196611906,1.8005645838102282
1539131657286953,0.15259021896690683,0.5188067444876197,1.6784924086366573
1539131657302948,0.2746623941404778,0.15259021896690683,1.1291676203554744
1539131657318927,0.33569848172737693,-0.2746623941404778,0.6408789196611906
1539131657334907,0.5188067444876197,-0.5798428320745188,0.213626306553806
1539131657350887,0.7629510948347615,-0.8850232700083325,-0.213626306553806
1539131657366867,0.5798428320745188,-0.8850232700083325,-0.3967345693140487
1539131657382846,0.6408789196611906,-0.5188067444876197,-0.33569848172737693
1539131657398826,0.6408789196611906,-0.213626306553806,-0.213626306553806
1539131657414806,0.6408789196611906,-0.15259021896690683,-0.03051804379333589
1539131657430786,0.7019150072480898,-0.15259021896690683,0.213626306553806
1539131657446766,0.7019150072480898,-0.213626306553806,0.3967345693140487
1539131657462745,0.6408789196611906,-0.213626306553806,0.5188067444876197
1539131657478725,0.45777065690094787,-0.15259021896690683,0.6408789196611906
1539131657494705,0.3967345693140487,-0.03051804379333589,0.6408789196611906
1539131657510685,0.09155413138023505,-0.03051804379333589,0.5798428320745188
1539131657526664,0.33569848172737693,-0.09155413138023505,0.3967345693140487
1539131657542644,0.45777065690094787,-0.213626306553806,0.2746623941404778
1539131657558624,0.7629510948347615,-0.3967345693140487,0.213626306553806
1539131657574604,0.6408789196611906,-0.2746623941404778,0.3967345693140487
1539131657590583,0.2746623941404778,-0.2746623941404778,0.5798428320745188
1539131657606563,0.2746623941404778,-0.213626306553806,0.7019150072480898
1539131657622528,0.15259021896690683,-0.3967345693140487,0.8850232700083325
1539131657638507,-0.15259021896690683,-0.6408789196611906,1.1902037079423735
1539131657654487,-1.4343480582895154,-1.0070954451819034,1.739528496223329
1539131657670467,-3.7537193865873633,-1.6174563210497581,1.8005645838102282
1539131657686447,-4.486152437628789,-1.8005645838102282,1.4953841458761872
1539131657702427,-3.2043945983061803,-1.4953841458761872,1.3122758831159445
1539131657718406,-2.166781109330941,-1.0070954451819034,1.3122758831159445
1539131657734386,-1.5564202334630863,-0.5798428320745188,1.3733119707026162
1539131657750366,-0.5188067444876197,-0.33569848172737693,1.5564202334630863
1539131657766346,0.03051804379333589,-0.15259021896690683,1.5564202334630863
1539131657782325,1.0070954451819034,-0.213626306553806,1.3122758831159445
1539131657798305,0.8239871824216607,-0.3967345693140487,1.0070954451819034
1539131657814285,1.3122758831159445,-0.6408789196611906,0.5188067444876197
1539131657830265,1.2512397955290453,-0.8850232700083325,0.15259021896690683
1539131657846244,1.3122758831159445,-0.9460593575952316,-0.09155413138023505
1539131657862224,1.4343480582895154,-0.8239871824216607,-0.15259021896690683
1539131657878204,1.1902037079423735,-0.5188067444876197,-0.03051804379333589
1539131657894184,1.0681315327688026,-0.3967345693140487,0.213626306553806
1539131657910164,1.1291676203554744,-0.7019150072480898,0.45777065690094787
1539131657926143,1.1902037079423735,-1.3122758831159445,0.3967345693140487
1539131657942138,1.3122758831159445,-1.4343480582895154,0.213626306553806
1539131657958118,1.3122758831159445,-1.3733119707026162,0.09155413138023505
1539131657974098,1.0681315327688026,-1.3733119707026162,0.03051804379333589
1539131657990078,0.8239871824216607,-1.2512397955290453,-0.15259021896690683
1539131658006057,0.7019150072480898,-1.2512397955290453,-0.213626306553806
1539131658022037,0.7019150072480898,-1.2512397955290453,-0.09155413138023505
1539131658038017,0.7629510948347615,-1.0681315327688026,-0.09155413138023505
1539131658053997,0.7019150072480898,-0.8850232700083325,0.15259021896690683
1539131658069976,0.5798428320745188,-0.6408789196611906,0.2746623941404778
1539131658085956,0.5798428320745188,-0.45777065690094787,0.5188067444876197
1539131658101936,0.45777065690094787,-0.45777065690094787,0.45777065690094787
1539131658117916,0.5798428320745188,-0.33569848172737693,0.45777065690094787
1539131658133895,0.3967345693140487,-0.213626306553806,0.2746623941404778
1539131658149875,0.3967345693140487,-0.15259021896690683,0.09155413138023505
1539131658165855,0.3967345693140487,-0.03051804379333589,0.09155413138023505
1539131658181835,0.3967345693140487,0.03051804379333589,0.15259021896690683
1539131658197815,0.45777065690094787,0.03051804379333589,0.15259021896690683
1539131658213794,0.33569848172737693,0.09155413138023505,0.33569848172737693
1539131658229774,0.33569848172737693,0.213626306553806,0.5798428320745188
1539131658245754,0.3967345693140487,0.33569848172737693,0.6408789196611906
1539131658261718,0.33569848172737693,0.2746623941404778,0.5798428320745188
1539131658277698,0.45777065690094787,0.2746623941404778,0.5798428320745188
1539131658293678,0.2746623941404778,0.213626306553806,0.5188067444876197
1539131658309658,0.213626306553806,0.33569848172737693,0.45777065690094787
1539131658325637,0.09155413138023505,0.3967345693140487,0.3967345693140487
1539131658341617,0.15259021896690683,0.3967345693140487,0.45777065690094787
1539131658357597,0.15259021896690683,0.3967345693140487,0.5188067444876197
1539131658373577,0.33569848172737693,0.33569848172737693,0.5798428320745188
1539131658389557,0.2746623941404778,0.213626306553806,0.5798428320745188
1539131658405536,0.33569848172737693,0.15259021896690683,0.3967345693140487
1539131658421516,0.5188067444876197,0.15259021896690683,0.33569848172737693
1539131658437496,0.3967345693140487,0.2746623941404778,0.33569848172737693
1539131658453476,0.3967345693140487,0.3967345693140487,0.45777065690094787
1539131658469455,0.3967345693140487,0.45777065690094787,0.5188067444876197
1539131658485435,0.5798428320745188,0.45777065690094787,0.5188067444876197
1539131658501415,0.45777065690094787,0.5188067444876197,0.5798428320745188
1539131658517395,0.45777065690094787,0.5798428320745188,0.6408789196611906
1539131658533374,0.5188067444876197,0.3967345693140487,0.6408789196611906
1539131658549354,0.5188067444876197,0.03051804379333589,0.5188067444876197
1539131658565334,0.5188067444876197,-0.15259021896690683,0.3967345693140487
1539131658581329,0.5798428320745188,-0.213626306553806,0.3967345693140487
1539131658597309,0.7629510948347615,-0.03051804379333589,0.15259021896690683
1539131658613289,0.45777065690094787,0.09155413138023505,0.5188067444876197
1539131658629268,0.7019150072480898,0.5798428320745188,0.6408789196611906
1539131658645248,0.7629510948347615,1.0681315327688026,0.5798428320745188
1539131658661228,0.213626306553806,1.0681315327688026,0.7019150072480898
1539131658677208,0.3967345693140487,0.7019150072480898,0.9460593575952316
1539131658693187,0.45777065690094787,0.6408789196611906,1.0070954451819034
1539131658709167,0.33569848172737693,0.7019150072480898,0.8850232700083325
1539131658725147,0.2746623941404778,0.9460593575952316,0.8850232700083325
1539131658741127,0.2746623941404778,1.2512397955290453,0.7629510948347615
1539131658757106,0.5188067444876197,1.739528496223329,0.6408789196611906
1539131658773086,0.45777065690094787,2.288853284504512,0.5798428320745188
1539131658789066,0.2746623941404778,2.7161058976118966,0.8850232700083325
1539131658805046,0.2746623941404778,2.7771419851987957,0.9460593575952316
1539131658821025,0.2746623941404778,2.5940337224383256,1.0681315327688026
1539131658837005,0.15259021896690683,2.410925459678083,1.1902037079423735
1539131658852985,0.213626306553806,2.105745021744042,1.3733119707026162
1539131658868965,0.3967345693140487,1.8005645838102282,1.4953841458761872
1539131658884945,0.45777065690094787,1.6784924086366573,1.4953841458761872
1539131658900940,0.3967345693140487,1.4343480582895154,1.3122758831159445
1539131658916919,0.3967345693140487,0.8850232700083325,0.9460593575952316
1539131658932899,0.3967345693140487,0.5798428320745188,0.45777065690094787
1539131658948879,0.7019150072480898,0.45777065690094787,-0.15259021896690683
1539131658964859,0.8239871824216607,0.5188067444876197,-0.6408789196611906
1539131658980838,0.7019150072480898,0.7629510948347615,-0.8239871824216607
1539131658996818,0.5188067444876197,1.0070954451819034,-0.6408789196611906
1539131659012798,0.33569848172737693,1.1902037079423735,-0.213626306553806
1539131659028778,0.33569848172737693,1.2512397955290453,0.09155413138023505
1539131659044757,0.3967345693140487,1.3122758831159445,0.45777065690094787
1539131659060737,0.33569848172737693,1.3733119707026162,0.6408789196611906
1539131659076717,0.09155413138023505,1.3733119707026162,0.9460593575952316
1539131659092697,-0.09155413138023505,1.2512397955290453,1.0070954451819034
1539131659108677,-0.03051804379333589,0.9460593575952316,0.8239871824216607
1539131659124656,0.09155413138023505,0.6408789196611906,0.6408789196611906
1539131659140636,0.2746623941404778,0.3967345693140487,0.5188067444876197
1539131659156616,0.09155413138023505,0.2746623941404778,0.33569848172737693
1539131659172596,0.2746623941404778,0.15259021896690683,0.15259021896690683
1539131659188575,0.2746623941404778,-0.213626306553806,0.09155413138023505
1539131659204555,0.33569848172737693,-0.3967345693140487,0.03051804379333589
1539131659220520,0.5798428320745188,-0.5188067444876197,0.213626306553806
1539131659236499,0.45777065690094787,-0.5188067444876197,0.3967345693140487
1539131659252479,0.33569848172737693,-0.33569848172737693,0.5188067444876197
1539131659268459,0.213626306553806,-0.09155413138023505,0.5798428320745188
1539131659284439,0.09155413138023505,-0.03051804379333589,0.6408789196611906
1539131659300418,0.15259021896690683,0.03051804379333589,0.6408789196611906
1539131659316398,0.33569848172737693,-0.03051804379333589,0.6408789196611906
1539131659332378,0.213626306553806,0.03051804379333589,0.7019150072480898
1539131659348358,0.213626306553806,0.15259021896690683,0.7019150072480898
1539131659364338,0.33569848172737693,0.09155413138023505,0.8239871824216607
1539131659380317,0.213626306553806,-0.09155413138023505,0.8239871824216607
1539131659396297,0.3967345693140487,-0.33569848172737693,0.7019150072480898
1539131659412277,0.5188067444876197,-0.45777065690094787,0.6408789196611906
1539131659428257,0.3967345693140487,-0.45777065690094787,0.5798428320745188
1539131659444236,0.45777065690094787,-0.3967345693140487,0.5188067444876197
1539131659460216,0.33569848172737693,-0.2746623941404778,0.5798428320745188
1539131659476196,0.33569848172737693,-0.2746623941404778,0.5798428320745188
1539131659492176,0.33569848172737693,-0.2746623941404778,0.6408789196611906
1539131659508155,0.3967345693140487,-0.33569848172737693,0.7019150072480898
1539131659524135,0.3967345693140487,-0.2746623941404778,0.7629510948347615
1539131659540130,0.3967345693140487,-0.15259021896690683,0.7629510948347615
1539131659556110,0.2746623941404778,0.03051804379333589,0.8850232700083325
1539131659572090,0.09155413138023505,0.03051804379333589,0.9460593575952316
1539131659588070,0.213626306553806,-0.213626306553806,0.6408789196611906
1539131659604049,0.45777065690094787,-0.5188067444876197,0.45777065690094787
1539131659620029,0.6408789196611906,-0.5798428320745188,0.213626306553806
1539131659636009,0.7629510948347615,-0.5188067444876197,0.09155413138023505
1539131659651989,0.5188067444876197,-0.33569848172737693,0.15259021896690683
1539131659667968,0.3967345693140487,-0.213626306553806,0.2746623941404778
1539131659683948,0.5188067444876197,-0.03051804379333589,0.45777065690094787
1539131659699928,0.5188067444876197,0.03051804379333589,0.6408789196611906
1539131659715908,0.5188067444876197,0.15259021896690683,0.8850232700083325
1539131659731887,0.45777065690094787,0.15259021896690683,0.9460593575952316
1539131659747867,0.3967345693140487,0.03051804379333589,0.8239871824216607
1539131659763847,0.33569848172737693,-0.09155413138023505,0.6408789196611906
1539131659779827,0.3967345693140487,-0.3967345693140487,0.33569848172737693
1539131659795807,0.5798428320745188,-0.5798428320745188,0.09155413138023505
1539131659811786,0.5188067444876197,-0.5798428320745188,-0.03051804379333589
1539131659827766,0.5188067444876197,-0.5188067444876197,-0.03051804379333589
1539131659843746,0.3967345693140487,-0.3967345693140487,-0.03051804379333589
1539131659859710,0.33569848172737693,-0.3967345693140487,0.03051804379333589
1539131659875690,0.45777065690094787,-0.33569848172737693,0.213626306553806
1539131659891670,0.33569848172737693,-0.2746623941404778,0.2746623941404778
1539131659907650,0.2746623941404778,-0.2746623941404778,0.3967345693140487
1539131659923629,0.09155413138023505,-0.6408789196611906,0.45777065690094787
1539131659939609,0.09155413138023505,-0.8850232700083325,0.33569848172737693
1539131659955589,0.33569848172737693,-1.0681315327688026,0.213626306553806
1539131659971569,0.45777065690094787,-1.1291676203554744,-0.03051804379333589
1539131659987548,0.45777065690094787,-1.3122758831159445,-0.213626306553806
1539131660003528,0.6408789196611906,-1.4953841458761872,-0.3967345693140487
1539131660019508,0.5798428320745188,-1.6174563210497581,-0.5188067444876197
1539131660035488,0.45777065690094787,-1.739528496223329,-0.5798428320745188
1539131660051468,0.5188067444876197,-1.8005645838102282,-0.7019150072480898
1539131660067447,0.33569848172737693,-1.983672846570471,-0.8239871824216607
1539131660083427,0.09155413138023505,-2.166781109330941,-0.9460593575952316
1539131660099407,0.15259021896690683,-2.410925459678083,-1.3122758831159445
1539131660115387,0.03051804379333589,-2.7161058976118966,-1.6784924086366573
1539131660131366,0.03051804379333589,-2.8381780727854675,-1.983672846570471
1539131660147346,-0.09155413138023505,-2.8992141603723667,-1.8616006713969
1539131660163326,-0.15259021896690683,-2.9602502479590385,-1.739528496223329
1539131660179321,-0.33569848172737693,-2.9602502479590385,-1.5564202334630863
1539131660195301,0.09155413138023505,-2.7161058976118966,-1.3733119707026162
1539131660211280,0.09155413138023505,-2.3498893720911838,-1.0070954451819034
1539131660227260,0.09155413138023505,-2.166781109330941,-0.7629510948347615
1539131660243240,0.15259021896690683,-1.8616006713969,-0.5188067444876197
1539131660259220,0.2746623941404778,-1.4343480582895154,-0.09155413138023505
1539131660275200,0.213626306553806,-1.0070954451819034,0.2746623941404778
1539131660291179,0.15259021896690683,-0.8239871824216607,0.5798428320745188
1539131660307159,0.213626306553806,-0.7629510948347615,0.8239871824216607
1539131660323139,0.213626306553806,-0.8239871824216607,0.8850232700083325
1539131660339119,0.45777065690094787,-0.8239871824216607,0.7629510948347615
1539131660355098,0.3967345693140487,-0.7019150072480898,0.7019150072480898
1539131660371078,0.3967345693140487,-0.6408789196611906,0.6408789196611906
1539131660387058,0.5188067444876197,-0.5798428320745188,0.7629510948347615
1539131660403038,0.45777065690094787,-0.5188067444876197,0.8850232700083325
1539131660419017,0.5798428320745188,-0.5188067444876197,0.9460593575952316
1539131660434997,0.5798428320745188,-0.33569848172737693,0.8850232700083325
1539131660450977,0.45777065690094787,-0.33569848172737693,0.9460593575952316
1539131660466957,0.5188067444876197,-0.33569848172737693,1.0070954451819034
1539131660482936,0.45777065690094787,-0.3967345693140487,1.0070954451819034
1539131660498901,0.3967345693140487,-0.5188067444876197,0.9460593575952316
1539131660514881,0.45777065690094787,-0.5188067444876197,0.9460593575952316
1539131660530861,0.5188067444876197,-0.45777065690094787,0.7629510948347615
1539131660546840,0.2746623941404778,-0.3967345693140487,0.6408789196611906
1539131660562820,0.45777065690094787,-0.2746623941404778,0.5188067444876197
1539131660578800,0.3967345693140487,-0.213626306553806,0.45777065690094787
1539131660594780,0.33569848172737693,-0.213626306553806,0.45777065690094787
1539131660610759,0.2746623941404778,-0.03051804379333589,0.5798428320745188
1539131660626739,0.33569848172737693,0.09155413138023505,0.6408789196611906
1539131660642719,0.15259021896690683,-0.09155413138023505,0.7019150072480898
1539131660658699,0.15259021896690683,-0.45777065690094787,0.7019150072480898
1539131660674678,0.3967345693140487,-0.6408789196611906,0.5188067444876197
1539131660690658,0.5188067444876197,-0.7629510948347615,0.3967345693140487
1539131660706638,0.45777065690094787,-0.5798428320745188,0.213626306553806
1539131660722618,0.5188067444876197,-0.3967345693140487,0.15259021896690683
1539131660738597,0.3967345693140487,-0.213626306553806,0.09155413138023505
1539131660754577,0.33569848172737693,-0.03051804379333589,0.213626306553806
1539131660770557,0.3967345693140487,0.15259021896690683,0.2746623941404778
1539131660786537,0.3967345693140487,0.2746623941404778,0.3967345693140487
1539131660802517,0.33569848172737693,0.2746623941404778,0.5188067444876197
1539131660818512,0.213626306553806,0.2746623941404778,0.7629510948347615
1539131660834491,0.09155413138023505,0.2746623941404778,0.8850232700083325
1539131660850471,0.15259021896690683,0.2746623941404778,0.8850232700083325
1539131660866451,0.33569848172737693,0.09155413138023505,0.6408789196611906
1539131660882431,0.8850232700083325,-0.33569848172737693,0.15259021896690683
1539131660898410,0.7019150072480898,-0.15259021896690683,0.33569848172737693
1539131660914390,0.2746623941404778,0.15259021896690683,0.33569848172737693
1539131660930370,0.33569848172737693,0.5188067444876197,0.3967345693140487
1539131660946350,0.213626306553806,0.7629510948347615,0.5798428320745188
1539131660962329,-0.09155413138023505,1.0681315327688026,0.7629510948347615
1539131660978309,-0.2746623941404778,1.3122758831159445,0.8239871824216607
1539131660994289,-0.33569848172737693,1.6784924086366573,0.7629510948347615
1539131661010269,-0.5188067444876197,1.739528496223329,0.7629510948347615
1539131661026249,-0.45777065690094787,1.4953841458761872,1.0070954451819034
1539131661042228,-0.15259021896690683,1.2512397955290453,1.1902037079423735
1539131661058208,-0.15259021896690683,1.1902037079423735,1.3122758831159445
1539131661074188,0.09155413138023505,1.3733119707026162,1.4343480582895154
1539131661090168,0.15259021896690683,1.5564202334630863,1.4343480582895154
1539131661106147,0.213626306553806,1.8005645838102282,1.3122758831159445
1539131661122127,0.5188067444876197,2.227817196917613,1.1902037079423735
1539131661138092,1.0070954451819034,2.9602502479590385,1.2512397955290453
1539131661154071,0.3967345693140487,4.058899824521177,1.3733119707026162
1539131661170051,-0.7629510948347615,5.279621576256886,0.6408789196611906
1539131661186031,-1.983672846570471,5.401693751430457,0.2746623941404778
1539131661202011,-2.288853284504512,3.875791561760934,0.9460593575952316
1539131661217991,-1.0681315327688026,1.9226367589837992,1.4953841458761872
1539131661233970,0.5188067444876197,0.5798428320745188,1.983672846570471
1539131661249950,1.3122758831159445,0.09155413138023505,2.04470893415737
1539131661265930,1.0070954451819034,0.3967345693140487,1.8005645838102282
1539131661281910,0.5798428320745188,1.1291676203554744,0.8239871824216607
1539131661297889,0.3967345693140487,1.8616006713969,-0.15259021896690683
1539131661313869,0.3967345693140487,2.105745021744042,-0.9460593575952316
1539131661329849,0.7019150072480898,1.9226367589837992,-1.2512397955290453
1539131661345829,0.6408789196611906,1.5564202334630863,-0.8239871824216607
1539131661361808,0.6408789196611906,1.1291676203554744,-0.03051804379333589
1539131661377788,0.3967345693140487,1.0070954451819034,0.7629510948347615
1539131661393768,-0.03051804379333589,1.2512397955290453,1.4953841458761872
1539131661409748,0.03051804379333589,1.6174563210497581,1.983672846570471
1539131661425727,-0.03051804379333589,1.983672846570471,1.983672846570471
1539131661441707,0.09155413138023505,1.9226367589837992,1.6174563210497581
1539131661457672,0.7629510948347615,1.6784924086366573,1.0681315327688026
1539131661473652,0.9460593575952316,1.4953841458761872,0.5188067444876197
1539131661489631,0.9460593575952316,1.1291676203554744,0.09155413138023505
1539131661505611,0.7629510948347615,0.7629510948347615,-0.213626306553806
1539131661521591,0.5798428320745188,0.33569848172737693,-0.45777065690094787
1539131661537571,0.3967345693140487,0.213626306553806,-0.45777065690094787
1539131661553550,0.33569848172737693,-0.03051804379333589,-0.15259021896690683
1539131661569530,0.15259021896690683,-0.2746623941404778,0.09155413138023505
1539131661585510,0.03051804379333589,-0.5188067444876197,0.33569848172737693
1539131661601490,0.33569848172737693,-0.5798428320745188,0.15259021896690683
1539131661617469,0.3967345693140487,-0.8239871824216607,-0.03051804379333589
1539131661633449,0.5188067444876197,-1.2512397955290453,-0.2746623941404778
1539131661649429,0.5188067444876197,-1.6174563210497581,-0.45777065690094787
1539131661665409,0.6408789196611906,-1.739528496223329,-0.7019150072480898
1539131661681388,0.7019150072480898,-1.9226367589837992,-0.9460593575952316
1539131661697368,0.5798428320745188,-2.3498893720911838,-1.1902037079423735
1539131661713348,0.7629510948347615,-2.8992141603723667,-1.4343480582895154
1539131661729328,0.9460593575952316,-3.4485389486533222,-1.4953841458761872
1539131661745308,0.8850232700083325,-3.6316472114137923,-1.6784924086366573
1539131661761287,1.0070954451819034,-3.6316472114137923,-2.105745021744042
1539131661777282,0.8850232700083325,-3.3875028610666504,-2.4719615472647547
1539131661793262,0.3967345693140487,-3.0823224231326094,-2.532997634851654
1539131661809242,0.213626306553806,-2.7161058976118966,-2.3498893720911838
1539131661825222,0.09155413138023505,-2.288853284504512,-1.6784924086366573
1539131661841201,0.09155413138023505,-1.9226367589837992,-0.6408789196611906
1539131661857181,0.2746623941404778,-1.4343480582895154,0.5798428320745188
1539131661873161,0.213626306553806,-1.0070954451819034,1.4343480582895154
1539131661889141,-0.03051804379333589,-0.5798428320745188,1.739528496223329
1539131661905120,-0.09155413138023505,-0.15259021896690683,1.8005645838102282
1539131661921100,0.09155413138023505,0.03051804379333589,1.8616006713969
1539131661937080,0.15259021896690683,0.213626306553806,1.8005645838102282
1539131661953060,0.213626306553806,0.5798428320745188,1.8616006713969
1539131661969040,0.15259021896690683,1.0681315327688026,1.8616006713969
1539131661985019,-0.03051804379333589,1.4953841458761872,1.739528496223329
1539131662000999,-0.03051804379333589,1.5564202334630863,1.6174563210497581
1539131662016979,0.09155413138023505,1.0681315327688026,1.3733119707026162
1539131662032959,0.33569848172737693,0.2746623941404778,1.1291676203554744
1539131662048938,0.2746623941404778,-0.09155413138023505,1.0070954451819034
1539131662064918,0.2746623941404778,-0.03051804379333589,0.7629510948347615
1539131662080898,0.2746623941404778,0.15259021896690683,0.6408789196611906
1539131662096862,0.03051804379333589,0.15259021896690683,0.5798428320745188
1539131662112842,0.33569848172737693,-0.15259021896690683,0.33569848172737693
1539131662128822,0.6408789196611906,-0.3967345693140487,0.09155413138023505
1539131662144802,0.8850232700083325,-0.3967345693140487,-0.2746623941404778
1539131662160781,1.1291676203554744,-0.33569848172737693,-0.5798428320745188
1539131662176761,0.8239871824216607,-0.3967345693140487,-0.7019150072480898
1539131662192741,1.0681315327688026,-0.45777065690094787,-0.8239871824216607
1539131662208721,1.1291676203554744,-0.5188067444876197,-0.8239871824216607
1539131662224701,1.1291676203554744,-0.5798428320745188,-0.8239871824216607
1539131662240680,1.0681315327688026,-0.8239871824216607,-0.8239871824216607
1539131662256660,1.0681315327688026,-0.9460593575952316,-0.8239871824216607
1539131662272640,1.1902037079423735,-0.9460593575952316,-0.5798428320745188
1539131662288620,1.1902037079423735,-0.9460593575952316,-0.3967345693140487
1539131662304599,1.0070954451819034,-1.0681315327688026,-0.2746623941404778
1539131662320579,0.7629510948347615,-1.1902037079423735,-0.2746623941404778
1539131662336559,0.6408789196611906,-1.1902037079423735,-0.2746623941404778
1539131662352539,0.33569848172737693,-1.3733119707026162,-0.3967345693140487
1539131662368518,0.3967345693140487,-1.8005645838102282,-0.45777065690094787
1539131662384498,0.3967345693140487,-2.288853284504512,-0.5798428320745188
1539131662400478,0.5188067444876197,-2.5940337224383256,-0.6408789196611906
1539131662416473,0.2746623941404778,-2.7771419851987957,-0.5798428320745188
1539131662432453,0.33569848172737693,-2.8992141603723667,-0.5798428320745188
1539131662448433,0.33569848172737693,-3.0212863355459376,-0.7629510948347615
1539131662464412,0.213626306553806,-3.0212863355459376,-0.8239871824216607
1539131662480392,0.09155413138023505,-3.0823224231326094,-0.8239871824216607
1539131662496372,0.15259021896690683,-3.2654306858930795,-0.9460593575952316
1539131662512352,-0.03051804379333589,-3.5095750362402214,-0.9460593575952316
1539131662528331,-0.09155413138023505,-3.3875028610666504,-0.9460593575952316
1539131662544311,-0.5798428320745188,-1.9226367589837992,-0.8850232700083325
1539131662560291,0.3967345693140487,-0.8850232700083325,-1.2512397955290453
1539131662576271,0.9460593575952316,0.8239871824216607,-2.105745021744042
1539131662592250,0.7629510948347615,0.15259021896690683,-1.4343480582895154
1539131662608230,0.5188067444876197,-0.7629510948347615,-0.5798428320745188
1539131662624210,0.2746623941404778,-1.4343480582895154,0.09155413138023505
1539131662640190,0.09155413138023505,-1.8005645838102282,0.5188067444876197
1539131662656170,0.2746623941404778,-2.105745021744042,0.6408789196611906
1539131662672149,0.2746623941404778,-2.410925459678083,0.5798428320745188
1539131662688129,0.33569848172737693,-2.8992141603723667,0.5188067444876197
1539131662704109,0.5188067444876197,-3.2654306858930795,0.5798428320745188
1539131662720089,0.45777065690094787,-3.1433585107195086,0.5798428320745188
1539131662736084,0.45777065690094787,-2.9602502479590385,0.6408789196611906
1539131662752063,0.33569848172737693,-2.9602502479590385,0.8239871824216607
1539131662768043,0.45777065690094787,-2.8992141603723667,0.9460593575952316
1539131662784023,0.45777065690094787,-2.7161058976118966,1.0070954451819034
1539131662800003,0.6408789196611906,-2.3498893720911838,1.1291676203554744
1539131662815982,0.3967345693140487,-2.166781109330941,1.1291676203554744
1539131662831962,0.15259021896690683,-2.04470893415737,1.1291676203554744
1539131662847942,0.213626306553806,-1.9226367589837992,1.0681315327688026
1539131662863922,0.5188067444876197,-1.9226367589837992,0.8850232700083325
1539131662879902,0.5188067444876197,-1.9226367589837992,0.5798428320745188
1539131662895881,0.5188067444876197,-1.6784924086366573,0.5188067444876197
1539131662911861,0.45777065690094787,-1.4953841458761872,0.3967345693140487
1539131662927841,0.3967345693140487,-1.3122758831159445,0.45777065690094787
1539131662943821,0.213626306553806,-1.2512397955290453,0.3967345693140487
1539131662959800,0.5798428320745188,-1.1902037079423735,0.33569848172737693
1539131662975780,0.7019150072480898,-0.9460593575952316,0.2746623941404778
1539131662991760,0.5798428320745188,-0.45777065690094787,0.33569848172737693
1539131663007740,0.5798428320745188,-0.03051804379333589,0.33569848172737693
1539131663023719,0.45777065690094787,0.45777065690094787,0.213626306553806
1539131663039699,0.7019150072480898,0.5798428320745188,0.15259021896690683
1539131663055664,0.8239871824216607,0.7629510948347615,0.03051804379333589
1539131663071643,0.8239871824216607,1.0681315327688026,0.03051804379333589
1539131663087623,0.5798428320745188,1.3122758831159445,-0.09155413138023505
1539131663103603,0.45777065690094787,1.6784924086366573,0.09155413138023505
1539131663119583,0.3967345693140487,1.739528496223329,0.33569848172737693
1539131663135563,0.2746623941404778,1.4343480582895154,0.5798428320745188
1539131663151542,0.213626306553806,1.0070954451819034,0.7019150072480898
1539131663167522,0.15259021896690683,0.5798428320745188,0.5798428320745188
1539131663183502,0.15259021896690683,0.33569848172737693,0.3967345693140487
1539131663199482,0.15259021896690683,0.03051804379333589,0.213626306553806
1539131663215461,0.213626306553806,-0.2746623941404778,0.15259021896690683
1539131663231441,0.2746623941404778,-0.45777065690094787,0.2746623941404778
1539131663247421,0.3967345693140487,-0.45777065690094787,0.3967345693140487
