Timestamp (microseconds),Accel X (g),Accel Y (g),Accel Z (g)
1539731601256744,0.016906996261539575,-1.0026398107881285,0.07574578469520077
1539731601272746,0.010559243152513886,-1.007888914320592,0.06842145418478651
1539731601288747,0.017273212787060288,-1.006179903868162,0.06646829938200938
1539731601304749,0.017883573662928143,-1.0056916151674677,0.06305027847714939
1539731601320751,0.01605249103532458,-0.9932402532997635,0.055970092317082276
1539731601336753,0.01873807888914314,-0.9839627679865721,0.0508430609597923
1539731601352754,0.021179522392614558,-0.9766384374761579,0.05487144274052014
1539731601368756,0.02911421377889667,-0.9934843976501107,0.07904173342488718
1539731601384758,0.02398718242160669,-0.9773708705271993,0.07281605249103507
1539731601400759,0.019104295414663852,-0.96919203479057,0.07721065079728362
1539731601416761,0.024719615472648115,-0.9964141298542764,0.09515526054779855
1539731601432763,0.030090791180285237,-1.0084992751964599,0.10553139543755208
1539731601448764,0.017761501487754572,-1.0017853055619135,0.0995498588540471
1539731601464766,0.01751735713740743,-0.9958037689784085,0.0919813839932857
1539731601480768,0.023620965896085977,-0.9969024185549706,0.10467689021133708
1539731601496770,0.02923628595407024,-1.00337224383917,0.12750438696879574
1539731601512771,0.03460746166170736,-1.000198367284657,0.13116655222400286
1539731601528773,0.03839169909208806,-0.9805447470817121,0.13482871747921
1539731601544775,0.025940337224383825,-0.9806668192568857,0.15887693598840347
1539731601560776,0.044251163500419466,-0.9917753871976807,0.15008773937590636
1539731601576782,0.03167772945754166,-0.9907988097962921,0.14557106889448423
1539731601592784,0.031189440756847375,-0.9883573662928207,0.11493095292591704
1539731601608785,0.04583810177767589,-0.9980010681315328,0.07257190814068792
1539731601624787,0.028747997253375956,-1.0152132448310063,0.06414892805371153
1539731601640789,0.025818265049210254,-1.0220492866407263,0.03961242084382377
1539731601656790,0.028870069428549527,-1.0276646066987105,0.016906996261539575
1539731601672792,0.027161058976119534,-1.0254673075455862,-0.0017700465400167786
1539731601688794,0.027161058976119534,-1.027542534523537,-0.013977264057373873
1539731601704795,0.03265430685893023,-1.0246128023193712,-0.032532234683756656
1539731601720797,0.027405203326466676,-1.019851987487602,-0.04217593652246876
1539731601736799,0.026306553749904538,-1.0060578316929885,-0.03729304951552592
1539731601752801,0.019592584115358136,-1.0098420691233692,-0.02532997634851597
1539731601768802,0.008117799649042468,-1.0116731517509727,-0.021179522392614558
1539731601784804,0.008239871824216038,-1.0185091935606927,-0.01495384145876244
1539731601800806,0.025818265049210254,-1.0247348744945448,-0.001037613488975353
1539731601816807,0.03436331731136022,-1.0117952239261463,0.011902037079423167
1539731601832809,0.05242999923704872,-0.9860379949645228,-0.003112840466926059
1539731601848811,0.05035477225909801,-0.9621118486305029,-0.01361104753185316
1539731601864812,0.04180971999694805,-0.9511253528648815,-0.023376821545738835
1539731601880814,0.04180971999694805,-0.9712672617685207,-0.03826962691691449
1539731601896820,0.07281605249103507,-0.9724879835202564,-0.058289463645380124
1539731601912821,0.06842145418478651,-0.9638208590829329,-0.07403677424277122
1539731601928823,0.08661020828564858,-0.9573510337987337,-0.06732280460822482
1539731601944825,0.0928358892195007,-0.9676050965133136,-0.06878767071030767
1539731601960826,0.06475928892957938,-0.98457312886244,-0.07513542381933336
1539731601976828,0.05535973144121442,-0.9894560158693828,-0.06720073243305125
1539731601992830,0.05877775234607441,-0.9798123140306707,-0.0499885557335773
1539731602008832,0.05889982452124798,-0.9821316853589686,-0.0357061112382695
1539731602024833,0.053162432288090145,-0.9987335011825742,-0.0319218738078888
1539731602040835,0.05951018539711583,-1.0045929655909056,-0.0327763790341038
1539731602056837,0.06292820630197582,-0.9997100785839628,-0.03533989471274879
1539731602072838,0.05658045319295013,-1.0075226977950713,-0.03314259555962451
1539731602088840,0.05926604104676869,-1.0182650492103456,-0.017151140611886717
1539731602104842,0.05523765926604085,-1.0298619058518348,1.831082627603564E-4
1539731602120844,0.05999847409781012,-1.0291294728007934,-0.001159685664148924
1539731602136845,0.05792324711985941,-1.0310826276035705,-0.008239871824216038
1539731602152847,0.050720988784618726,-1.0242465857938505,-0.027405203326466676
1539731602168849,0.04962233920805659,-1.0193636987869077,-0.038757915617608774
1539731602184850,0.04827954528114731,-1.0261997405966277,-0.03961242084382377
1539731602200852,0.05145342183566015,-1.0310826276035705,-0.04339665827420447
1539731602216980,0.05804531929503298,-1.0165560387579156,-0.044251163500419466
1539731602232982,0.06488136110475295,-0.9976348516060121,-0.058411535820553695
1539731602248984,0.06256198977645511,-1.0005645838101778,-0.07110704203860552
1539731602264986,0.06036469062333083,-1.0158236057068741,-0.08026245517662334
1539731602280988,0.062195773250934394,-1.032669565880827,-0.08722056916151688
1539731602296990,0.06366063935301725,-1.0429236285954069,-0.09356832227054257
1539731602312993,0.06683451590753009,-1.0387731746395055,-0.0955214770733197
1539731602328995,0.06939803158617508,-1.026688029297322,-0.08819714656290545
1539731602344997,0.07598992904554791,-1.013015945677882,-0.08599984740978117
1539731602360999,0.07330434119172935,-0.9967803463797971,-0.08368047608148332
1539731602377001,0.07574578469520077,-0.9890897993438621,-0.08453498130769832
1539731602393004,0.07037460898756365,-0.978591592278935,-0.09112687876707115
1539731602409006,0.06927595941100151,-0.9774929427023729,-0.09332417792019543
1539731602425008,0.06915388723582794,-0.9765163653009843,-0.08941786831464116
1539731602441010,0.059876401922636546,-0.9766384374761579,-0.09686427100022899
1539731602457012,0.05108720531013944,-0.9790798809796293,-0.10431067368581681
1539731602473014,0.041687647821774476,-0.98628213931487,-0.10431067368581681
1539731602489017,0.03350881208514522,-0.9806668192568857,-0.10540932326237895
1539731602505019,0.022156099794003126,-0.9856717784390021,-0.10650797283894109
1539731602521021,0.033752956435492365,-0.9927519645990692,-0.11114671549553679
1539731602537140,0.041687647821774476,-1.0021515220874342,-0.1316548409246967
1539731602553142,0.04827954528114731,-1.000808728160525,-0.13531700617990383
1539731602569145,0.040100709544518054,-1.0086213473716334,-0.11212329289692535
1539731602585147,0.038879987792782345,-1.0125276569771877,-0.09088273441672401
1539731602601150,0.04193179217212162,-0.9961699855039292,-0.08172732127870619
1539731602617153,0.04180971999694805,-0.9719996948195622,-0.07721065079728406
1539731602633155,0.03851377126726163,-0.9577172503242544,-0.06720073243305125
1539731602649158,0.03595025558861664,-0.96406500343328,-0.05255207141222229
1539731602665161,0.036438544289310926,-0.9701686121919586,-0.038757915617608774
1539731602681163,0.03289845120927737,-0.9748073548485543,-0.03424124513618665
1539731602697166,0.02789349202716096,-0.9774929427023729,-0.03936827649347663
1539731602713169,0.025696192874036683,-0.9848172732127871,-0.056946669718470844
1539731602729171,0.02020294499122599,-0.9933623254749371,-0.07025253681239052
1539731602745174,0.02667277027542525,-1.0056916151674677,-0.0783093003738462
1539731602761177,0.024597543297474544,-1.0072785534447242,-0.08148317692835905
1539731602777179,0.020569161516746703,-1.003616388189517,-0.08099488822766476
1539731602793182,0.022400244144350268,-1.0088654917219806,-0.0707408255130848
1539731602809185,0.02667277027542525,-1.0088654917219806,-0.06329442282749698
1539731602825187,0.026184481574730967,-1.0012970168612192,-0.05804531929503298
1539731602841190,0.02923628595407024,-0.9989776455329213,-0.0567025253681237
1539731602857269,0.034973678187228074,-0.9982452124818799,-0.05535973144121442
1539731602873272,0.035095750362401645,-0.9967803463797971,-0.05389486533913157
1539731602889275,0.04071107042038591,-1.0003204394598306,-0.04730296787975874
1539731602905278,0.03985656519417091,-1.0049591821164263,-0.041565575646600905
1539731602921281,0.045471885252155175,-1.0014190890363928,-0.042664225223163044
1539731602937285,0.04632639047837017,-1.00166323338674,-0.04974441138323016
1539731602953288,0.04742504005493231,-1.0082551308461127,-0.05767910276951227
1539731602969291,0.04901197833218873,-1.0060578316929885,-0.06268406195162912
1539731602985294,0.04608224612802303,-0.9959258411535821,-0.07098496986343195
1539731603001297,0.044007019150072324,-0.9955596246280614,-0.07635614557106907
1539731603017300,0.04132143129625376,-0.9987335011825742,-0.07708857862211049
1539731603033303,0.04095521477073305,-0.9948271915770199,-0.08331425955596261
1539731603049306,0.03558403906309593,-0.9926298924238957,-0.08953994048981473
1539731603065310,0.032288090333409514,-1.0022735942626078,-0.09503318837262542
1539731603081313,0.025940337224383825,-1.0141145952544441,-0.10003814755474183
1539731603097316,0.02777141985198739,-1.0169222552834363,-0.09588769359884042
1539731603113319,0.028381780727855244,-1.0120393682764934,-0.08892957961394687
1539731603129322,0.03057907988097952,-1.0081330586709392,-0.0783093003738462
1539731603145325,0.032532234683756656,-1.005325398641947,-0.07232776379034123
1539731603161328,0.0365606164644845,-1.0043488212405585,-0.0657358663309684
1539731603177459,0.040222781719691625,-1.0014190890363928,-0.062439917601281536
1539731603193463,0.04095521477073305,-1.0009308003356985,-0.0631723506523234
1539731603209467,0.04046692607003877,-0.9999542229343099,-0.06598001068131554
1539731603225470,0.03973449301899734,-0.9937285420004578,-0.07061875333791123
1539731603241474,0.041687647821774476,-0.9870145723659114,-0.07953002212558191
1539731603257477,0.04180971999694805,-0.9886015106431678,-0.0867322804608226
1539731603273481,0.03338673990997165,-0.9976348516060121,-0.09747463187609684
1539731603289485,0.02923628595407024,-1.0052033264667735,-0.10919356069275965
1539731603305488,0.028381780727855244,-0.9977569237811856,-0.11895933470664533
1539731603321492,0.03680476081483164,-0.9815213244831007,-0.12347600518806745
1539731603337495,0.038879987792782345,-0.9800564583810178,-0.12091248950942246
1539731603353499,0.04376287479972518,-0.9850614175631343,-0.10736247806515609
1539731603369503,0.04473945220111375,-0.9893339436942092,-0.08929579613946759
1539731603385506,0.04742504005493231,-0.9895780880445564,-0.0669565880827041
1539731603401510,0.05108720531013944,-0.9940947585259785,-0.05218585488670158
1539731603417513,0.05157549401083372,-1.006179903868162,-0.045593957427328746
1539731603433517,0.053772793163958,-1.0072785534447242,-0.04315251392385733
1539731603449521,0.054627298390172996,-1.0049591821164263,-0.04608224612802303
1539731603465524,0.053284504463263715,-1.0037384603646906,-0.05511558709086728
1539731603481528,0.04876783398184159,-1.0063019760433356,-0.06329442282749698
1539731603497619,0.05023270008392444,-1.0055695429922942,-0.07086289768825837
1539731603513623,0.04840161745632088,-0.9967803463797971,-0.0791638056000612
1539731603529626,0.046570534828717314,-0.9951934081025406,-0.08026245517662334
1539731603545630,0.04437323567559304,-1.0034943160143435,-0.08453498130769832
1539731603561634,0.047913328755626594,-0.9965362020294499,-0.08453498130769832
1539731603577637,0.04107728694590662,-0.98628213931487,-0.08441290913252475
1539731603593641,0.0357061112382695,-0.9792019531548029,-0.07464713511863907
1539731603609645,0.04473945220111375,-0.9824979018844893,-0.06475928892957983
1539731603625648,0.043030441748683756,-0.990554665445945,-0.06146334019989297
1539731603641652,0.04498359655146089,-1.1103074692912185,-0.053284504463263715
1539731603657655,0.06488136110475295,-1.0381628137636376,-0.08136110475318548
1539731603673659,0.05157549401083372,-0.9711451895933472,-0.10565346761272609
1539731603689663,0.0060425726710917615,-1.0160677500572213,-0.06976424811169624
1539731603705666,0.0852674143587393,-1.0297398336766612,-0.07403677424277122
1539731603721670,0.03546196688792236,-1.0307164110780498,-0.052063782711528006
1539731603737673,0.03448538948653379,-1.0052033264667735,-0.0394903486686502
1539731603753677,0.04339665827420447,-1.0009308003356985,-0.03680476081483164
1539731603769681,0.03338673990997165,-1.0064240482185092,-0.03558403906309593
1539731603785684,0.031311512932020946,-0.9989776455329213,-0.04986648355840373
1539731603801688,0.03411917296101308,-0.98970016021973,-0.07086289768825837
1539731603817779,0.031311512932020946,-0.9878690775921264,-0.07696650644693692
1539731603833783,0.030090791180285237,-0.9916533150225071,-0.08245975432974761
1539731603849787,0.027405203326466676,-0.9966582742046235,-0.08612191958495474
1539731603865791,0.016662851911192433,-0.9884794384679942,-0.0838025482566569
1539731603881796,0.01617456321049815,-0.9856717784390021,-0.08624399176012831
1539731603897800,0.021911955443655984,-0.9853055619134814,-0.08514534218356618
1539731603913804,0.03289845120927737,-0.9848172732127871,-0.08441290913252475
1539731603929808,0.042908369573510186,-0.9859159227893493,-0.07733272297245763
1539731603945812,0.04608224612802303,-0.9873807888914321,-0.07354848554207694
1539731603961816,0.04632639047837017,-0.9883573662928207,-0.06598001068131554
1539731603977820,0.05279621576256943,-0.9842069123369193,-0.05523765926604085
1539731603993824,0.05255207141222229,-0.98457312886244,-0.03997863736934448
1539731604009828,0.0508430609597923,-0.9886015106431678,-0.02667277027542525
1539731604025832,0.04046692607003877,-0.9970244907301442,-0.021667811093308842
1539731604041836,0.03289845120927737,-1.0054474708171206,-0.035095750362401645
1539731604057840,0.03302052338445094,-0.9997100785839628,-0.05413900968947871
1539731604073845,0.0357061112382695,-0.9982452124818799,-0.06536964980544768
1539731604089849,0.04962233920805659,-1.0020294499122606,-0.062439917601281536
1539731604105853,0.054627298390172996,-1.0144808117799649,-0.05804531929503298
1539731604121857,0.03338673990997165,-1.0225375753414205,-0.04461738002594018
1539731604137909,0.06524757763027367,-1.0193636987869077,-0.02935835812924381
1539731604153913,0.07208361943999364,-1.011306935225452,-0.013122758831158876
1539731604169918,0.040100709544518054,-1.0109407186999313,-0.028747997253375956
1539731604185922,-0.014099336232547444,-1.001907377737087,-0.05218585488670158
1539731604201927,-0.04510566872663446,-1.0071564812695506,-0.08844129091325259
1539731604217931,-0.016784924086366004,-0.9926298924238957,-0.10443274586099038
1539731604233936,0.03265430685893023,-0.9668726634622722,-0.08233768215457404
1539731604249940,0.06622415503166224,-0.9497825589379723,-0.045593957427328746
1539731604265945,0.07635614557106862,-0.954421301594568,-0.011779964904249596
1539731604281950,0.06695658808270366,-0.9727321278706036,0.023010605020218122
1539731604297954,0.04840161745632088,-0.9965362020294499,0.044007019150072324
1539731604313959,0.04217593652246876,-1.0098420691233692,0.04315251392385733
1539731604329963,0.0634164950026701,-0.9778591592278936,0.011657892729076025
1539731604345968,0.0252079041733424,-0.9948271915770199,-0.0022583352407110624
1539731604361972,6.103608758678547E-5,-1.0685587853818572,-0.016540779736018862
1539731604377977,0.0386358434424352,-1.0900434882124057,-0.052918287937743
1539731604393982,0.03472953383688093,-1.039505607690547,-0.09564354924849328
1539731604409986,0.014221408407721015,-1.013015945677882,-0.1190814068818189
1539731604425991,0.02154573891813527,-1.0353551537346455,-0.10382238498512253
1539731604441995,0.045471885252155175,-1.0430457007705805,-0.0820935378042269
1539731604458099,0.0424200808728159,-0.9994659342336156,-0.04888990615701516
1539731604474104,0.016906996261539575,-0.9740749217975129,-0.020691233691920274
1539731604490108,0.02911421377889667,-0.9789578088044557,-0.016906996261539575
1539731604506113,0.03302052338445094,-0.9942168307011521,-0.01751735713740743
1539731604522117,0.03399710078583951,-0.9971465629053178,-0.025085831998168828
1539731604538122,0.05242999923704872,-0.9945830472266728,-0.02801556420233453
1539731604554126,0.03973449301899734,-0.9987335011825742,-0.04571602960250232
1539731604570131,0.022156099794003126,-0.9992217898832685,-0.0733043411917298
1539731604586135,0.017761501487754572,-1.0236362249179827,-0.08111696040283833
1539731604602140,0.01886015106431671,-1.0143587396047913,-0.09613183794918756
1539731604618145,0.02545204852368954,-0.9838406958113985,-0.09198138399328615
1539731604634149,0.03692683299000521,-0.9540550850690472,-0.08392462043183047
1539731604650154,0.03839169909208806,-0.9375753414206152,-0.07660028992141621
1539731604666158,0.040344853894865196,-0.9296406500343326,-0.07708857862211049
1539731604682163,0.036438544289310926,-0.9374532692454411,-0.08184939345387976
1539731604698167,0.030945296406500233,-0.9694361791409172,-0.08465705348287189
1539731604714172,0.02423132677195383,-1.0041046768902113,-0.09491111619745185
1539731604730177,0.02532997634851597,-1.0094758525978484,-0.09857328145265898
1539731604746181,0.03302052338445094,-1.0109407186999313,-0.1039444571602961
1539731604762186,0.033630884260318794,-1.0176546883344777,-0.0993057145037004
1539731604778259,0.028625925078202386,-1.0193636987869077,-0.07769893949797835
1539731604794264,0.019348439765010994,-1.0082551308461127,-0.06427100022888554
1539731604810269,0.012756542305638163,-1.0055695429922942,-0.05743495841916513
1539731604826274,0.007629510948348184,-1.014724956130312,-0.06646829938200982
1539731604842279,0.011779964904249596,-1.007034409094377,-0.08404669260700404
1539731604858284,0.011657892729076025,-1.0009308003356985,-0.09942778667887398
1539731604874289,0.0016479743648432077,-0.9918974593728542,-0.10968184939345393
1539731604890294,0.005676356145571049,-1.0081330586709392,-0.1077286945906768
1539731604906299,0.015808346684977437,-1.0319371328297855,-0.09698634317540256
1539731604922304,0.019592584115358136,-1.0282749675745784,-0.07525749599450693
1539731604938309,0.03070115205615309,-1.0122835126268406,-0.04583810177767589
1539731604954314,0.05035477225909801,-0.9926298924238957,-0.02264438849469741
1539731604970319,0.06292820630197582,-0.9784695201037614,0.006286717021438903
1539731604986324,0.06488136110475295,-0.9826199740596628,0.03533989471274879
1539731605002329,0.06488136110475295,-0.9939726863508049,0.04632639047837017
1539731605018334,0.05365072098878443,-1.0052033264667735,0.048035400930800165
1539731605034340,0.04058899824521234,-1.009597924773022,0.030090791180285237
1539731605050345,0.031067368581673804,-1.0126497291523613,-0.006897077897306758
1539731605066350,0.015808346684977437,-1.0143587396047913,-0.043030441748683756
1539731605082355,0.013000686655985305,-1.0141145952544441,-0.0783093003738462
1539731605098419,0.007385366598001042,-1.0176546883344777,-0.11371023117418178
1539731605114424,-0.0060425726710917615,-1.0238803692683298,-0.13678187228198668
1539731605130429,-0.0042114900434881974,-1.0180209048599984,-0.1450827801937895
1539731605146434,0.003112840466926059,-1.0049591821164263,-0.13189898527504385
1539731605162439,0.009216449225604606,-0.9900663767452507,-0.10736247806515609
1539731605178444,0.014099336232547444,-0.9796902418554971,-0.07989623865110262
1539731605194449,0.005920500495918191,-0.970046540016785,-0.04510566872663446
1539731605210454,0.021667811093308842,-0.9907988097962921,-0.020691233691920274
1539731605226459,0.030945296406500233,-0.9969024185549706,-0.010193026626993174
1539731605242464,0.031189440756847375,-0.9846952010376135,-0.010315098802166744
1539731605258469,0.02398718242160669,-0.9934843976501107,-0.018371862363622427
1539731605274474,0.0252079041733424,-1.0182650492103456,-0.02923628595407024
1539731605290479,0.030945296406500233,-1.027542534523537,-0.03546196688792236
1539731605306484,0.038757915617608774,-1.007034409094377,-0.04205386434729519
1539731605322489,0.04473945220111375,-0.99140917067216,-0.04730296787975874
1539731605338494,0.04840161745632088,-0.9816433966582743,-0.051819638361180864
1539731605354499,0.0424200808728159,-0.9882352941176471,-0.04254215304798947
1539731605370504,0.042786297398336615,-0.9915312428473335,-0.040344853894865196
1539731605386510,0.0386358434424352,-1.00166323338674,-0.03314259555962451
1539731605402515,0.03851377126726163,-1.0110627908751049,-0.03729304951552592
1539731605418579,0.03204394598306237,-1.0146028839551384,-0.03399710078583951
1539731605434584,0.029724574654764524,-1.0049591821164263,-0.03607232776379021
1539731605450590,0.023620965896085977,-0.9947051194018464,-0.03057907988097952
1539731605466595,0.019470511940184565,-0.9926298924238957,-0.011902037079423167
1539731605482601,0.00982681010147246,-1.0153353170061798,0.018249790188448856
1539731605498606,0.023743038071259548,-1.0174105439841306,0.017639429312581
1539731605514612,0.0386358434424352,-1.0238803692683298,0.026916914625772392
1539731605530617,0.03704890516517878,-1.0141145952544441,0.026306553749904538
1539731605546623,0.04217593652246876,-1.0032501716639963,0.016540779736018862
1539731605562628,0.04376287479972518,-1.00166323338674,0.019592584115358136
1539731605578634,0.021911955443655984,-1.0125276569771877,0.023254749370565264
1539731605594639,0.01239032578011745,-1.0163118944075684,0.019470511940184565
1539731605610645,0.021911955443655984,-1.0080109864957656,0.013122758831158876
1539731605626650,0.028870069428549527,-0.9978789959563592,0.00323491264209963
1539731605642656,0.03155565728236809,-0.9955596246280614,-6.103608758678547E-5
1539731605658661,0.031189440756847375,-0.9993438620584421,-0.002746623941405346
1539731605674667,0.03448538948653379,-0.9997100785839628,0.008972304875257464
1539731605690672,0.041687647821774476,-0.9959258411535821,0.01898222323949028
1539731605706678,0.04217593652246876,-0.9971465629053178,0.027649347676813818
1539731605722684,0.042664225223163044,-1.0031280994888228,0.03607232776379021
1539731605738739,0.04071107042038591,-1.0071564812695506,0.03326466773479808
1539731605754744,0.03826962691691449,-1.0084992751964599,0.032532234683756656
1539731605770750,0.036194399938963784,-1.0099641412985427,0.026916914625772392
1539731605786755,0.031311512932020946,-1.0141145952544441,0.02020294499122599
1539731605802761,0.027038986800945963,-1.0054474708171206,0.012756542305638163
1539731605818766,0.0252079041733424,-0.9975127794308385,0.009338521400778177
1539731605834772,0.02777141985198739,-0.9881132219424735,0.01104753185320817
1539731605850777,0.02545204852368954,-0.9884794384679942,0.023010605020218122
1539731605866783,0.030090791180285237,-0.9823758297093157,0.03045700770580595
1539731605882788,0.02911421377889667,-0.9824979018844893,0.03973449301899734
1539731605898794,0.026062409399557396,-0.9975127794308385,0.03265430685893023
1539731605914799,0.028137636377508102,-1.0114290074006256,0.008606088349736751
1539731605930805,0.028870069428549527,-1.0180209048599984,-0.01873807888914314
1539731605946810,0.025574120698863112,-1.0177767605096513,-0.043030441748683756
1539731605962816,0.032410162508583085,-1.020706492713817,-0.0508430609597923
1539731605978821,0.03167772945754166,-1.0187533379110398,-0.051941710536354435
1539731605994827,0.03216601815823594,-1.0060578316929885,-0.036316472114137355
1539731606010832,0.020569161516746703,-1.0103303578240634,-0.019592584115358136
1539731606026838,0.04388494697489875,-0.9936064698252842,-0.01483176928358887
1539731606042843,0.02789349202716096,-0.9926298924238957,-0.009582665751125319
1539731606058868,0.04083314259555948,-0.9787136644541086,-0.012756542305638163
1539731606074874,0.03607232776379021,-1.0014190890363928,-0.011779964904249596
1539731606090880,0.0575570305943387,-1.0136263065537499,-0.025574120698863112
1539731606106886,0.015442130159456724,-1.0124055848020141,-0.017639429312581
1539731606122892,0.011535820553902454,-1.0139925230792706,-0.02154573891813527
1539731606138898,0.045471885252155175,-1.0065461203936827,-0.020935378042267416
1539731606154904,0.033630884260318794,-1.0102082856488899,-0.001159685664148924
1539731606170910,0.027405203326466676,-1.002517738612955,0.009216449225604606
1539731606186916,0.024719615472648115,-0.9945830472266728,0.010559243152513886
1539731606202922,0.024597543297474544,-0.987136644541085,0.008117799649042468
1539731606218928,0.031311512932020946,-0.9807888914320593,0.0036011291676203427
1539731606234934,0.019836728465705278,-0.9895780880445564,-6.103608758678547E-5
1539731606250940,0.025818265049210254,-0.9966582742046235,-0.009216449225604606
1539731606266946,0.027405203326466676,-1.0060578316929885,-0.00970473792629889
1539731606282952,0.026916914625772392,-1.0125276569771877,-0.010681315327687457
1539731606298958,0.03668268863965807,-1.013870450904097,-0.005065995269703194
1539731606314964,0.03790341039139378,-1.0128938735027084,6.713969634546402E-4
1539731606330970,0.03973449301899734,-1.0084992751964599,0.00836194399938961
1539731606346976,0.03790341039139378,-1.0092317082475013,0.0039673456931410556
1539731606362982,0.03668268863965807,-1.0100862134737163,-0.0017700465400167786
1539731606379058,0.033630884260318794,-1.0060578316929885,-0.0015259021896696368
1539731606395064,0.035217822537575216,-1.0031280994888228,0.008239871824216038
1539731606411070,0.033630884260318794,-0.9945830472266728,0.019104295414663852
1539731606427076,0.015686274509803866,-0.9895780880445564,0.02801556420233453
1539731606443082,0.016540779736018862,-0.9909208819714657,0.016540779736018862
1539731606459088,0.008117799649042468,-0.9911650263218128,0.003479056992446772
1539731606475094,0.03680476081483164,-0.9948271915770199,-0.011535820553902454
1539731606491100,0.04449530785076661,-0.9967803463797971,-0.036438544289310926
1539731606507106,0.04364080262455161,-1.004226749065385,-0.054627298390172996
1539731606523112,0.04718089570458517,-1.0082551308461127,-0.055970092317082276
1539731606539118,0.04986648355840373,-1.0146028839551384,-0.04888990615701516
1539731606555124,0.04510566872663446,-1.018142977035172,-0.03350881208514522
1539731606571130,0.04962233920805659,-1.0171663996337834,-0.011413748378728883
1539731606587136,0.05108720531013944,-1.0059357595178149,0.00836194399938961
1539731606603142,0.04596017395284946,-0.9995880064087892,0.0252079041733424
1539731606619148,0.03790341039139378,-0.9986114290074006,0.03302052338445094
1539731606635154,0.03533989471274879,-0.9909208819714657,0.03741512169069949
1539731606651160,0.023254749370565264,-0.9855497062638285,0.038879987792782345
1539731606667166,0.006408789196612474,-0.9872587167162585,0.02667277027542525
1539731606683172,0.023376821545738835,-0.9938506141756314,-0.02911421377889667
1539731606699218,0.049134050507362304,-1.0050812542916,-0.08734264133669045
1539731606715224,0.053772793163958,-1.0034943160143435,-0.12310978866254674
1539731606731230,0.053772793163958,-0.9989776455329213,-0.12249942778667888
1539731606747236,0.03216601815823594,-1.00337224383917,-0.09600976577401399
1539731606763242,0.026062409399557396,-1.0166781109330891,-0.040222781719691625
1539731606779248,0.02410925459678026,-1.016433966582742,0.004699778744182481
1539731606795254,0.015197985809109582,-0.9965362020294499,0.030945296406500233
1539731606811260,0.010193026626993174,-0.9906767376211185,0.025818265049210254
1539731606827266,0.0014038300144960658,-1.0038605325398642,-0.00836194399938961
1539731606843272,0.00579842832074462,-1.0194857709620813,-0.058533607995727266
1539731606859278,0.011535820553902454,-1.022659647516594,-0.10162508583199825
1539731606875284,0.017639429312581,-1.0071564812695506,-0.10113679713130397
1539731606891290,0.03033493553063238,-0.9967803463797971,-0.061097123674372256
1539731606907296,0.035217822537575216,-0.9938506141756314,-0.020813305867093845
1539731606923302,0.027283131151293105,-1.0017853055619135,-0.011291676203555312
1539731606939308,0.015686274509803866,-1.0248569466697184,-0.014221408407721015
1539731606955314,0.024841687647821686,-1.0583047226672768,-0.011657892729076025
1539731606971320,0.04571602960250232,-1.0852826733806364,0.017151140611886717
1539731606987326,0.06756694895857152,-1.055985351338979,0.027527275501640247
1539731607003332,0.04510566872663446,-1.027786678873884,0.013855191882200302
1539731607019378,0.03607232776379021,-1.0264438849469748,-0.015197985809109582
1539731607035385,0.030823224231326662,-1.040604257267109,-0.03179980163271523
1539731607051391,0.037659266041046635,-1.0607461661707482,0.05767910276951227
1539731607067398,0.050476844434271584,-1.0330357824063476,0.03546196688792236
1539731607083404,0.03558403906309593,-1.0699015793087665,0.02679484245059882
1539731607099411,0.02276646066987098,-1.0661173418783858,-0.004699778744182481
1539731607115417,0.016540779736018862,-1.0529335469596397,-0.0214236667429617
1539731607131424,6.713969634546402E-4,-1.0304722667277026,-0.038879987792782345
1539731607147430,-0.023743038071259548,-0.9939726863508049,-0.05487144274052014
1539731607163437,-0.03851377126726163,-0.9635767147325858,-0.06903181506065481
1539731607179443,-0.059876401922636546,-0.9284199282825969,-0.08953994048981473
1539731607195449,-0.05951018539711583,-0.9285420004577705,-0.10235751888303968
1539731607211456,-0.051819638361180864,-0.9365987640192261,-0.10614175631342038
1539731607227462,-0.05889982452124798,-0.9336690318150604,-0.09796292057679112
1539731607243469,-0.06622415503166268,-0.9179217212176698,-0.0707408255130848
1539731607259475,-0.07379262989242408,-0.902784771496147,-0.049256122682535874
1539731607275482,-0.07342641336690336,-0.8961928740367742,-0.011657892729076025
1539731607291488,-0.07660028992141621,-0.8981460288395513,0.007751583123521755
1539731607307495,-0.06646829938200982,-0.9164568551155869,0.022400244144350268
1539731607323501,-0.05352864881361086,-0.9326924544136719,0.03692683299000521
1539731607339538,-0.045349813076981604,-0.9350118257419697,0.06207370107576082
1539731607355545,-0.05023270008392444,-0.9279316395819026,0.09820706492713782
1539731607371551,-0.05267414358739586,-0.9326924544136719,0.13446250095368928
1539731607387558,-0.050720988784618726,-0.9488059815365837,0.13507286182955713
1539731607403564,-0.05560387579156156,-0.9776150148775464,0.10357824063477494
1539731607419571,-0.0365606164644845,-1.0210727092393377,0.06378271152819082
1539731607435577,-0.030823224231326662,-1.0552529182879375,0.02777141985198739
1539731607451583,-0.019470511940184565,-1.0801556420233465,0.014587624933241727
1539731607467590,-0.028747997253375956,-1.0775921263447015,0.010437170977340315
1539731607483596,-0.035217822537575216,-1.066361486228733,0.01739528496223386
1539731607499603,-0.03070115205615309,-1.0608682383459218,0.03045700770580595
1539731607515609,-0.023620965896085977,-1.051712825207904,0.03533989471274879
1539731607531616,-0.024963759822995257,-1.037796597238117,0.033752956435492365
1539731607547622,-0.024475471122300974,-1.0186312657358663,0.03167772945754166
1539731607563629,-0.022278171969176697,-1.0080109864957656,0.03717097734035235
1539731607579635,-0.02410925459678026,-0.9997100785839628,0.04046692607003877
1539731607595642,-0.019592584115358136,-0.988845654993515,0.04449530785076661
1539731607611648,-0.015686274509803866,-0.9787136644541086,0.04876783398184159
1539731607627655,-0.01629663538567172,-0.9656519417105365,0.05157549401083372
1539731607643661,-0.02020294499122599,-0.9628442816815443,0.05413900968947871
1539731607659698,-0.019592584115358136,-0.9652857251850158,0.04754711223010588
1539731607675705,-0.011291676203555312,-0.9719996948195622,0.0499885557335773
1539731607691711,-0.0026245517662317752,-1.0084992751964599,0.06988632028686936
1539731607707718,0.0038452735179674846,-1.0710002288853286,0.10553139543755208
1539731607723724,1.831082627603564E-4,-1.1284962233920806,0.13324177920195357
1539731607739730,-0.007629510948348184,-1.1255664911879149,0.1369039444571607
1539731607755737,-0.015564202334630295,-1.0669718471046008,0.12750438696879574
1539731607771743,-0.019226367589837423,-0.9907988097962921,0.10760662241550278
1539731607787750,-0.0252079041733424,-0.9376974135957887,0.08551155870908644
1539731607803756,-0.03179980163271523,-0.9219501029983976,0.054627298390172996
1539731607819763,-0.028259708552681673,-0.9507591363393608,0.03216601815823594
1539731607835769,-0.019226367589837423,-1.0030060273136492,0.027527275501640247
1539731607851776,-0.01739528496223386,-1.0410925459678033,0.04779125658045302
1539731607867782,-0.01617456321049815,-1.0524452582589454,0.0794079499504079
1539731607883789,-0.017151140611886717,-1.0330357824063476,0.11200122072175134
1539731607899795,-0.012512397955291021,-1.0049591821164263,0.12652780956740717
1539731607915802,-0.010559243152513886,-0.9933623254749371,0.12152285038528987
1539731607931808,-0.009216449225604606,-0.9890897993438621,0.1012588693064771
1539731607947815,-0.008117799649042468,-0.9983672846570535,0.08209353780422646
1539731607963821,-0.007385366598001042,-0.9938506141756314,0.0718394750896465
1539731607979858,-0.014343480582894585,-0.98970016021973,0.07745479514763076
1539731607995864,-0.01739528496223386,-0.9835965514610514,0.0814831769283586
1539731608011871,-0.02032501716639956,-0.9876249332417792,0.0823376821545736
1539731608027877,-0.017151140611886717,-1.002517738612955,0.08746471351186358
1539731608043884,-0.014099336232547444,-1.0132600900282291,0.09417868314640998
1539731608059890,-0.01239032578011745,-1.0109407186999313,0.09515526054779855
1539731608075897,-0.013488975356679589,-0.9976348516060121,0.09002822919050857
1539731608091903,-0.013488975356679589,-0.9954375524528878,0.09234760051880642
1539731608107910,-0.00970473792629889,-1.0014190890363928,0.10455481803616351
1539731608123916,-0.012634470130464592,-1.0077668421454185,0.1062638284885935
1539731608139923,-0.012878614480811734,-1.0139925230792706,0.09539940489814569
1539731608155929,-0.011169604028381741,-1.0220492866407263,0.09295796139467427
1539731608171936,-0.010070954451819603,-1.0178988326848248,0.09393453879606284
1539731608187942,-0.006897077897306758,-1.0059357595178149,0.09613183794918712
1539731608203949,-0.006775005722133187,-1.0005645838101778,0.09918364232852639
1539731608219955,-0.009948882276646032,-1.0076447699702449,0.09356832227054213
1539731608235962,-0.009460593575951748,-1.0324254215304798,0.09332417792019498
1539731608251968,-0.0037232013427939137,-1.0628213931486994,0.0928358892195007
1539731608267974,-0.010559243152513886,-1.113603418020905,0.08294804303044145
1539731608283981,0.0018921187151903496,-1.1359426260776684,0.07782101167315147
1539731608300018,-0.009948882276646032,-1.1558403906309604,0.08844129091325215
1539731608316025,-0.004455634393835339,-1.1804989700160218,0.09942778667887353
1539731608332032,6.103608758678547E-5,-1.252521553368429,0.13128862439917643
1539731608348039,-4.272526131074983E-4,-1.3196612497138935,0.14044403753719426
1539731608364046,-0.006897077897306758,-1.400350957503624,0.10308995193408066
1539731608380053,-0.0018921187151903496,-1.4757915617608912,0.05548180361638799
1539731608396060,-0.011657892729076025,-1.5258411535820553,-0.009460593575951748
1539731608412067,-0.032288090333409514,-1.545860990310521,-0.06878767071030767
1539731608428074,-0.04437323567559304,-1.5192492561226825,-0.11761654077973605
1539731608444080,-0.05523765926604085,-1.4473487449454492,-0.13177691309987027
1539731608460087,-0.11773861295490962,-1.2677805752651254,-0.1115129320210575
1539731608476094,-0.14728007934691378,-1.11274891279469,-0.0648813611047534
1539731608492101,-0.1627832455939573,-0.935500114442664,-0.026916914625772392
1539731608508108,-0.18878461890592835,-0.8008545052262148,-0.024963759822995257
1539731608524115,-0.25690089265278093,-0.681467917906462,-0.02020294499122599
1539731608540122,-0.3075608453498129,-0.5540245670252535,-0.04217593652246876
1539731608556129,-0.3218432898451211,-0.46637674525062955,-0.024597543297474544
1539731608572136,-0.33173113603418036,-0.42890058747234283,0.02154573891813527
1539731608588143,-0.3493095292591746,-0.37164873731593806,0.044007019150072324
1539731608604150,-0.38178072785534445,-0.34222934309910746,0.07891966124971361
1539731608620178,-0.4138857099259936,-0.3256275272755018,0.11810482948042988
1539731608636185,-0.4502632181277182,-0.3159838254367897,0.1541161211566342
1539731608652192,-0.464545662623026,-0.2833905546654458,0.20379949645227757
1539731608668199,-0.45966277561608315,-0.2217441062027925,0.24969863431754025
1539731608684206,-0.43817807278553467,-0.13324177920195313,0.272526131074998
1539731608700213,-0.4380560006103611,-0.0499885557335773,0.2953536278324558
1539731608716220,-0.3865415426871137,0.06744487678339794,0.33209735255970063
1539731608732226,-0.3399099717708096,0.17608911268787697,0.41095597772182835
1539731608748233,-0.28534370946822296,0.36823071641107763,0.46674296177615027
1539731608764240,-0.16119630731670087,0.508369573510338,0.5121538109407187
1539731608780247,-0.01886015106431671,0.6400854505226219,0.4387884336614025
1539731608796254,0.2263828488593882,0.5047074082551308,0.42096589608606116
1539731608812261,0.5260700389105057,0.2272373540856032,0.2814373998626687
1539731608828268,0.7561760891126879,-0.2852216372930494,0.08099488822766432
1539731608844275,0.9513694972152287,-1.1460746166170748,-0.2246738384069582
1539731608860282,-0.270817120622568,-3.9998779278248264,-0.19305714503700333
1539731608876289,0.2343175402456703,-1.364217593652247,-0.798535133897917
1539731608892296,-0.31586175326161614,-0.7678950179293507,-0.11688410772869462
1539731608908303,-0.11493095292591748,-0.9029068436713206,0.17364766918440555
1539731608924310,-0.13238727397573813,-1.0522011139085983,0.09808499275196425
1539731608940368,-0.059876401922636546,-1.1399710078583962,0.05426108186465228
1539731608956375,-0.023254749370565264,-1.2139467460135807,0.04608224612802303
1539731608972382,-0.01483176928358887,-1.1421683070115205,0.07672236209658934
1539731608988389,-0.05621423666742942,-1.031815060654612,0.1386129549095907
1539731609004396,-0.10467689021133753,-0.8590829327840086,0.18207064927138195
1539731609020403,-0.1375143053330281,-0.7289539940489815,0.2310215915159839
1539731609036410,-0.14984359502555877,-0.6408178835736629,0.2533607995727474
1539731609052417,-0.16302738994430443,-0.6157930876630808,0.2544594491493095
1539731609068424,-0.16205081254291587,-0.6018768596932937,0.23382925154497602
1539731609084431,-0.17389181353475225,-0.6225070572976272,0.21454184786755182
1539731609100438,-0.1978179598687726,-0.6641336690318149,0.21222247653925397
1539731609116445,-0.20172426947432687,-0.7272449835965515,0.20440985732814543
1539731609132452,-0.19769588769359903,-0.8009765774013884,0.18927290760662263
1539731609148459,-0.18780804150453978,-0.8742198825055314,0.17071793698023985
1539731609164466,-0.17804226749065366,-0.9226825360494391,0.15265125505455135
1539731609180472,-0.16961928740367727,-0.9622339208056765,0.15265125505455135
1539731609196479,-0.17352559700923154,-0.9838406958113985,0.14850080109864994
1539731609212486,-0.1581445029373616,-1.0093537804226749,0.15545891508354348
1539731609228493,-0.15973144121461802,-1.012161440451667,0.1528953994048985
1539731609244500,-0.16351567864499872,-0.9988555733577478,0.1515526054779892
1539731609260528,-0.16815442130159441,-0.97944609750515,0.16681162737468558
1539731609276536,-0.16815442130159441,-0.9608911268787672,0.1768215457389184
1539731609292543,-0.16791027695124727,-0.943312733653773,0.18805218585488692
1539731609308550,-0.1555809872587166,-0.9234149691004805,0.17938506141756339
1539731609324558,-0.14947737850003806,-0.9175555046921491,0.16852063782711557
1539731609340565,-0.14520485236896308,-0.9202410925459676,0.17291523613336413
1539731609356573,-0.14154268711375595,-0.9291523613336383,0.18170443274586123
1539731609372580,-0.13739223315785454,-0.9466086823834594,0.1835355153734648
1539731609388588,-0.13055619134813456,-0.9665064469367515,0.17694361791409197
1539731609404595,-0.12237735561150531,-0.9900663767452507,0.15851071946288275
1539731609420602,-0.10638590066376752,-1.0171663996337834,0.15130846112764207
1539731609436610,-0.11078049897001607,-1.0287632562752727,0.13885709925993783
1539731609452617,-0.10748455024032966,-1.0349889372091248,0.14044403753719426
1539731609468625,-0.1077286945906768,-1.035233081559472,0.13751430533302855
1539731609484632,-0.10809491111619751,-1.0554970626382847,0.14142061493858282
1539731609500640,-0.09503318837262542,-1.0673380636301215,0.13849088273441712
1539731609516647,-0.08917372396429402,-1.0618448157473104,0.13421835660334214
1539731609532654,-0.08465705348287189,-1.0384069581139848,0.13165484092469715
1539731609548662,-0.09442282749675757,-1.0120393682764934,0.11944762340733917
1539731609564669,-0.08575570305943403,-1.0099641412985427,0.13531700617990428
1539731609580688,-0.08233768215457404,-1.0060578316929885,0.14129854276340925
1539731609596696,-0.08343633173113618,-0.9923857480735485,0.1553368429083699
1539731609612703,-0.08807507438773188,-0.9798123140306707,0.16620126649881772
1539731609628710,-0.08892957961394687,-0.9612573434042879,0.15863279163805633
1539731609644718,-0.091737239642939,-0.9589379720759901,0.1532616159304192
1539731609660725,-0.08685435263599617,-0.9585717555504694,0.15191882200350992
1539731609676733,-0.09100480659189758,-0.9505149919890137,0.1456931410696578
1539731609692740,-0.09869535362783255,-0.9583276112001222,0.14837872892347637
1539731609708747,-0.10113679713130397,-0.9724879835202564,0.1386129549095907
1539731609724755,-0.0963759822995347,-1.0022735942626078,0.12957961394674644
1539731609740762,-0.09076066224155044,-1.0675822079804687,0.11529716945143775
1539731609756770,-0.08160524910353262,-1.185015640497444,0.12091248950942202
1539731609772777,-0.0715953307392998,-1.2340886549172199,0.1432516975661864
1539731609788785,-0.06768902113374553,-1.1599908445868619,0.1637598229953463
1539731609804792,-0.06073090714885154,-1.0428015564202333,0.1797512779430841
1539731609820799,-0.0613412680247194,-0.9425803006027316,0.16998550392919842
1539731609836807,-0.06207370107576082,-0.8953383688105592,0.15106431677729493
1539731609852814,-0.06634622720683625,-0.8903334096284428,0.12469672693980272
1539731609868822,-0.06817730983443981,-0.9279316395819026,0.11017013809414777
1539731609884829,-0.0707408255130848,-0.9749294270237279,0.10101472495612995
1539731609900848,-0.06744487678339839,-1.0199740596627755,0.1138323033493549
1539731609916855,-0.06707866025787768,-1.039749752040894,0.1360494392309457
1539731609932863,-0.06854352635996053,-1.0424353398947126,0.14837872892347637
1539731609948870,-0.059754329747462975,-1.025223163195239,0.15045395590142707
1539731609964878,-0.053406576638437286,-1.000198367284657,0.13446250095368928
1539731609980885,-0.049378194857709445,-0.9892118715190357,0.12396429388876129
1539731609996893,-0.04437323567559304,-0.9856717784390021,0.10955977721827992
1539731610012900,-0.045593957427328746,-1.0039826047150378,0.10968184939345349
1539731610028907,-0.0462043183031966,-1.0148470283054856,0.10406652933546923
1539731610044915,-0.04693675135423803,-1.005325398641947,0.10577553978789922
1539731610060922,-0.05023270008392444,-0.9992217898832685,0.11810482948042988
1539731610076930,-0.04608224612802303,-0.9984893568322271,0.13324177920195357
1539731610092937,-0.04095521477073305,-0.987136644541085,0.14312962539101282
1539731610108945,-0.04193179217212162,-0.9789578088044557,0.15106431677729493
1539731610124952,-0.04449530785076661,-0.9722438391699093,0.14703593499656709
1539731610140959,-0.048035400930800165,-0.9805447470817121,0.13788052185854927
1539731610156967,-0.04864576180666802,-1.0043488212405585,0.13031204699778787
1539731610172974,-0.05255207141222229,-1.0231479362172884,0.1267719539177543
1539731610188982,-0.04986648355840373,-1.031204699778744,0.13006790264744073
1539731610204989,-0.049378194857709445,-1.022659647516594,0.13067826352330858
1539731610221008,-0.04962233920805659,-1.0066681925688563,0.13482871747921
1539731610237015,-0.049134050507362304,-0.9909208819714657,0.13482871747921
1539731610253023,-0.051941710536354435,-0.9849393453879607,0.13824673838406998
1539731610269030,-0.05242999923704872,-0.9917753871976807,0.1439841306172278
1539731610285038,-0.0604867627985044,-0.9964141298542764,0.14703593499656709
1539731610301045,-0.06195162890058725,-0.9933623254749371,0.14471656366826924
1539731610317052,-0.06536964980544768,-0.9955596246280614,0.1444724193179221
1539731610333060,-0.06427100022888554,-0.9990997177080949,0.13751430533302855
1539731610349067,-0.061097123674372256,-1.0028839551384756,0.13482871747921
1539731610365075,-0.06268406195162912,-1.003616388189517,0.12738231479362216
1539731610381082,-0.05096513313496587,-1.001052872510872,0.12042420080872773
1539731610397090,-0.04693675135423803,-0.9947051194018464,0.11895933470664488
1539731610413097,-0.041565575646600905,-0.9906767376211185,0.123476005188067
1539731610429104,-0.04339665827420447,-0.9959258411535821,0.1360494392309457
1539731610445112,-0.04254215304798947,-0.9983672846570535,0.14496070801861638
1539731610461119,-0.0424200808728159,-1.0020294499122606,0.15265125505455135
1539731610477127,-0.04058899824521234,-0.9967803463797971,0.15313954375524563
1539731610493134,-0.040344853894865196,-0.9912870984969864,0.14764629587243494
1539731610509142,-0.04437323567559304,-0.9984893568322271,0.14898908979934422
1539731610525149,-0.04974441138323016,-0.9977569237811856,0.13922331578545855
1539731610541168,-0.05108720531013944,-0.9955596246280614,0.1343404287785157
1539731610557175,-0.05426108186465228,-1.0017853055619135,0.1276264591439693
1539731610573183,-0.05389486533913157,-1.0142366674296177,0.12457465476462914
1539731610589190,-0.057068741893644415,-1.0175326161593041,0.12152285038528987
1539731610605198,-0.05279621576256943,-1.0099641412985427,0.12323186083771986
1539731610621205,-0.04742504005493231,-0.9981231403067063,0.12616159304188646
1539731610637212,-0.04388494697489875,-0.9893339436942092,0.12884718089570502
1539731610653220,-0.04180971999694805,-0.9915312428473335,0.13653772793163999
1539731610669227,-0.04083314259555948,-0.9921416037232014,0.13482871747921
1539731610685235,-0.042786297398336615,-0.9940947585259785,0.13617151140611927
1539731610701242,-0.04437323567559304,-0.9936064698252842,0.13922331578545855
1539731610717249,-0.050476844434271584,-0.9907988097962921,0.1398336766613264
1539731610733257,-0.05401693751430514,-0.9934843976501107,0.14142061493858282
1539731610749264,-0.056946669718470844,-0.9938506141756314,0.13556115053025142
1539731610765272,-0.060852979324025114,-1.0038605325398642,0.12994583047226715
1539731610781279,-0.05926604104676869,-1.0074006256198977,0.11944762340733917
1539731610797287,-0.05914396887159512,-1.0111848630502784,0.11139085984588348
1539731610813294,-0.05426108186465228,-1.0072785534447242,0.10724040588998207
1539731610829301,-0.04962233920805659,-1.0022735942626078,0.11212329289692491
1539731610845309,-0.04449530785076661,-0.99140917067216,0.12274357213702558
1539731610861328,-0.041565575646600905,-0.9816433966582743,0.12945754177157287
1539731610877335,-0.0357061112382695,-0.9795681696803236,0.13165484092469715
1539731610893343,-0.036316472114137355,-0.9878690775921264,0.12957961394674644
1539731610909350,-0.0394903486686502,-0.9950713359273671,0.13153276874952358
1539731610925357,-0.046570534828717314,-0.9971465629053178,0.13287556267643286
1539731610941365,-0.0508430609597923,-0.9967803463797971,0.13678187228198713
1539731610957372,-0.05523765926604085,-0.9929961089494164,0.1377584496833757
1539731610973380,-0.059876401922636546,-0.9948271915770199,0.13385214007782142
1539731610989387,-0.06207370107576082,-0.9958037689784085,0.12542915999084503
1539731611005395,-0.06536964980544768,-1.0012970168612192,0.1281147478446636
1539731611021402,-0.06512550545510054,-1.0021515220874342,0.130556191348135
1539731611037409,-0.0613412680247194,-1.0043488212405585,0.12652780956740717
1539731611053417,-0.05535973144121442,-1.0020294499122606,0.12372014953841415
1539731611069424,-0.05133134966048658,-1.004470893415732,0.12201113908598415
1539731611085432,-0.04901197833218873,-1.008743419546807,0.12005798428320702
1539731611101439,-0.044251163500419466,-1.0060578316929885,0.1259174486915393
1539731611117447,-0.04315251392385733,-1.0037384603646906,0.13043411917296144
1539731611133454,-0.04180971999694805,-0.9970244907301442,0.13641565575646641
1539731611149461,-0.04107728694590662,-0.9969024185549706,0.14007782101167354
1539731611165469,-0.04058899824521234,-0.9970244907301442,0.14044403753719426
1539731611181488,-0.04180971999694805,-0.9969024185549706,0.13665980010681356
1539731611197495,-0.04351873044937804,-0.9953154802777142,0.13763637750820212
1539731611213503,-0.04742504005493231,-0.9878690775921264,0.13678187228198713
1539731611229510,-0.05120927748531301,-0.985427634088655,0.1343404287785157
1539731611245517,-0.053772793163958,-0.9890897993438621,0.13141069657435
1539731611261525,-0.05279621576256943,-0.9953154802777142,0.12713817044327502
1539731611277532,-0.05169756618600729,-0.9953154802777142,0.12237735561150487
1539731611293540,-0.0567025253681237,-0.9965362020294499,0.12127870603494273
1539731611309547,-0.055725947966735134,-0.9981231403067063,0.1205462729839013
1539731611325554,-0.053040360112916574,-0.9959258411535821,0.11859311818112417
1539731611341562,-0.050720988784618726,-0.9962920576791028,0.11798275730525631
1539731611357569,-0.049378194857709445,-0.9936064698252842,0.11749446860456203
1539731611373577,-0.049134050507362304,-0.9909208819714657,0.12323186083771986
1539731611389584,-0.04632639047837017,-0.9965362020294499,0.12774853131914288
1539731611405592,-0.045471885252155175,-0.9993438620584421,0.1264057373922336
1539731611421599,-0.04693675135423803,-1.0014190890363928,0.12860303654535787
1539731611437606,-0.045471885252155175,-0.9939726863508049,0.13250934615091214
1539731611453614,-0.04888990615701516,-0.9895780880445564,0.13409628442816857
1539731611469621,-0.04742504005493231,-0.9921416037232014,0.13678187228198713
1539731611485629,-0.0499885557335773,-0.9994659342336156,0.13250934615091214
1539731611501648,-0.05267414358739586,-1.0064240482185092,0.13153276874952358
1539731611517655,-0.05413900968947871,-1.007888914320592,0.12701609826810145
1539731611533662,-0.05658045319295013,-1.0015411612115663,0.12127870603494273
1539731611549670,-0.06012054627298369,-0.9987335011825742,0.11895933470664488
1539731611565677,-0.05816739147020655,-0.9987335011825742,0.11859311818112417
1539731611581685,-0.057312886243991557,-1.004470893415732,0.12176699473563701
1539731611597692,-0.05816739147020655,-1.0049591821164263,0.12042420080872773
1539731611613700,-0.05365072098878443,-1.000808728160525,0.12884718089570502
1539731611629707,-0.05133134966048658,-0.9947051194018464,0.12970168612192
1539731611645714,-0.04840161745632088,-0.9921416037232014,0.13324177920195357
1539731611661722,-0.04730296787975874,-0.9975127794308385,0.13531700617990428
1539731611677729,-0.045593957427328746,-1.003616388189517,0.13495078965438356
1539731611693737,-0.048035400930800165,-1.0086213473716334,0.12652780956740717
1539731611709744,-0.04730296787975874,-1.007034409094377,0.1231097886625463
1539731611725752,-0.04974441138323016,-1.0037384603646906,0.12628366521706003
1539731611741759,-0.04852368963149445,-0.9964141298542764,0.1284809643701843
1539731611757766,-0.051819638361180864,-0.9940947585259785,0.1251850156404979
1539731611773774,-0.05145342183566015,-0.9982452124818799,0.12249942778667844
1539731611789781,-0.05108720531013944,-1.000808728160525,0.1205462729839013
1539731611805789,-0.05145342183566015,-0.9929961089494164,0.11651789120317346
1539731611821807,-0.05230792706187515,-0.9907988097962921,0.11322194247348705
1539731611837815,-0.053406576638437286,-0.9889677271686885,0.11029221026932134
1539731611853822,-0.05780117494468584,-0.9934843976501107,0.1138323033493549
1539731611869830,-0.05548180361638799,-0.9958037689784085,0.11493095292591704
1539731611885837,-0.0575570305943387,-1.0011749446860456,0.12323186083771986
1539731611901845,-0.05621423666742942,-1.0041046768902113,0.1255512321660186
1539731611917852,-0.05401693751430514,-1.0012970168612192,0.12542915999084503
1539731611933859,-0.05389486533913157,-0.9982452124818799,0.1231097886625463
1539731611949867,-0.05548180361638799,-0.9953154802777142,0.1214007782101163
1539731611965874,-0.056946669718470844,-0.9977569237811856,0.12103456168459559
1539731611981882,-0.050476844434271584,-1.0041046768902113,0.12005798428320702
1539731611997889,-0.04571602960250232,-1.0034943160143435,0.11834897383077703
1539731612013897,-0.044251163500419466,-0.9965362020294499,0.12274357213702558
1539731612029904,-0.04644846265354374,-0.9865262836652171,0.1310444800488293
1539731612045911,-0.049378194857709445,-0.9843289845120928,0.12994583047226715
1539731612061919,-0.053040360112916574,-0.9901884489204242,0.12372014953841415
1539731612077926,-0.05096513313496587,-1.0022735942626078,0.1184710460059506
1539731612093934,-0.048157473105973736,-1.0038605325398642,0.11261158159761919
1539731612109941,-0.048035400930800165,-0.9995880064087892,0.11651789120317346
1539731612125949,-0.048157473105973736,-0.9988555733577478,0.11810482948042988
1539731612141967,-0.048035400930800165,-0.9994659342336156,0.12457465476462914
1539731612157975,-0.04730296787975874,-1.0004425116350042,0.1284809643701843
1539731612173982,-0.04901197833218873,-0.9961699855039292,0.13214312962539143
1539731612189990,-0.05108720531013944,-0.9882352941176471,0.12957961394674644
1539731612205997,-0.051941710536354435,-0.9876249332417792,0.12298771648737272
1539731612222005,-0.053040360112916574,-0.9956816968032349,0.11859311818112417
1539731612238012,-0.05621423666742942,-1.005325398641947,0.1176165407797356
1539731612254019,-0.057312886243991557,-1.0127718013275349,0.12530708781567146
1539731612270027,-0.05767910276951227,-1.007034409094377,0.12323186083771986
1539731612286034,-0.059754329747462975,-0.9997100785839628,0.11261158159761919
1539731612302042,-0.055725947966735134,-0.9973907072556649,0.10357824063477494
1539731612318049,-0.05426108186465228,-0.9931181811245899,0.09442282749675712
1539731612334056,-0.051819638361180864,-0.990554665445945,0.10003814755474139
1539731612350064,-0.050720988784618726,-0.9947051194018464,0.10907148851758564
1539731612366071,-0.04840161745632088,-1.0000762951094835,0.12066834515907487
1539731612382079,-0.0508430609597923,-1.004470893415732,0.12372014953841415
1539731612398086,-0.05267414358739586,-1.0034943160143435,0.12530708781567146
1539731612414094,-0.0499885557335773,-0.9987335011825742,0.1205462729839013
1539731612430101,-0.0508430609597923,-0.9926298924238957,0.11212329289692491
1539731612446108,-0.05230792706187515,-0.990554665445945,0.11248950942244562
1539731612462158,-0.05487144274052014,-0.9907988097962921,0.11053635461966849
1539731612478166,-0.056946669718470844,-0.9947051194018464,0.11126878767070991
1539731612494174,-0.05951018539711583,-0.9990997177080949,0.11456473640039633
1539731612510182,-0.059754329747462975,-1.0039826047150378,0.11639581902799989
1539731612526189,-0.057312886243991557,-1.004470893415732,0.11871519035629774
1539731612542197,-0.05218585488670158,-1.0071564812695506,0.12079041733424845
1539731612558205,-0.0508430609597923,-1.007034409094377,0.11895933470664488
1539731612574213,-0.050476844434271584,-1.00166323338674,0.1184710460059506
1539731612590221,-0.0499885557335773,-1.0012970168612192,0.12372014953841415
1539731612606229,-0.05242999923704872,-1.0041046768902113,0.12249942778667844
1539731612622237,-0.05365072098878443,-1.0077668421454185,0.12066834515907487
1539731612638245,-0.053406576638437286,-1.0037384603646906,0.11749446860456203
1539731612654253,-0.0575570305943387,-0.9993438620584421,0.1155413138017849
1539731612670261,-0.06073090714885154,-1.0050812542916,0.1138323033493549
1539731612686268,-0.059754329747462975,-1.0125276569771877,0.10931563286793278
1539731612702276,-0.05816739147020655,-1.017288471808957,0.11615167467765275
1539731612718284,-0.05523765926604085,-1.0069123369192035,0.12176699473563701
1539731612734292,-0.05535973144121442,-0.990554665445945,0.12787060349431645
1539731612750300,-0.05609216449225585,-0.9805447470817121,0.12872510872053144
1539731612766308,-0.05999847409781012,-0.9876249332417792,0.12530708781567146
1539731612782318,-0.06195162890058725,-1.0030060273136492,0.11834897383077703
1539731612798326,-0.059632257572289404,-1.010452429999237,0.1129777981231399
1539731612814334,-0.05938811322194226,-1.0041046768902113,0.10907148851758564
1539731612830341,-0.059754329747462975,-0.9920195315480278,0.10553139543755208
1539731612846349,-0.06182955672541368,-0.9834744792858778,0.10382238498512208
1539731612862357,-0.06390478370336483,-0.9909208819714657,0.09918364232852639
1539731612878365,-0.06378271152819126,-0.9971465629053178,0.09430075532158355
1539731612894373,-0.06634622720683625,-0.9987335011825742,0.09906157015335282
1539731612910381,-0.06598001068131554,-0.9956816968032349,0.1024795910582128
1539731612926389,-0.0686655985351341,-0.9956816968032349,0.1091935606927592
1539731612942397,-0.06659037155718339,-0.9972686350804914,0.11236743724727205
1539731612958405,-0.06305027847714983,-0.9948271915770199,0.11041428244449492
1539731612974413,-0.061097123674372256,-0.9866483558403907,0.11236743724727205
1539731612990420,-0.06292820630197626,-0.9842069123369193,0.10907148851758564
1539731613006428,-0.06536964980544768,-0.9899443045700771,0.10614175631341993
1539731613022436,-0.06536964980544768,-0.9999542229343099,0.10846112764171778
1539731613038444,-0.0631723506523234,-1.002517738612955,0.10516517891203137
1539731613054452,-0.06366063935301769,-1.000198367284657,0.1041886015106428
1539731613070460,-0.06024261844815726,-1.000808728160525,0.10943770504310635
1539731613086468,-0.059876401922636546,-1.0000762951094835,0.11102464332036277
1539731613102478,-0.060852979324025114,-0.9997100785839628,0.11444266422522276
1539731613118486,-0.06195162890058725,-0.9964141298542764,0.11151293202105705
1539731613134493,-0.06292820630197626,-0.9960479133287556,0.10980392156862706
1539731613150501,-0.06207370107576082,-0.9959258411535821,0.11065842679484206
1539731613166509,-0.0613412680247194,-0.9971465629053178,0.11029221026932134
1539731613182517,-0.05938811322194226,-0.9975127794308385,0.1138323033493549
1539731613198525,-0.059876401922636546,-0.9976348516060121,0.11517509727626418
1539731613214533,-0.05767910276951227,-1.0017853055619135,0.11737239642938846
1539731613230541,-0.05658045319295013,-1.000198367284657,0.11371023117418133
1539731613246549,-0.06256198977645555,-0.9976348516060121,0.11346608682383419
1539731613262557,-0.061097123674372256,-0.9926298924238957,0.11065842679484206
1539731613278565,-0.06182955672541368,-0.9972686350804914,0.10955977721827992
1539731613294572,-0.06158541237506654,-1.0064240482185092,0.10992599374380063
1539731613310580,-0.06060883497367797,-1.0088654917219806,0.11126878767070991
1539731613326588,-0.06268406195162912,-0.9995880064087892,0.11309987029831348
1539731613342596,-0.0613412680247194,-0.9938506141756314,0.11419851987487561
1539731613358604,-0.0640268558785384,-0.9934843976501107,0.11114671549553634
1539731613374612,-0.06536964980544768,-0.9977569237811856,0.10382238498512208
1539731613390620,-0.06378271152819126,-1.0021515220874342,0.10260166323338638
1539731613406628,-0.06427100022888554,-1.0017853055619135,0.10162508583199781
1539731613422638,-0.06305027847714983,-1.0020294499122606,0.10443274586098994
1539731613438645,-0.0613412680247194,-0.9959258411535821,0.10833905546654421
1539731613454653,-0.0604867627985044,-0.98628213931487,0.10663004501411422
1539731613470661,-0.058411535820553695,-0.98970016021973,0.10785076676584993
1539731613486669,-0.057312886243991557,-0.9975127794308385,0.1062638284885935
1539731613502677,-0.057068741893644415,-1.005325398641947,0.10943770504310635
1539731613518685,-0.059754329747462975,-1.0066681925688563,0.1138323033493549
1539731613534693,-0.057312886243991557,-1.0034943160143435,0.11224536507209848
1539731613550701,-0.05902189669642155,-0.9990997177080949,0.11505302510109061
1539731613566709,-0.061097123674372256,-1.0012970168612192,0.11212329289692491
1539731613582717,-0.06256198977645555,-1.0052033264667735,0.10772869459067635
1539731613598724,-0.06268406195162912,-1.0088654917219806,0.10296787975890709
1539731613614732,-0.06170748455024011,-1.0052033264667735,0.10138094148165067
1539731613630740,-0.05926604104676869,-0.9955596246280614,0.10809491111619707
1539731613646748,-0.05523765926604085,-0.9859159227893493,0.11651789120317346
1539731613662756,-0.05743495841916513,-0.983718623636225,0.12652780956740717
1539731613678764,-0.05914396887159512,-0.988845654993515,0.130556191348135
1539731613694772,-0.06561379415579482,-0.9982452124818799,0.12372014953841415
1539731613710780,-0.06805523765926624,-1.0094758525978484,0.11529716945143775
1539731613726788,-0.06768902113374553,-1.0185091935606927,0.10052643625543567
1539731613742797,-0.06561379415579482,-1.0163118944075684,0.08953994048981428
1539731613758805,-0.05865568017090084,-1.00166323338674,0.09100480659189714
1539731613774813,-0.049256122682535874,-0.9865262836652171,0.10101472495612995
1539731613790821,-0.04742504005493231,-0.9812771801327536,0.1155413138017849
1539731613806829,-0.046570534828717314,-0.9866483558403907,0.12701609826810145
1539731613822837,-0.05145342183566015,-0.9932402532997635,0.12738231479362216
1539731613838845,-0.05401693751430514,-0.9971465629053178,0.12262149996185201
1539731613854853,-0.06036469062333083,-0.9949492637521935,0.11627374685282632
1539731613870861,-0.06671244373235696,-0.9892118715190357,0.10931563286793278
1539731613886869,-0.07440299076829193,-0.9927519645990692,0.10809491111619707
1539731613902876,-0.07904173342488763,-1.00166323338674,0.1050431067368578
1539731613918884,-0.07708857862211049,-1.007888914320592,0.10370031280994851
1539731613934892,-0.0733043411917298,-1.0098420691233692,0.09906157015335282
1539731613950900,-0.06512550545510054,-1.009597924773022,0.1033340962844278
1539731613966908,-0.055970092317082276,-1.006179903868162,0.10968184939345349
1539731613982916,-0.04974441138323016,-1.0031280994888228,0.11920347905699202
1539731613998924,-0.04888990615701516,-1.0055695429922942,0.1276264591439693
1539731614014932,-0.04754711223010588,-1.0089875638971542,0.13202105745021786
1539731614030940,-0.04864576180666802,-1.002517738612955,0.12249942778667844
1539731614046948,-0.05157549401083372,-0.9915312428473335,0.11248950942244562
1539731614062957,-0.05389486533913157,-0.9868925001907378,0.10528725108720494
1539731614078965,-0.05780117494468584,-0.9886015106431678,0.10138094148165067
1539731614094973,-0.06170748455024011,-0.9945830472266728,0.10431067368581637
1539731614110981,-0.06707866025787768,-0.9926298924238957,0.10455481803616351
1539731614126989,-0.07208361943999408,-0.9855497062638285,0.09991607537956781
1539731614142997,-0.0762340733958955,-0.9827420462348364,0.09222552834363285
1539731614159005,-0.07660028992141621,-0.9882352941176471,0.08917372396429357
1539731614175013,-0.07550164034485407,-0.9993438620584421,0.09210345616845927
1539731614191021,-0.07818722819867263,-1.0146028839551384,0.10321202410925423
1539731614207028,-0.06536964980544768,-1.0114290074006256,0.10406652933546923
1539731614223036,-0.06280613412680269,-1.0052033264667735,0.10540932326237851
1539731614239044,-0.0604867627985044,-0.9990997177080949,0.0986953536278321
1539731614255052,-0.05645838101777656,-1.0037384603646906,0.10064850843060924
1539731614271060,-0.057190814068817986,-1.0097199969481956,0.10199130235751852
1539731614287068,-0.059876401922636546,-1.015579461356527,0.10443274586098994
1539731614303076,-0.058533607995727266,-1.0050812542916,0.1004043640802621
1539731614319084,-0.05804531929503298,-0.9932402532997635,0.10101472495612995
1539731614335092,-0.057312886243991557,-0.9875028610666057,0.10223544670786566
1539731614351100,-0.05658045319295013,-0.9835965514610514,0.10968184939345349
1539731614367107,-0.05743495841916513,-0.9860379949645228,0.11712825207904132
1539731614383148,-0.058289463645380124,-0.9956816968032349,0.11358815899900776
1539731614399156,-0.05877775234607441,-1.0077668421454185,0.10675211718928779
1539731614415164,-0.057312886243991557,-1.0135042343785763,0.10138094148165067
1539731614431172,-0.05548180361638799,-1.0106965743495842,0.10101472495612995
1539731614447179,-0.058533607995727266,-1.003616388189517,0.10211337453269209
1539731614463187,-0.06256198977645555,-1.0037384603646906,0.10589761196307279
1539731614479195,-0.0631723506523234,-1.007034409094377,0.1050431067368578
1539731614495203,-0.06500343327992697,-1.0058136873426413,0.10089265278095638
1539731614511211,-0.06634622720683625,-1.0030060273136492,0.09820706492713782
1539731614527219,-0.06793316548409267,-1.0043488212405585,0.09466697184710426
1539731614543227,-0.07183947508964694,-1.006179903868162,0.09808499275196425
1539731614559235,-0.07013046463721695,-1.0009308003356985,0.09723048752574925
1539731614575243,-0.06732280460822482,-0.9894560158693828,0.0974746318760964
1539731614591251,-0.0669565880827041,-0.9855497062638285,0.09698634317540211
1539731614607258,-0.06561379415579482,-0.9911650263218128,0.0945448996719307
1539731614623266,-0.06536964980544768,-1.0047150377660792,0.089906157015335
1539731614639274,-0.06305027847714983,-1.0109407186999313,0.09222552834363285
1539731614655282,-0.05804531929503298,-1.0099641412985427,0.09613183794918712
1539731614671290,-0.05743495841916513,-1.0105745021744106,0.10308995193408066
1539731614687298,-0.05352864881361086,-1.0034943160143435,0.10467689021133708
1539731614703308,-0.04827954528114731,-0.9920195315480278,0.10138094148165067
1539731614719316,-0.050720988784618726,-0.9855497062638285,0.10199130235751852
1539731614735324,-0.054505226214999425,-0.9867704280155642,0.10296787975890709
1539731614751331,-0.0575570305943387,-0.9932402532997635,0.10199130235751852
1539731614767339,-0.0604867627985044,-0.9943389028763256,0.09564354924849283
1539731614783347,-0.06256198977645555,-0.9918974593728542,0.09173723964293856
1539731614799355,-0.07293812466620908,-0.9965362020294499,0.08209353780422646
1539731614815363,-0.08307011520561547,-1.002517738612955,0.07147325856412579
1539731614831371,-0.08172732127870619,-1.0144808117799649,0.07891966124971361
1539731614847379,-0.06793316548409267,-1.0188754100862134,0.08953994048981428
1539731614863387,-0.060852979324025114,-1.0154573891813534,0.11651789120317346
1539731614879395,-0.05279621576256943,-1.0005645838101778,0.13617151140611927
1539731614895403,-0.05499351491569371,-0.9911650263218128,0.15301747158007206
1539731614911410,-0.05401693751430514,-0.9878690775921264,0.1515526054779892
1539731614927418,-0.05511558709086728,-0.9887235828183414,0.14410620279240138
1539731614943426,-0.053406576638437286,-0.9838406958113985,0.13067826352330858
1539731614959434,-0.05621423666742942,-0.9834744792858778,0.11725032425421489
1539731614975442,-0.0567025253681237,-0.9938506141756314,0.11371023117418133
1539731614991450,-0.059632257572289404,-1.0021515220874342,0.11419851987487561
1539731615007458,-0.06622415503166268,-1.0032501716639963,0.12018005645838059
1539731615023468,-0.06659037155718339,-0.9998321507591363,0.11590753032730561
1539731615039476,-0.06720073243305125,-0.9975127794308385,0.10650797283894065
1539731615055483,-0.06671244373235696,-0.9984893568322271,0.09478904402227784
1539731615071491,-0.06634622720683625,-0.9972686350804914,0.07672236209658934
1539731615087499,-0.06463721675440626,-0.9964141298542764,0.06622415503166224
1539731615103507,-0.05999847409781012,-1.00166323338674,0.0634164950026701
1539731615119515,-0.05511558709086728,-1.0099641412985427,0.07635614557106862
1539731615135523,-0.050598916609445155,-1.0143587396047913,0.09759670405126997
1539731615151531,-0.043030441748683756,-1.0069123369192035,0.11737239642938846
1539731615167539,-0.04571602960250232,-1.001907377737087,0.12176699473563701
1539731615183547,-0.051819638361180864,-1.0011749446860456,0.11615167467765275
1539731615199555,-0.05804531929503298,-0.9975127794308385,0.10296787975890709
1539731615215562,-0.06268406195162912,-0.98457312886244,0.09100480659189714
1539731615231570,-0.06903181506065481,-0.9793240253299764,0.08038452735179646
1539731615247578,-0.07403677424277122,-0.9839627679865721,0.0802624551766229
1539731615263586,-0.07550164034485407,-0.9922636758983749,0.09210345616845927
1539731615279594,-0.07586785687037478,-0.9953154802777142,0.09967193102922067
1539731615295602,-0.07147325856412623,-0.9994659342336156,0.1033340962844278
1539731615311610,-0.06427100022888554,-0.9950713359273671,0.10675211718928779
1539731615327618,-0.06207370107576082,-0.9921416037232014,0.10406652933546923
1539731615343658,-0.062439917601281536,-0.9998321507591363,0.10260166323338638
1539731615359666,-0.05767910276951227,-1.0054474708171206,0.0949111161974514
1539731615375674,-0.05499351491569371,-1.0074006256198977,0.09259174486915356
1539731615391682,-0.053040360112916574,-1.00166323338674,0.09088273441672357
1539731615407690,-0.05877775234607441,-1.005325398641947,0.09076066224155
1539731615423698,-0.05743495841916513,-1.0126497291523613,0.09478904402227784
1539731615439705,-0.05889982452124798,-1.0127718013275349,0.09881742580300568
1539731615455713,-0.06073090714885154,-1.0050812542916,0.09979400320439424
1539731615471721,-0.062195773250934394,-0.9967803463797971,0.10089265278095638
1539731615487729,-0.06207370107576082,-0.9932402532997635,0.10760662241550278
1539731615503737,-0.06475928892957983,-0.9922636758983749,0.1146868085755699
1539731615519745,-0.06463721675440626,-0.9975127794308385,0.11615167467765275
1539731615535753,-0.06182955672541368,-1.0022735942626078,0.11798275730525631
1539731615551761,-0.06012054627298369,-1.0072785534447242,0.11493095292591704
1539731615567769,-0.054383154039825854,-1.0083772030212863,0.1062638284885935
1539731615583777,-0.04632639047837017,-1.006179903868162,0.09637598229953426
1539731615599784,-0.041687647821774476,-1.00166323338674,0.09100480659189714
1539731615615792,-0.04229800869764233,-1.0004425116350042,0.09332417792019498
1539731615631800,-0.04315251392385733,-0.9997100785839628,0.09881742580300568
1539731615647808,-0.04315251392385733,-0.9944609750514992,0.1012588693064771
1539731615663818,-0.04437323567559304,-0.9910429541466392,0.1033340962844278
1539731615679826,-0.04840161745632088,-0.9922636758983749,0.10528725108720494
1539731615695834,-0.05645838101777656,-0.9999542229343099,0.1050431067368578
1539731615711842,-0.0575570305943387,-1.00337224383917,0.10601968413824636
1539731615727850,-0.057190814068817986,-1.000198367284657,0.10382238498512208
1539731615743857,-0.053772793163958,-0.9965362020294499,0.10077058060578281
1539731615759865,-0.05474937056534657,-0.9972686350804914,0.09539940489814569
1539731615775873,-0.05804531929503298,-1.0020294499122606,0.09430075532158355
1539731615791881,-0.057312886243991557,-1.0037384603646906,0.0928358892195007
1539731615807889,-0.05914396887159512,-1.0055695429922942,0.09417868314640998
1539731615823897,-0.058289463645380124,-1.006179903868162,0.09076066224155
1539731615839905,-0.05743495841916513,-1.0088654917219806,0.08783093003738429
1539731615855913,-0.0575570305943387,-1.0039826047150378,0.0852674143587393
1539731615871921,-0.059754329747462975,-0.9948271915770199,0.0919813839932857
1539731615887929,-0.06427100022888554,-0.9911650263218128,0.09417868314640998
1539731615903936,-0.06305027847714983,-0.9923857480735485,0.09857328145265853
1539731615919944,-0.06256198977645555,-0.9988555733577478,0.10272373540855995
1539731615935952,-0.06121919584954583,-1.0048371099412527,0.10443274586098994
1539731615951960,-0.061097123674372256,-1.0075226977950713,0.10492103456168422
1539731615967968,-0.058533607995727266,-1.0059357595178149,0.10785076676584993
1539731615983978,-0.052918287937743,-1.0012970168612192,0.11322194247348705
1539731615999986,-0.049378194857709445,-0.9943389028763256,0.12396429388876129
1539731616015994,-0.05120927748531301,-0.9956816968032349,0.12738231479362216
1539731616032002,-0.05011062790875087,-1.0028839551384756,0.1176165407797356
1539731616048009,-0.050598916609445155,-1.0097199969481956,0.1062638284885935
1539731616064017,-0.04644846265354374,-1.0072785534447242,0.09674219882505497
1539731616080025,-0.045471885252155175,-0.9959258411535821,0.09845120927748496
1539731616096033,-0.04596017395284946,-0.9881132219424735,0.10357824063477494
1539731616112041,-0.0470588235294116,-0.9853055619134814,0.11139085984588348
1539731616128049,-0.05023270008392444,-0.9925078202487221,0.11627374685282632
1539731616144057,-0.05255207141222229,-1.0017853055619135,0.11627374685282632
1539731616160065,-0.05352864881361086,-1.0037384603646906,0.10675211718928779
1539731616176073,-0.05511558709086728,-0.9953154802777142,0.1012588693064771
1539731616192081,-0.0604867627985044,-0.9936064698252842,0.10223544670786566
1539731616208088,-0.06427100022888554,-1.0022735942626078,0.10467689021133708
1539731616224096,-0.05999847409781012,-1.0088654917219806,0.10516517891203137
1539731616240104,-0.055970092317082276,-1.007888914320592,0.10748455024032921
1539731616256112,-0.051941710536354435,-0.9983672846570535,0.11187914854657777
1539731616272120,-0.05133134966048658,-0.9893339436942092,0.11480888075074347
1539731616288128,-0.04827954528114731,-0.9865262836652171,0.11725032425421489
1539731616304138,-0.05035477225909801,-0.9911650263218128,0.11810482948042988
1539731616320146,-0.053772793163958,-1.0000762951094835,0.11798275730525631
1539731616336154,-0.05267414358739586,-1.0048371099412527,0.11309987029831348
1539731616352162,-0.05804531929503298,-1.0064240482185092,0.11285572594796633
1539731616368169,-0.05780117494468584,-1.0056916151674677,0.11395437552452847
1539731616384177,-0.06024261844815726,-1.0015411612115663,0.11419851987487561
1539731616400185,-0.05999847409781012,-0.9984893568322271,0.11309987029831348
1539731616416193,-0.06256198977645555,-1.0021515220874342,0.10687418936446136
1539731616432201,-0.06536964980544768,-1.0071564812695506,0.09723048752574925
1539731616448209,-0.06292820630197626,-1.0086213473716334,0.09210345616845927
1539731616464217,-0.0567025253681237,-1.0041046768902113,0.09259174486915356
1539731616480225,-0.058289463645380124,-0.9993438620584421,0.09759670405126997
1539731616496233,-0.05413900968947871,-0.9929961089494164,0.09527733272297212
1539731616512241,-0.05658045319295013,-0.9894560158693828,0.09442282749675712
1539731616528248,-0.056946669718470844,-0.9872587167162585,0.08929579613946714
1539731616544256,-0.05816739147020655,-0.9916533150225071,0.0928358892195007
1539731616560264,-0.06073090714885154,-0.9932402532997635,0.08770885786221072
1539731616576272,-0.06182955672541368,-0.9917753871976807,0.07684443427176291
1539731616592280,-0.06646829938200982,-0.9936064698252842,0.06915388723582794
1539731616608288,-0.06646829938200982,-1.0011749446860456,0.06439307240405867
1539731616624298,-0.06598001068131554,-1.007034409094377,0.06451514457923224
1539731616640306,-0.06439307240405912,-1.007888914320592,0.07342641336690292
1539731616656314,-0.06707866025787768,-1.0110627908751049,0.08685435263599572
1539731616672321,-0.06524757763027411,-1.0077668421454185,0.09271381704432713
1539731616688329,-0.06414892805371197,-1.0021515220874342,0.09417868314640998
1539731616704337,-0.06256198977645555,-0.9970244907301442,0.09137102311741785
1539731616720345,-0.06024261844815726,-0.9918974593728542,0.08282597085526788
1539731616736353,-0.059632257572289404,-0.9947051194018464,0.07867551689936647
1539731616752361,-0.05914396887159512,-1.0014190890363928,0.07318226901655578
1539731616768369,-0.05743495841916513,-1.004226749065385,0.06256198977645511
1539731616784377,-0.06427100022888554,-1.005325398641947,0.06268406195162868
1539731616800385,-0.06976424811169624,-0.9964141298542764,0.059632257572289404
1539731616816393,-0.0724498359655148,-0.9893339436942092,0.053162432288090145
1539731616832400,-0.06720073243305125,-0.9944609750514992,0.03717097734035235
1539731616848408,-0.06427100022888554,-1.0052033264667735,0.030090791180285237
1539731616864416,-0.06524757763027411,-1.0067902647440299,0.039124132143129486
1539731616880424,-0.06451514457923269,-1.0014190890363928,0.05535973144121442
1539731616896432,-0.06915388723582838,-0.9992217898832685,0.06060883497367797
1539731616912440,-0.062439917601281536,-0.9990997177080949,0.061097123674372256
1539731616928448,-0.05633630884260299,-0.9929961089494164,0.06829938200961294
1539731616944458,-0.05499351491569371,-0.9833524071107043,0.07598992904554791
1539731616960466,-0.06720073243305125,-0.9933623254749371,0.07928587777523433
1539731616976473,-0.07586785687037478,-1.0209506370641641,0.06451514457923224
1539731616992481,-0.07965209430075548,-1.026932173647669,0.03973449301899734
1539731617008489,-0.0736705577172505,-1.0072785534447242,0.027161058976119534
1539731617024497,-0.07806515602349906,-0.9881132219424735,0.01629663538567172
1539731617040505,-0.08014038300144977,-0.9973907072556649,0.02288853284504455
1539731617056513,-0.07733272297245763,-1.0137483787289234,0.013977264057373873
1539731617072521,-0.0783093003738462,-1.0094758525978484,0.023254749370565264
1539731617088529,-0.09198138399328615,-0.9750514991989014,0.01995880064087885
1539731617104537,-0.10882734416723894,-0.9693141069657436,0.007019150072480329
1539731617120545,-0.11139085984588393,-0.9801785305561914,0.0021362630655374915
1539731617136552,-0.129579613946746,-1.0092317082475013,0.0037232013427939137
1539731617152560,-0.12140077821011674,-1.0071564812695506,0.01861600671396957
1539731617168568,-0.093446250095369,-1.0081330586709392,0.059876401922636546
1539731617184576,-0.11883726253147175,-0.9737087052719922,0.053284504463263715
1539731617200584,-0.11285572594796678,-0.9788357366292821,0.07745479514763076
1539731617216592,-0.08221560997940047,-0.9872587167162585,0.1276264591439693
1539731617232600,-0.08038452735179691,-0.9959258411535821,0.13653772793163999
1539731617248608,-0.07135118638895266,-0.9772487983520257,0.07745479514763076
1539731617264618,-0.15118638895246805,-0.951003280689708,0.207095445181964
1539731617280625,-0.10919356069275965,-1.0558632791638054,0.11541924162661132
1539731617296633,-0.13824673838406953,-0.9601586938277258,0.003479056992446772
1539731617312641,-0.14288548104066523,-0.9890897993438621,0.03350881208514522
1539731617328649,-0.04571602960250232,-0.8026855878538184,-0.08319218738078904
1539731617344657,-0.009460593575951748,-1.0084992751964599,-0.046692607003890885
1539731617360665,-0.1995269703212026,-0.9646753643091479,-0.12335393301289388
1539731617376673,-0.17169451438162797,-1.027542534523537,-0.3023117418173493
1539731617392681,-0.22394140535591678,-1.0565957122148468,-0.3151293202105747
1539731617408689,-0.22943465323872747,-0.9959258411535821,-0.24725719081406883
1539731617424697,-0.18646524757763006,-0.9534447241931794,-0.23126573586633103
1539731617440704,-0.18097199969481936,-0.9594262607766844,-0.2385900663767453
1539731617456712,-0.17291523613336368,-0.934645609216449,-0.23700312809948887
1539731617472720,-0.18426794842450578,-0.9545433737697415,-0.20184634164950044
1539731617488728,-0.20990310521095612,-0.9886015106431678,-0.20294499122606258
1539731617504736,-0.18243686579690221,-0.9661402304112308,-0.19598687724116903
1539731617520744,-0.1505760280766002,-0.9541771572442208,-0.15863279163805588
1539731617536752,-0.15509269855802232,-0.9846952010376135,-0.12603952086671244
1539731617552760,-0.16913099870298298,-1.0106965743495842,-0.09478904402227828
1539731617568768,-0.15704585336079946,-1.0165560387579156,-0.06414892805371197
1539731617584777,-0.1552147707331959,-1.0037384603646906,-0.0613412680247194
1539731617600785,-0.15716792553597303,-0.9970244907301442,-0.07037460898756409
1539731617616793,-0.16681162737468513,-1.005325398641947,-0.08111696040283833
1539731617632801,-0.1644922560463873,-1.0114290074006256,-0.09954985885404755
1539731617648809,-0.1644922560463873,-0.9807888914320593,-0.09893949797817969
1539731617664817,-0.1560692759594109,-0.9971465629053178,-0.06878767071030767
1539731617680825,-0.1412985427634088,-0.9999542229343099,-0.07513542381933336
1539731617696833,-0.14984359502555877,-0.9773708705271993,-0.06561379415579482
1539731617712841,-0.12335393301289388,-0.980300602731365,-0.0214236667429617
1539731617728849,-0.11786068513008319,-0.9967803463797971,0.017273212787060288
1539731617744856,-0.12567330434119173,-1.0005645838101778,0.04083314259555948
1539731617760864,-0.12335393301289388,-0.9927519645990692,0.0651255054551001
1539731617776872,-0.15545891508354304,-0.9779812314030671,0.04180971999694805
1539731617792880,-0.1392233157854581,-0.9868925001907378,0.07452506294346506
1539731617808888,-0.1464255741206988,-1.0031280994888228,0.06610208285648866
1539731617824896,-0.1392233157854581,-1.0122835126268406,0.02655069810025168
1539731617840904,-0.15106431677729448,-1.0154573891813534,-0.019836728465705278
1539731617856912,-0.1560692759594109,-1.0064240482185092,-0.059754329747462975
1539731617872920,-0.14654764629587236,-0.9982452124818799,-0.07525749599450693
1539731617888928,-0.15387197680628661,-1.0141145952544441,-0.06805523765926624
1539731617904937,-0.16852063782711513,-1.0385290302891583,-0.05560387579156156
1539731617920945,-0.15924315251392374,-1.0432898451209276,-0.018371862363622427
1539731617936953,-0.14654764629587236,-1.0168001831082627,0.019226367589837423
1539731617952961,-0.164003967345693,-1.0014190890363928,0.05499351491569371
1539731617968969,-0.1480125123979552,-1.0043488212405585,0.07208361943999364
1539731617984977,-0.1560692759594109,-1.0412146181429769,0.0785534447241929
1539731618000985,-0.16644541084916442,-1.0852826733806364,0.06036469062333083
1539731618016993,-0.1753566796368351,-1.1065232318608378,0.04083314259555948
1539731618033001,-0.15655756466010518,-1.1396047913328755,0.0831921873807886
1539731618049008,-0.13568322270542454,-1.1064011596856642,0.09881742580300568
1539731618065016,-0.13861295490959025,-1.1327687495231555,0.08514534218356573
1539731618081024,-0.1509422446021209,-1.2301823453116656,0.08587777523460716
1539731618097032,-0.14398413061722737,-1.2907301441977568,0.027527275501640247
1539731618113040,-0.1505760280766002,-1.3163653009842071,-0.05804531929503298
1539731618129048,-0.15045395590142663,-1.3545738918135348,-0.13861295490959025
1539731618145056,-0.1736476691844051,-1.3439536125734342,-0.2280918593118182
1539731618161064,-0.20086976424811187,-1.3387045090409706,-0.2533607995727474
1539731618177072,-0.23334096284428174,-1.3017166399633782,-0.26019684138246735
1539731618193080,-0.2608072022583352,-1.2472724498359655,-0.2700846875715266
1539731618209087,-0.26019684138246735,-1.1968566414892807,-0.2704509040970473
1539731618225097,-0.2650797283894102,-1.1071335927367056,-0.2630045014114595
1539731618241105,-0.28546578164339653,-1.0248569466697184,-0.2146639200427254
1539731618257113,-0.31464103150988043,-0.9224383916990919,-0.15423819333180733
1539731618273121,-0.3362478065156025,-0.7644769970244907,-0.07696650644693692
1539731618289129,-0.38141451132982374,-0.6215304798962387,-0.005676356145571049
1539731618305137,-0.3865415426871137,-0.4956740672922866,0.0634164950026701
1539731618321145,-0.41669336995498574,-0.40399786373693436,0.12799267566949002
1539731618337153,-0.4252384222171357,-0.3495536736095217,0.19842832074464045
1539731618353160,-0.47443350881208524,-0.3256275272755018,0.24725719081406883
1539731618369168,-0.46857404440375383,-0.3049973296711679,0.30084687571526647
1539731618385176,-0.4950637064164187,-0.3143968871595333,0.3468680857557027
1539731618401184,-0.5043411917296101,-0.3015793087663079,0.3747005416952769
1539731618417192,-0.5112993057145037,-0.2982833600366215,0.39630731670099983
1539731618433200,-0.5043411917296101,-0.2888838025482565,0.38019378957808847
1539731618449208,-0.5199664301518272,-0.2781414511329823,0.3469901579308763
1539731618465216,-0.4889600976577402,-0.23004501411459533,0.31354238193331785
1539731618481224,-0.45502403295948746,-0.12762645914396886,0.30170138094148147
1539731618497232,-0.41498435950255574,0.03790341039139378,0.2973067826352329
1539731618513239,-0.3916685740444037,0.19916075379568188,0.22015716792553608
1539731618529247,-0.27777523460746156,0.3196459906919964,0.12091248950942202
1539731618545288,-0.12152285038529032,0.3255054551003278,0.07928587777523433
1539731618561296,0.05889982452124798,0.351628900587472,0.06414892805371153
1539731618577304,0.3079270618753336,0.274235141527428,0.10296787975890709
1539731618593311,0.4771190966659038,0.018127718013275285,-0.02911421377889667
1539731618609319,0.6355687800411998,-0.5434042877851528,-0.1316548409246967
1539731618625327,-0.8030518043793391,-3.9998779278248264,1.003616388189517
1539731618641335,0.015197985809109582,-1.0417029068436712,-0.16754406042572656
1539731618657343,-0.28534370946822296,-0.23968871595330743,0.3562676432440677
1539731618673351,-0.20526436255436042,-0.6276340886549172,0.5853971160448612
1539731618689359,-0.15448233768215447,-0.7113756008239873,0.36359197375448193
1539731618705367,-0.06927595941100195,-1.0775921263447015,0.2746013580529487
1539731618721375,-0.03717097734035235,-1.321492332341497,0.1448386358434428
1539731618737383,-0.018249790188448856,-1.4587014572365913,0.02032501716639956
1539731618753390,-0.027405203326466676,-1.4648050659952698,-0.07183947508964694
1539731618769398,-0.07989623865110262,-1.3312581063553828,-0.1152971694514382
1539731618785406,-0.16620126649881728,-1.1658503089951933,-0.06720073243305125
1539731618801414,-0.22272068360418107,-1.0034943160143435,0.007019150072480329
1539731618817422,-0.28119325551232155,-0.8679942015716793,0.054627298390172996
1539731618833430,-0.3135423819333183,-0.7693598840314335,0.07440299076829149
1539731618849438,-0.32086671244373255,-0.6963607232776381,0.09259174486915356
1539731618865448,-0.3240405889982454,-0.6598611429007399,0.11920347905699202
1539731618881456,-0.3218432898451211,-0.636789501792935,0.14312962539101282
1539731618897463,-0.3333180743114368,-0.6210421911955444,0.1432516975661864
1539731618913471,-0.33563744563973463,-0.6425268940260929,0.1444724193179221
1539731618929479,-0.3218432898451211,-0.7025864042114902,0.1477683680476085
1539731618945487,-0.3045090409704736,-0.7621576256961928,0.13885709925993783
1539731618961495,-0.29706263828488577,-0.8070801861600669,0.12750438696879574
1539731618977503,-0.30011444266422505,-0.8587167162584879,0.12689402609292788
1539731618993511,-0.2991378652628365,-0.9091325246051727,0.13263141832608571
1539731619009519,-0.2890058747234301,-0.9550316624704358,0.13665980010681356
1539731619025527,-0.278507667658503,-0.980300602731365,0.1394674601358057
1539731619041535,-0.27911802853437084,-0.9801785305561914,0.14215304798962425
1539731619057542,-0.28241397726405726,-0.9763942931258107,0.165835049973297
1539731619073550,-0.2918135347524222,-0.9639429312581065,0.17584496833752983
1539731619089558,-0.28497749294270225,-0.952712291142138,0.18963912413214334
1539731619105566,-0.2772869459067673,-0.9436789501792937,0.19171435111009405
1539731619121574,-0.2641031509880216,-0.9414816510261694,0.19366750591287119
1539731619137582,-0.24371709773403527,-0.9314717326619362,0.19464408331425975
1539731619153590,-0.24408331425955598,-0.9234149691004805,0.19000534065766406
1539731619169598,-0.24042114900434886,-0.9241474021515219,0.18707560845349835
1539731619185608,-0.22919050888838033,-0.9429465171282523,0.18719768062867193
1539731619201615,-0.21979095140001537,-0.9534447241931794,0.18512245365072122
1539731619217623,-0.2121004043640804,-0.9558861676966508,0.1876859693293662
1539731619233631,-0.2091706721599147,-0.9695582513160907,0.19244678416113548
1539731619249639,-0.2133211261158161,-0.982009613183795,0.1876859693293662
1539731619265647,-0.20062561989776473,-0.9981231403067063,0.18316929884794408
1539731619281655,-0.20148012512397973,-1.0139925230792706,0.17914091706721624
1539731619297663,-0.19012741283283763,-1.0133821622034027,0.17120622568093413
1539731619313671,-0.19427786678873904,-1.026932173647669,0.170962081330587
1539731619329679,-0.1867093919279772,-1.0288853284504462,0.1713282978561077
1539731619345687,-0.18829633020523406,-1.025833524071107,0.17547875181200911
1539731619361694,-0.19464408331425975,-1.0168001831082627,0.17645532921339768
1539731619377702,-0.19830624856946688,-1.0076447699702449,0.1747463187609677
1539731619393710,-0.19513237201495404,-1.0026398107881285,0.16986343175402485
1539731619409718,-0.18475623712520006,-0.9978789959563592,0.17376974135957912
1539731619425726,-0.18231479362172864,-0.9954375524528878,0.1751125352864884
1539731619441734,-0.1862211032272829,-0.9886015106431678,0.17901884489204267
1539731619457742,-0.18194857709620793,-0.9812771801327536,0.1809719996948198
1539731619473750,-0.18097199969481936,-0.9788357366292821,0.18329137102311766
1539731619489758,-0.18060578316929865,-0.9842069123369193,0.17779812314030696
1539731619505767,-0.17682154573891795,-0.9883573662928207,0.1671778439002063
1539731619521775,-0.18072785534447222,-0.987136644541085,0.16217288471808988
1539731619537783,-0.18731975280384505,-0.9754177157244222,0.1532616159304192
1539731619553791,-0.19964904249637616,-0.970901045243,0.1406881818875414
1539731619569799,-0.1948882276646069,-0.98115510795758,0.12445258258945557
1539731619585807,-0.19562066071564832,-0.9943389028763256,0.10687418936446136
1539731619601815,-0.1948882276646069,-1.0058136873426413,0.09967193102922067
1539731619617823,-0.18573281452658863,-0.9983672846570535,0.09393453879606284
1539731619633831,-0.18365758754863792,-0.9859159227893493,0.09442282749675712
1539731619649839,-0.1765774013885708,-0.9767605096513314,0.09735255970092282
1539731619665846,-0.15448233768215447,-0.9740749217975129,0.12445258258945557
1539731619681854,-0.15106431677729448,-0.97431906614786,0.15863279163805633
1539731619697862,-0.1430075532158388,-0.9763942931258107,0.18695353627832478
1539731619713870,-0.14837872892347592,-0.9810330357824064,0.1973296711680783
1539731619729878,-0.16217288471808944,-0.9921416037232014,0.1893949797817962
1539731619745886,-0.17730983443961224,-0.9998321507591363,0.16742198825055343
1539731619761894,-0.20428778515297186,-1.00337224383917,0.13751430533302855
1539731619777902,-0.22504005493247892,-1.0014190890363928,0.1071183337148085
1539731619793910,-0.23968871595330743,-1.0124055848020141,0.08172732127870574
1539731619809918,-0.22040131227588322,-1.023514152742809,0.07635614557106862
1539731619825927,-0.19928282597085545,-1.020706492713817,0.09222552834363285
1539731619841935,-0.17096208133058655,-0.9932402532997635,0.12018005645838059
1539731619857943,-0.13958953231097881,-0.9573510337987337,0.1499656672007328
1539731619873951,-0.1085831998168918,-0.9197528038452734,0.17230487525749627
1539731619889959,-0.10663004501411466,-0.9143816281376362,0.19171435111009405
1539731619905967,-0.10882734416723894,-0.9418478675516901,0.19940489814602902
1539731619921975,-0.13006790264744028,-0.9920195315480278,0.19159227893492048
1539731619937983,-0.15655756466010518,-1.0375524528877698,0.16815442130159486
1539731619953991,-0.17938506141756294,-1.0460975051499197,0.13800259403372284
1539731619969998,-0.20221255817502115,-1.035233081559472,0.10540932326237851
1539731619986006,-0.20697337300679042,-1.0192416266117341,0.08636606393530144
1539731620002014,-0.20062561989776473,-1.0031280994888228,0.0747692072938122
1539731620018022,-0.1867093919279772,-0.987136644541085,0.08331425955596217
1539731620034030,-0.16705577172503228,-0.9789578088044557,0.1109025711451892
1539731620050038,-0.14923323414969092,-0.9693141069657436,0.1394674601358057
1539731620066046,-0.1421530479896238,-0.9571068894483865,0.16363775082017273
1539731620082054,-0.14483863584344236,-0.9541771572442208,0.17108415350576056
1539731620098062,-0.1502098115510795,-0.9566186007476922,0.16400396734569345
1539731620114070,-0.16729991607537942,-0.9759060044251164,0.14459449149309567
1539731620130077,-0.1837796597238115,-0.9959258411535821,0.11566338597695847
1539731620146087,-0.19806210421911974,-1.0125276569771877,0.09002822919050857
1539731620162095,-0.19891660944533474,-1.0100862134737163,0.0802624551766229
1539731620178103,-0.18597695887693577,-0.9879911497673,0.09100480659189714
1539731620194111,-0.1808499275196458,-0.9627222095063708,0.11029221026932134
1539731620210119,-0.17730983443961224,-0.9596704051270315,0.14129854276340925
1539731620226127,-0.16705577172503228,-0.9740749217975129,0.1625391012436106
1539731620242135,-0.16083009079118016,-0.9910429541466392,0.17035172045471914
1539731620258143,-0.15069810025177377,-0.9829861905851836,0.1616845960173956
1539731620274150,-0.15191882200350948,-0.9755397878995957,0.15924315251392418
1539731620290158,-0.15875486381322945,-0.9712672617685207,0.14703593499656709
1539731620306166,-0.16998550392919798,-0.9748073548485543,0.13165484092469715
1539731620322174,-0.1745021744106201,-0.9864042114900435,0.12213321126115773
1539731620338182,-0.18060578316929865,-0.9969024185549706,0.11578545815213204
1539731620354190,-0.18060578316929865,-0.9980010681315328,0.11102464332036277
1539731620370198,-0.18097199969481936,-0.9977569237811856,0.11285572594796633
1539731620386206,-0.17816433966582723,-0.9970244907301442,0.12079041733424845
1539731620402214,-0.17022964827954512,-0.9922636758983749,0.12701609826810145
1539731620418222,-0.16351567864499872,-0.9843289845120928,0.1351949340047307
1539731620434229,-0.16131837949187444,-0.9752956435492486,0.1394674601358057
1539731620450237,-0.16424811169604014,-0.9746852826733807,0.13629358358129284
1539731620466247,-0.16510261692225514,-0.9879911497673,0.1377584496833757
1539731620482255,-0.1660791943236437,-1.000808728160525,0.13202105745021786
1539731620498263,-0.1677882047760737,-1.0063019760433356,0.12457465476462914
1539731620514271,-0.1686427100022887,-1.0004425116350042,0.11956969558251274
1539731620530279,-0.16729991607537942,-0.9876249332417792,0.11981383993285988
1539731620546287,-0.17230487525749583,-0.9756618600747693,0.12018005645838059
1539731620562295,-0.17645532921339724,-0.9735866330968186,0.1281147478446636
1539731620578302,-0.17547875181200867,-0.9817654688334478,0.130556191348135
1539731620594310,-0.1707179369802394,-0.9899443045700771,0.13824673838406998
1539731620610318,-0.16510261692225514,-0.9840848401617457,0.14459449149309567
1539731620626326,-0.16302738994430443,-0.9667505912870986,0.14886701762417065
1539731620642334,-0.17254901960784297,-0.9583276112001222,0.14874494544899708
1539731620658342,-0.1736476691844051,-0.9621118486305029,0.14337376974135996
1539731620674350,-0.16876478217746227,-0.9710231174181736,0.1423971923399714
1539731620690358,-0.16925307087815655,-0.99140917067216,0.13702601663233427
1539731620706366,-0.16998550392919798,-1.0047150377660792,0.124330510414282
1539731620722374,-0.1555809872587166,-1.0012970168612192,0.10272373540855995
1539731620738381,-0.15277332722972448,-1.0032501716639963,0.08477912565804502
1539731620754389,-0.15155260547798877,-1.0032501716639963,0.07306019684138221
1539731620770397,-0.14752422369726093,-1.001907377737087,0.07159533073929936
1539731620786407,-0.14776836804760807,-0.9977569237811856,0.07830930037384576
1539731620802415,-0.15277332722972448,-0.9883573662928207,0.09271381704432713
1539731620818423,-0.15973144121461802,-0.985427634088655,0.10455481803616351
1539731620834431,-0.1581445029373616,-0.9892118715190357,0.11322194247348705
1539731620850439,-0.1602197299153123,-0.9929961089494164,0.10833905546654421
1539731620866447,-0.1636377508201723,-0.9939726863508049,0.10943770504310635
1539731620882454,-0.165712977798123,-0.9932402532997635,0.10553139543755208
1539731620898462,-0.17047379262989226,-0.9911650263218128,0.0986953536278321
1539731620914470,-0.17010757610437155,-0.9898222323949035,0.10284580758373352
1539731620930478,-0.16974135957885084,-0.9890897993438621,0.10296787975890709
1539731620946486,-0.1707179369802394,-0.9912870984969864,0.11053635461966849
1539731620962494,-0.16754406042572656,-0.9906767376211185,0.11639581902799989
1539731620978502,-0.1652246890974287,-0.9860379949645228,0.11688410772869418
1539731620994510,-0.16253910124361015,-0.9900663767452507,0.1205462729839013
1539731621010518,-0.15509269855802232,-0.9956816968032349,0.1155413138017849
1539731621026526,-0.15912108033875016,-0.9972686350804914,0.11224536507209848
1539731621042533,-0.16131837949187444,-0.9859159227893493,0.10455481803616351
1539731621058541,-0.15912108033875016,-0.9756618600747693,0.09552147707331926
1539731621074549,-0.15960936903944445,-0.9748073548485543,0.09845120927748496
1539731621090557,-0.1644922560463873,-0.97773708705272,0.10064850843060924
1539731621106567,-0.16119630731670087,-0.9779812314030671,0.10260166323338638
1539731621122575,-0.16510261692225514,-0.9783474479285879,0.10492103456168422
1539731621138583,-0.17132829785610726,-0.9876249332417792,0.1012588693064771
1539731621154591,-0.17059586480506583,-0.9951934081025406,0.10284580758373352
1539731621170599,-0.1727931639581901,-0.9915312428473335,0.09344625009536855
1539731621186607,-0.17047379262989226,-0.9864042114900435,0.09015030136568214
1539731621202614,-0.16913099870298298,-0.9893339436942092,0.09173723964293856
1539731621218622,-0.17022964827954512,-0.9951934081025406,0.0936903944457157
1539731621234630,-0.1715724422064544,-0.9942168307011521,0.09393453879606284
1539731621250638,-0.17315938048371082,-0.9892118715190357,0.09271381704432713
1539731621266646,-0.1698634317540244,-0.9843289845120928,0.08868543526359929
1539731621282654,-0.16302738994430443,-0.9810330357824064,0.08758678568703715
1539731621298662,-0.16034180209048587,-0.9773708705271993,0.08953994048981428
1539731621314670,-0.15802243076218803,-0.97773708705272,0.09613183794918712
1539731621330678,-0.16253910124361015,-0.9822537575341421,0.09735255970092282
1539731621346686,-0.163149462119478,-0.9964141298542764,0.10748455024032921
1539731621362693,-0.16217288471808944,-0.9977569237811856,0.10992599374380063
1539731621378701,-0.1636377508201723,-0.9915312428473335,0.11151293202105705
1539731621394709,-0.1719386587319751,-0.9846952010376135,0.10382238498512208
1539731621410717,-0.17389181353475225,-0.9832303349355307,0.09845120927748496
1539731621426757,-0.17340352483405796,-0.9826199740596628,0.09637598229953426
1539731621442765,-0.17096208133058655,-0.9848172732127871,0.09893949797817925
1539731621458773,-0.17804226749065366,-0.98970016021973,0.10370031280994851
1539731621474781,-0.18439002059967935,-0.9990997177080949,0.10858319981689135
1539731621490789,-0.18304722667277007,-1.0032501716639963,0.10968184939345349
1539731621506797,-0.1858548867017622,-1.0014190890363928,0.11309987029831348
1539731621522805,-0.18158236057068722,-0.9978789959563592,0.10809491111619707
1539731621538813,-0.17816433966582723,-0.9915312428473335,0.10003814755474139
1539731621554821,-0.16583504997329657,-0.9843289845120928,0.09503318837262498
1539731621570829,-0.15533684290836947,-0.9804226749065386,0.0928358892195007
1539731621586836,-0.15399404898146019,-0.9833524071107043,0.09942778667887353
1539731621602844,-0.16681162737468513,-0.9876249332417792,0.10394445716029566
1539731621618852,-0.1715724422064544,-0.9864042114900435,0.10382238498512208
1539731621634860,-0.17010757610437155,-0.9779812314030671,0.10748455024032921
1539731621650868,-0.16156252384222158,-0.9685816739147022,0.1100480659189742
1539731621666876,-0.1572899977111466,-0.9626001373311972,0.11200122072175134
1539731621682884,-0.15362783245593947,-0.9629663538567179,0.11602960250247918
1539731621698892,-0.1581445029373616,-0.9673609521629665,0.11981383993285988
1539731621714900,-0.16510261692225514,-0.9745632104982072,0.11786068513008274
1539731621730908,-0.17987335011825722,-0.9861600671396964,0.11737239642938846
1539731621746917,-0.18805218585488692,-0.9972686350804914,0.11322194247348705
1539731621762925,-0.19464408331425975,-1.0006866559853513,0.10528725108720494
1539731621778933,-0.1957427328908219,-0.9967803463797971,0.09552147707331926
1539731621794941,-0.19354543373769761,-0.9895780880445564,0.08575570305943359
1539731621810949,-0.1911039902342262,-0.9955596246280614,0.0869764248111693
1539731621826957,-0.18048371099412508,-1.0026398107881285,0.09259174486915356
1539731621842965,-0.16974135957885084,-0.9984893568322271,0.1033340962844278
1539731621858973,-0.163149462119478,-0.9860379949645228,0.11163500419623062
1539731621874981,-0.15924315251392374,-0.9807888914320593,0.12298771648737272
1539731621890988,-0.16058594644083302,-0.97773708705272,0.12603952086671288
1539731621906996,-0.16791027695124727,-0.9796902418554971,0.12664988174258074
1539731621923004,-0.17181658655680154,-0.9826199740596628,0.12042420080872773
1539731621939012,-0.17254901960784297,-0.9903105210955978,0.11053635461966849
1539731621955020,-0.16839856565194156,-0.9923857480735485,0.10199130235751852
1539731621971028,-0.16620126649881728,-0.9903105210955978,0.10016021972991496
1539731621987036,-0.16180666819256873,-0.9929961089494164,0.10321202410925423
1539731622003044,-0.1694972152285037,-0.9973907072556649,0.10650797283894065
1539731622019052,-0.1791409170672158,-0.9962920576791028,0.1033340962844278
1539731622035060,-0.17840848401617437,-0.9890897993438621,0.10101472495612995
1539731622051067,-0.17084000915541298,-0.9754177157244222,0.09515526054779855
1539731622067077,-0.16241702906843658,-0.9654077973601893,0.08856336308842572
1539731622083085,-0.1686427100022887,-0.970046540016785,0.0852674143587393
1539731622099093,-0.16717784390020585,-0.9792019531548029,0.08136110475318503
1539731622115101,-0.17022964827954512,-0.9838406958113985,0.07867551689936647
1539731622131109,-0.17462424658579367,-0.9737087052719922,0.07281605249103507
1539731622147117,-0.19671931029221046,-0.9752956435492486,0.07635614557106862
1539731622163125,-0.17718776226443866,-0.97602807660029,0.07403677424277078
1539731622179133,-0.17730983443961224,-0.9864042114900435,0.059632257572289404
1539731622195140,-0.1719386587319751,-1.0083772030212863,0.05926604104676869
1539731622211148,-0.1589990081635766,-1.0074006256198977,0.06952010376134865
1539731622227156,-0.14361791409170666,-1.000198367284657,0.08416876478217716
1539731622243164,-0.13690394445716025,-0.9953154802777142,0.09478904402227784
1539731622259172,-0.13946746013580524,-0.9951934081025406,0.09906157015335282
1539731622275180,-0.14862287327382306,-0.9937285420004578,0.09942778667887353
1539731622291188,-0.15948729686427088,-0.9954375524528878,0.09393453879606284
1539731622307196,-0.16913099870298298,-1.0050812542916,0.10138094148165067
1539731622323204,-0.16937514305333012,-1.0074006256198977,0.09588769359883997
1539731622339212,-0.1712062256809337,-0.9949492637521935,0.09906157015335282
1539731622355219,-0.17962920576791008,-0.9868925001907378,0.1024795910582128
1539731622371227,-0.18512245365072078,-0.9807888914320593,0.09381246662088927
1539731622387268,-0.18634317540245648,-0.9867704280155642,0.0995498588540471
1539731622403276,-0.1791409170672158,-1.0000762951094835,0.11224536507209848
1539731622419284,-0.167421988250553,-1.0023956664377813,0.1310444800488293
1539731622435293,-0.14581521324483093,-0.9899443045700771,0.1544823376821549
1539731622451301,-0.16424811169604014,-0.9809109636072328,0.18951705195696977
1539731622467310,-0.16095216296635373,-0.9770046540016786,0.21649500267032895
1539731622483318,-0.15545891508354304,-0.9687037460898758,0.2251621271076525
1539731622499326,-0.15655756466010518,-0.9641870756084536,0.2200350957503625
1539731622515335,-0.16388189517051943,-0.9678492408636608,0.2108796826123447
1539731622531343,-0.1602197299153123,-0.9766384374761579,0.1914702067597469
1539731622547351,-0.16302738994430443,-0.9812771801327536,0.1751125352864884
1539731622563360,-0.16888685435263584,-0.9844510566872664,0.16559090562294987
1539731622579368,-0.1703517204547187,-0.98286411841001,0.15838864728770918
1539731622595377,-0.17181658655680154,-0.9838406958113985,0.15106431677729493
1539731622611385,-0.1732814526588844,-0.9915312428473335,0.15082017242694779
1539731622627393,-0.16974135957885084,-0.9886015106431678,0.1482566567483028
1539731622643402,-0.17206073090714868,-0.9843289845120928,0.1499656672007328
1539731622659410,-0.17230487525749583,-0.9767605096513314,0.15069810025177421
1539731622675418,-0.17059586480506583,-0.9772487983520257,0.15728999771114704
1539731622691427,-0.16375982299534586,-0.9748073548485543,0.16449225604638773
1539731622707428,-0.15997558556496516,-0.9716334782940415,0.16949721522850414
1539731622723436,-0.16302738994430443,-0.9654077973601893,0.1742580300602734
1539731622739443,-0.16058594644083302,-0.9561303120469979,0.17084000915541342
1539731622755451,-0.164003967345693,-0.9585717555504694,0.16986343175402485
1539731622771459,-0.16327153429465158,-0.9693141069657436,0.17657740138857125
1539731622787467,-0.1593652246890973,-0.9766384374761579,0.1847562371252005
1539731622803475,-0.17486839093614082,-0.9860379949645228,0.19244678416113548
1539731622819483,-0.1820706492713815,-0.9843289845120928,0.1809719996948198
1539731622835491,-0.17901884489204223,-0.9864042114900435,0.1633936064698256
1539731622851499,-0.18890669108110192,-0.9965362020294499,0.15143053330281564
1539731622867507,-0.20099183642328544,-1.0102082856488899,0.14373998626688067
1539731622883515,-0.19537651636530118,-1.0120393682764934,0.13287556267643286
1539731622899522,-0.1862211032272829,-1.0037384603646906,0.12957961394674644
1539731622915530,-0.1820706492713815,-0.9922636758983749,0.13702601663233427
1539731622931538,-0.18048371099412508,-0.9772487983520257,0.13421835660334214
1539731622947546,-0.17865262836652152,-0.970046540016785,0.13336385137712714
1539731622963554,-0.17218280308232226,-0.9684596017395286,0.13299763485160643
1539731622979562,-0.16974135957885084,-0.9716334782940415,0.13751430533302855
1539731622995570,-0.16729991607537942,-0.971755550469215,0.1436179140917071
1539731623011578,-0.16034180209048587,-0.9687037460898758,0.1477683680476085
1539731623027588,-0.1619287403677423,-0.9687037460898758,0.1474021515220878
1539731623043595,-0.16827649347676799,-0.9761501487754636,0.1456931410696578
1539731623059603,-0.17315938048371082,-0.9864042114900435,0.14410620279240138
1539731623075611,-0.17596704051270295,-0.9887235828183414,0.14264133669031853
1539731623091619,-0.1736476691844051,-0.9844510566872664,0.14081025406271497
1539731623107627,-0.1741359578850994,-0.976882581826505,0.13922331578545855
1539731623123635,-0.18390173189898507,-0.9766384374761579,0.14227512016479782
1539731623139643,-0.19208056763561476,-0.9831082627603571,0.1415426871137564
1539731623155651,-0.19476615548943332,-0.9889677271686885,0.13751430533302855
1539731623171659,-0.18683146410315077,-0.9843289845120928,0.1251850156404979
1539731623187667,-0.17987335011825722,-0.9738307774471657,0.10968184939345349
1539731623203674,-0.18011749446860437,-0.9690699626153965,0.10565346761272565
1539731623219682,-0.17975127794308365,-0.9765163653009843,0.10980392156862706
1539731623235690,-0.1808499275196458,-0.9877470054169528,0.11883726253147131
1539731623251698,-0.16034180209048587,-0.9798123140306707,0.13556115053025142
1539731623267706,-0.15045395590142663,-0.9669947356374458,0.14764629587243494
1539731623283714,-0.15130846112764162,-0.9622339208056765,0.15191882200350992
1539731623299722,-0.15167467765316234,-0.9724879835202564,0.1537499046311135
1539731623315730,-0.16717784390020585,-0.9834744792858778,0.1474021515220878
1539731623331738,-0.17474631876096725,-0.9876249332417792,0.13958953231097926
1539731623347747,-0.18255893797207579,-0.9910429541466392,0.1276264591439693
1539731623363755,-0.19464408331425975,-0.9969024185549706,0.11480888075074347
1539731623379763,-0.20013733119707044,-0.9975127794308385,0.1062638284885935
1539731623395771,-0.20392156862745114,-0.990554665445945,0.10064850843060924
1539731623411779,-0.20819409475852613,-0.9916533150225071,0.09991607537956781
1539731623427787,-0.20782787823300541,-0.9909208819714657,0.09942778667887353
1539731623443795,-0.20062561989776473,-0.9904325932707714,0.10675211718928779
1539731623459803,-0.1870756084534979,-0.9910429541466392,0.1155413138017849
1539731623475811,-0.17584496833752938,-0.9907988097962921,0.12115663385976916
1539731623491819,-0.16729991607537942,-0.9882352941176471,0.1255512321660186
1539731623507826,-0.16595712214847014,-0.9875028610666057,0.13080033569848215
1539731623523834,-0.16961928740367727,-0.98970016021973,0.13556115053025142
1539731623539842,-0.1757228961623558,-0.9928740367742428,0.13458457312886285
1539731623555850,-0.17840848401617437,-0.9944609750514992,0.13287556267643286
1539731623571858,-0.1791409170672158,-0.9918974593728542,0.13336385137712714
1539731623587866,-0.17975127794308365,-0.9892118715190357,0.1293354695963993
1539731623603874,-0.1791409170672158,-0.987136644541085,0.12445258258945557
1539731623619882,-0.17975127794308365,-0.9865262836652171,0.12188906691081058
1539731623635890,-0.1799954222934308,-0.9829861905851836,0.1193255512321656
1539731623651898,-0.18048371099412508,-0.9846952010376135,0.11871519035629774
1539731623667907,-0.1799954222934308,-0.9812771801327536,0.11578545815213204
1539731623683915,-0.1795071335927365,-0.9770046540016786,0.1176165407797356
1539731623699923,-0.1762111848630501,-0.9740749217975129,0.11956969558251274
1539731623715931,-0.17425803006027296,-0.9746852826733807,0.12030212863355416
1539731623731939,-0.1782864118410008,-0.9763942931258107,0.11773861295490917
1539731623747947,-0.18304722667277007,-0.9782253757534143,0.12042420080872773
1539731623763955,-0.18475623712520006,-0.9809109636072328,0.11688410772869418
1539731623779963,-0.18573281452658863,-0.9800564583810178,0.10992599374380063
1539731623795971,-0.1911039902342262,-0.9809109636072328,0.10955977721827992
1539731623811978,-0.18780804150453978,-0.976882581826505,0.10479896238651065
1539731623827986,-0.1867093919279772,-0.9701686121919586,0.10785076676584993
1539731623843994,-0.18365758754863792,-0.96919203479057,0.10809491111619707
1539731623860002,-0.18683146410315077,-0.9750514991989014,0.11236743724727205
1539731623876010,-0.18048371099412508,-0.9787136644541086,0.11395437552452847
1539731623892018,-0.16852063782711513,-0.9724879835202564,0.11578545815213204
1539731623908026,-0.1522850385290302,-0.9755397878995957,0.12335393301289344
1539731623924034,-0.15374990463111304,-0.9813992523079271,0.12201113908598415
1539731623940042,-0.16217288471808944,-0.9956816968032349,0.11371023117418133
1539731623956050,-0.16998550392919798,-1.0055695429922942,0.10296787975890709
1539731623972057,-0.18524452582589435,-1.0111848630502784,0.09222552834363285
1539731623988067,-0.19549858854047475,-1.006179903868162,0.07586785687037434
1539731624004075,-0.19122606240939977,-0.9976348516060121,0.06488136110475295
1539731624020083,-0.18475623712520006,-0.9889677271686885,0.053162432288090145
1539731624036091,-0.1753566796368351,-0.9800564583810178,0.051819638361180864
1539731624052099,-0.18011749446860437,-0.9821316853589686,0.053162432288090145
1539731624068107,-0.19159227893492048,-0.9866483558403907,0.052918287937743
1539731624084115,-0.20209048599984758,-0.9873807888914321,0.060975051499198685
1539731624100123,-0.20770580605783184,-0.9850614175631343,0.06817730983443937
1539731624116130,-0.2048981460288397,-0.9872587167162585,0.08038452735179646
1539731624132138,-0.19647516594186332,-0.9898222323949035,0.0869764248111693
1539731624148146,-0.18976119630731692,-0.988845654993515,0.09552147707331926
1539731624164154,-0.19220263981078833,-0.9894560158693828,0.10016021972991496
1539731624180162,-0.19159227893492048,-0.9860379949645228,0.10663004501411422
1539731624196170,-0.19391165026321833,-0.9870145723659114,0.11187914854657777
1539731624212178,-0.19794003204394617,-0.9886015106431678,0.10858319981689135
1539731624228186,-0.1957427328908219,-0.988845654993515,0.10284580758373352
1539731624244194,-0.18731975280384505,-0.983718623636225,0.09051651789120285
1539731624260202,-0.1803616388189515,-0.9767605096513314,0.08587777523460716
1539731624276209,-0.17315938048371082,-0.9705348287174793,0.08355840390630931
1539731624292217,-0.1694972152285037,-0.9611352712291144,0.08453498130769788
1539731624308227,-0.17767605096513295,-0.96406500343328,0.08929579613946714
1539731624324235,-0.1870756084534979,-0.9662623025864043,0.0936903944457157
1539731624340243,-0.19476615548943332,-0.9689478904402229,0.09185931181811213
1539731624356251,-0.2048981460288397,-0.9887235828183414,0.07757686732280433
1539731624372259,-0.21527428091859324,-1.0074006256198977,0.05951018539711583
1539731624388267,-0.21149004348821254,-1.0158236057068741,0.042786297398336615
1539731624404275,-0.20526436255436042,-1.0136263065537499,0.03839169909208806
1539731624420282,-0.1995269703212026,-1.0022735942626078,0.04571602960250232
1539731624436290,-0.19513237201495404,-0.9934843976501107,0.05633630884260299
1539731624452298,-0.1885404745555812,-0.9857938506141757,0.07196154726482007
1539731624468306,-0.18658731975280363,-0.9798123140306707,0.08172732127870574
1539731624484314,-0.18756389715419264,-0.9795681696803236,0.08856336308842572
1539731624500322,-0.18487830930037363,-0.9818875410086214,0.08368047608148288
1539731624516330,-0.18866254673075478,-0.9839627679865721,0.07953002212558147
1539731624532338,-0.18793011367971335,-0.9822537575341421,0.07537956816968006
1539731624548346,-0.1957427328908219,-0.9816433966582743,0.06866559853513365
1539731624564354,-0.20001525902189687,-0.9893339436942092,0.06073090714885154
1539731624580361,-0.19586480506599546,-0.9922636758983749,0.0604867627985044
1539731624596369,-0.18536659800106792,-0.9822537575341421,0.05658045319295013
1539731624612377,-0.18133821622034008,-0.9776150148775464,0.05865568017090084
1539731624628418,-0.18353551537346435,-0.97602807660029,0.06073090714885154
1539731624644426,-0.1902494850080112,-0.9771267261768521,0.061097123674372256
1539731624660434,-0.20001525902189687,-0.985427634088655,0.059632257572289404
1539731624676443,-0.20172426947432687,-0.9942168307011521,0.05767910276951227
1539731624692451,-0.19501029983978047,-0.9928740367742428,0.05902189669642155
1539731624708459,-0.19220263981078833,-0.9879911497673,0.062195773250934394
1539731624724468,-0.18561074235141506,-0.9851834897383078,0.06927595941100151
1539731624740476,-0.18976119630731692,-0.9842069123369193,0.0776989394979779
1539731624756485,-0.1978179598687726,-0.9783474479285879,0.08490119783321859
1539731624772493,-0.20233463035019472,-0.9849393453879607,0.0861219195849543
1539731624788501,-0.20733958953231113,-0.9990997177080949,0.08429083695735073
1539731624804510,-0.20404364080262472,-1.0038605325398642,0.07635614557106862
1539731624820518,-0.19684138246738403,-0.9920195315480278,0.0663462272068358
1539731624836526,-0.1928130006866562,-0.9864042114900435,0.06707866025787723
1539731624852535,-0.18793011367971335,-0.9899443045700771,0.07489127946898577
1539731624868543,-0.18780804150453978,-0.9904325932707714,0.08502327000839216
1539731624884552,-0.18390173189898507,-0.99140917067216,0.09539940489814569
1539731624900560,-0.18316929884794364,-0.9883573662928207,0.09991607537956781
1539731624916568,-0.1846341649500265,-0.9796902418554971,0.1091935606927592
1539731624932577,-0.18609903105210934,-0.9759060044251164,0.1129777981231399
1539731624948578,-0.19244678416113548,-0.9759060044251164,0.11322194247348705
1539731624964586,-0.19269092851148262,-0.9748073548485543,0.10772869459067635
1539731624980594,-0.19244678416113548,-0.97431906614786,0.09845120927748496
1539731624996603,-0.1914702067597469,-0.978591592278935,0.08892957961394643
1539731625012611,-0.1928130006866562,-0.9900663767452507,0.08307011520561502
1539731625028619,-0.1923247119859619,-0.9951934081025406,0.08563363088426001
1539731625044628,-0.19537651636530118,-0.9929961089494164,0.08575570305943359
1539731625060636,-0.19623102159151617,-0.9899443045700771,0.08856336308842572
1539731625076645,-0.1948882276646069,-0.9927519645990692,0.09259174486915356
1539731625092653,-0.1867093919279772,-0.9949492637521935,0.10016021972991496
1539731625108661,-0.17523460746166153,-0.9937285420004578,0.10162508583199781
1539731625124670,-0.17401388570992582,-0.9853055619134814,0.10150301365682424
1539731625140678,-0.1749904631113144,-0.975173571374075,0.10736247806515564
1539731625156686,-0.19464408331425975,-0.9630884260318915,0.10321202410925423
1539731625172695,-0.21429770351720467,-0.966628519111925,0.09832913710231139
1539731625188703,-0.23273060196841389,-0.9813992523079271,0.08783093003738429
1539731625204712,-0.23651483939879459,-0.9748073548485543,0.07061875333791079
1539731625220720,-0.23358510719462888,-0.9694361791409172,0.05816739147020655
1539731625236728,-0.22955672541390104,-0.97261005569543,0.05157549401083372
1539731625252737,-0.22149996185244536,-0.9771267261768521,0.058411535820553695
1539731625268737,-0.21319905394064254,-0.9787136644541086,0.07684443427176291
1539731625284746,-0.203677424277104,-0.9757839322499429,0.09308003356984784
1539731625300754,-0.19354543373769761,-0.9718776226443886,0.10455481803616351
1539731625316763,-0.1832913710231172,-0.9702906843671322,0.1088273441672385
1539731625332771,-0.17840848401617437,-0.9728542000457772,0.11114671549553634
1539731625348779,-0.18915083543144906,-0.9787136644541086,0.10370031280994851
1539731625364788,-0.19708552681773117,-0.9765163653009843,0.08648813611047501
1539731625380796,-0.20001525902189687,-0.9771267261768521,0.06988632028686936
1539731625396804,-0.20672922865644328,-0.9787136644541086,0.052918287937743
1539731625412813,-0.2167391470206761,-0.9832303349355307,0.04718089570458517
1539731625428821,-0.2208896009765775,-0.9901884489204242,0.044251163500419466
1539731625444830,-0.21991302357518894,-0.9879911497673,0.04766918440527945
1539731625460838,-0.22198825055313964,-0.9895780880445564,0.0567025253681237
1539731625476846,-0.22223239490348679,-0.988845654993515,0.06207370107576082
1539731625492855,-0.22247653925383393,-0.9950713359273671,0.0659800106813151
1539731625508863,-0.22626077668421463,-0.9933623254749371,0.05938811322194226
1539731625524871,-0.22479591058213177,-0.9907988097962921,0.06610208285648866
1539731625540880,-0.22479591058213177,-0.9909208819714657,0.062439917601281536
1539731625556888,-0.22418554970626392,-0.9889677271686885,0.05914396887159512
1539731625572897,-0.21722743572137038,-0.985427634088655,0.058289463645380124
1539731625588897,-0.20184634164950044,-0.9719996948195622,0.05902189669642155
1539731625604905,-0.1850003814755472,-0.9633325703822386,0.06292820630197582
1539731625620913,-0.1817044327458608,-0.973464560921645,0.06793316548409223
1539731625636921,-0.1923247119859619,-0.9779812314030671,0.07293812466620864
1539731625652929,-0.205386434729534,-0.9798123140306707,0.06707866025787723
1539731625668937,-0.21686121919584966,-0.9840848401617457,0.03961242084382377
1539731625684945,-0.21857022964827966,-0.9953154802777142,0.02032501716639956
1539731625700953,-0.22235446707866036,-0.9959258411535821,0.0021362630655374915
1539731625716961,-0.2427405203326467,-0.9876249332417792,-6.713969634546402E-4
1539731625732968,-0.2313878080415046,-0.9922636758983749,0.027161058976119534
1539731625748976,-0.21478599221789896,-0.9926298924238957,0.05865568017090084
1539731625764984,-0.21100175478751826,-0.9840848401617457,0.08587777523460716
1539731625780992,-0.20929274433508827,-0.9656519417105365,0.10113679713130352
1539731625797000,-0.20880445563439398,-0.9525902189669644,0.11285572594796633
1539731625813008,-0.21112382696269183,-0.954421301594568,0.12494087129014986
1539731625829016,-0.21014724956130326,-0.9651636530098422,0.12396429388876129
1539731625845024,-0.2162508583199818,-0.9795681696803236,0.11627374685282632
1539731625861032,-0.22162203402761893,-0.9848172732127871,0.1071183337148085
1539731625877040,-0.21979095140001537,-0.9901884489204242,0.09735255970092282
1539731625893047,-0.2175936522468911,-0.9878690775921264,0.08966201266498786
1539731625909057,-0.2208896009765775,-0.98115510795758,0.0949111161974514
1539731625925065,-0.22040131227588322,-0.9787136644541086,0.10101472495612995
