Timestamp (microseconds),Gyro X (°/s),Gyro Y (°/s),Gyro Z (°/s)
1539731601256744,10.772869459067579,1.4343480582895154,-0.2746623941404778
1539731601272746,7.660028992141633,1.8005645838102282,-0.213626306553806
1539731601288747,7.4158846417944915,2.410925459678083,-0.3967345693140487
1539731601304749,8.6366063935302,2.7161058976118966,-0.33569848172737693
1539731601320751,12.726024261844714,2.7771419851987957,-0.3967345693140487
1539731601336753,15.411612115663274,2.3498893720911838,-0.8239871824216607
1539731601352754,16.571297779812312,1.6174563210497581,-1.2512397955290453
1539731601368756,15.289539940489703,0.2746623941404778,-1.6174563210497581
1539731601384758,18.402380407415876,-0.6408789196611906,-1.6784924086366573
1539731601400759,16.02197299153113,-1.3733119707026162,-1.4953841458761872
1539731601416761,12.4208438239109,-2.5940337224383256,-2.532997634851654
1539731601432763,10.223544670786623,-4.119935912108076,-3.5095750362402214
1539731601448764,13.275349050125897,-5.2185854886702145,-3.3875028610666504
1539731601464766,18.036163881895163,-5.645838101777599,-3.0212863355459376
1539731601480768,17.48683909361398,-6.012054627298312,-2.655069810025225
1539731601496770,15.899900816357558,-6.378271152819025,-2.105745021744042
1539731601512771,16.571297779812312,-6.012054627298312,-1.5564202334630863
1539731601528773,10.284580758373295,-5.645838101777599,-1.4953841458761872
1539731601544775,-13.153276874952326,-6.317235065232353,-2.288853284504512
1539731601560776,-24.872205691615136,-4.791332875562603,-3.0212863355459376
1539731601576782,-38.54428931105531,-3.0823224231326094,-3.4485389486533222
1539731601592784,-45.62447547112242,-1.6174563210497581,-3.3264667734797513
1539731601608785,-52.338445105668825,-0.8239871824216607,-3.3264667734797513
1539731601624787,-62.653543907835456,-0.9460593575952316,-2.8381780727854675
1539731601640789,-62.531471732661885,-0.9460593575952316,-2.288853284504512
1539731601656790,-56.61097123674381,-0.8239871824216607,-2.04470893415737
1539731601672792,-51.056687266346216,-1.3122758831159445,-1.8616006713969
1539731601688794,-45.25825894560171,-1.983672846570471,-1.6784924086366573
1539731601704795,-32.745860990310575,-2.166781109330941,-1.4343480582895154
1539731601720797,-21.210040436408008,-2.655069810025225,-1.4343480582895154
1539731601736799,-11.932555123216616,-3.4485389486533222,-1.6174563210497581
1539731601752801,-3.5095750362402214,-3.875791561760934,-1.8616006713969
1539731601768802,5.95101853971164,-3.6316472114137923,-2.7771419851987957
1539731601784804,8.819714656290444,-3.3264667734797513,-3.814755474174035
1539731601800806,4.60822461280236,-3.3264667734797513,-5.889982452124741
1539731601816807,-1.983672846570471,-3.875791561760934,-8.819714656290444
1539731601832809,-7.721065079728305,-4.364080262455218,-10.772869459067579
1539731601848811,-15.411612115663274,-4.486152437628789,-11.810482948043045
1539731601864812,-23.163195239185143,-3.814755474174035,-11.871519035629717
1539731601880814,-28.290226596475122,-1.4953841458761872,-10.528725108720437
1539731601896820,-20.904859998473967,2.227817196917613,-8.026245517662346
1539731601912821,-12.970168612191856,3.0823224231326094,-4.9134050507361735
1539731601928823,-7.2938124666209205,1.739528496223329,-2.3498893720911838
1539731601944825,4.303044174868319,0.33569848172737693,-0.6408789196611906
1539731601960826,13.45845731288614,-0.45777065690094787,0.09155413138023505
1539731601976828,13.64156557564661,-0.33569848172737693,0.6408789196611906
1539731601992830,8.026245517662346,0.15259021896690683,0.8239871824216607
1539731602008832,0.2746623941404778,0.213626306553806,0.45777065690094787
1539731602024833,-4.730296787975931,-0.09155413138023505,-0.213626306553806
1539731602040835,-3.7537193865873633,-0.7629510948347615,-1.0070954451819034
1539731602056837,1.8616006713969,-1.983672846570471,-2.166781109330941
1539731602072838,6.012054627298312,-3.0212863355459376,-4.058899824521177
1539731602088840,4.852368963149502,-3.4485389486533222,-6.134126802471883
1539731602104842,0.213626306553806,-2.8992141603723667,-7.17174029144735
1539731602120844,-1.3733119707026162,-1.739528496223329,-7.17174029144735
1539731602136845,-4.974441138323073,-1.3733119707026162,-5.889982452124741
1539731602152847,-7.721065079728305,-1.6174563210497581,-3.875791561760934
1539731602168849,-10.772869459067579,-2.04470893415737,-1.739528496223329
1539731602184850,-14.862287327382319,-2.7161058976118966,-0.03051804379333589
1539731602200852,-16.632333867398984,-2.8992141603723667,1.5564202334630863
1539731602216980,-16.998550392919697,-3.0212863355459376,3.0823224231326094
1539731602232982,-18.82963302052326,-3.5095750362402214,4.547188525215461
1539731602248984,-21.087968261234437,-3.997863736934505,5.3406576638437855
1539731602264986,-22.125581750209676,-4.364080262455218,5.401693751430457
1539731602280988,-20.599679560540153,-4.547188525215461,4.60822461280236
1539731602296990,-15.10643167772946,-4.242008087281647,2.8992141603723667
1539731602312993,-8.209353780422589,-3.5095750362402214,0.6408789196611906
1539731602328995,-3.875791561760934,-2.4719615472647547,-1.0070954451819034
1539731602344997,-2.3498893720911838,-1.3733119707026162,-1.4953841458761872
1539731602360999,-2.532997634851654,-0.213626306553806,-0.45777065690094787
1539731602377001,-3.570611123826893,0.9460593575952316,1.9226367589837992
1539731602393004,-4.119935912108076,1.8616006713969,4.730296787975931
1539731602409006,-5.523765926604028,2.4719615472647547,7.11070420386045
1539731602425008,-5.3406576638437855,2.8381780727854675,9.124895094224485
1539731602441010,-5.462729839017356,2.9602502479590385,10.284580758373295
1539731602457012,-6.256198977645454,2.8381780727854675,10.467689021133765
1539731602473014,-6.439307240405924,2.410925459678083,10.101472495613052
1539731602489017,-6.195162890058782,2.04470893415737,9.55214770733187
1539731602505019,-6.500343327992596,1.9226367589837992,8.51453421835663
1539731602521021,-4.60822461280236,1.8616006713969,7.2938124666209205
1539731602537140,3.0212863355459376,2.166781109330941,6.012054627298312
1539731602553142,12.481879911497572,1.6784924086366573,5.157549401083315
1539731602569145,17.181658655680167,0.6408789196611906,4.730296787975931
1539731602585147,20.294499122606112,-0.213626306553806,4.486152437628789
1539731602601150,22.67490653849086,-1.1291676203554744,4.852368963149502
1539731602617153,20.843823910887295,-2.166781109330941,5.096513313496644
1539731602633155,15.594720378423744,-3.1433585107195086,4.486152437628789
1539731602649158,12.970168612191856,-3.2654306858930795,3.2654306858930795
1539731602665161,12.726024261844714,-2.8381780727854675,2.105745021744042
1539731602681163,11.688410772869474,-2.105745021744042,1.0681315327688026
1539731602697166,7.354848554207592,-1.4953841458761872,-0.09155413138023505
1539731602713169,1.6174563210497581,-1.2512397955290453,-1.2512397955290453
1539731602729171,-2.166781109330941,-1.3733119707026162,-2.166781109330941
1539731602745174,-0.8239871824216607,-1.8616006713969,-2.532997634851654
1539731602761177,2.8381780727854675,-2.7161058976118966,-2.4719615472647547
1539731602777179,4.303044174868319,-3.6316472114137923,-2.410925459678083
1539731602793182,2.04470893415737,-3.997863736934505,-2.5940337224383256
1539731602809185,0.09155413138023505,-3.997863736934505,-2.5940337224383256
1539731602825187,-1.3733119707026162,-3.814755474174035,-2.227817196917613
1539731602841190,-3.4485389486533222,-3.6316472114137923,-1.9226367589837992
1539731602857269,-3.570611123826893,-3.5095750362402214,-1.3733119707026162
1539731602873272,-2.8992141603723667,-3.2654306858930795,-0.8850232700083325
1539731602889275,-2.9602502479590385,-3.0823224231326094,-0.5798428320745188
1539731602905278,-2.532997634851654,-2.8381780727854675,-0.5188067444876197
1539731602921281,-2.4719615472647547,-2.288853284504512,-0.5798428320745188
1539731602937285,-5.584802014190927,-1.6174563210497581,-0.8239871824216607
1539731602953288,-8.51453421835663,-0.7629510948347615,-1.1902037079423735
1539731602969291,-7.904173342488775,-0.15259021896690683,-1.3122758831159445
1539731602985294,-7.049668116273779,-0.03051804379333589,-1.2512397955290453
1539731603001297,-6.9886320286868795,-0.3967345693140487,-0.9460593575952316
1539731603017300,-5.828946364538069,-0.8850232700083325,-0.6408789196611906
1539731603033303,-4.852368963149502,-1.4953841458761872,-0.15259021896690683
1539731603049306,-6.134126802471883,-1.9226367589837992,0.15259021896690683
1539731603065310,-7.2938124666209205,-2.288853284504512,0.213626306553806
1539731603081313,-6.439307240405924,-2.5940337224383256,0.03051804379333589
1539731603097316,-3.3264667734797513,-2.8381780727854675,-0.2746623941404778
1539731603113319,0.8850232700083325,-2.8992141603723667,-0.2746623941404778
1539731603129322,3.6316472114137923,-2.7771419851987957,0.03051804379333589
1539731603145325,3.0823224231326094,-2.288853284504512,0.6408789196611906
1539731603161328,1.0681315327688026,-1.6784924086366573,1.4343480582895154
1539731603177459,-0.15259021896690683,-1.0070954451819034,1.9226367589837992
1539731603193463,-1.0681315327688026,-0.45777065690094787,2.04470893415737
1539731603209467,-2.04470893415737,-0.15259021896690683,1.983672846570471
1539731603225470,-2.166781109330941,0.09155413138023505,1.5564202334630863
1539731603241474,-1.3733119707026162,0.2746623941404778,0.9460593575952316
1539731603257477,-1.739528496223329,0.33569848172737693,0.33569848172737693
1539731603273481,-2.9602502479590385,0.3967345693140487,-0.6408789196611906
1539731603289485,-3.936827649347606,0.2746623941404778,-1.9226367589837992
1539731603305488,-3.5095750362402214,-0.15259021896690683,-3.2043945983061803
1539731603321492,-1.4953841458761872,-0.9460593575952316,-4.364080262455218
1539731603337495,2.04470893415737,-1.739528496223329,-5.157549401083315
1539731603353499,6.500343327992596,-2.288853284504512,-5.523765926604028
1539731603369503,9.85732814526591,-2.4719615472647547,-5.279621576256886
1539731603385506,10.955977721828049,-2.227817196917613,-4.669260700389032
1539731603401510,9.491111619745197,-1.6784924086366573,-3.997863736934505
1539731603417513,6.683451590753066,-1.0681315327688026,-3.2654306858930795
1539731603433517,4.9134050507361735,-0.45777065690094787,-2.3498893720911838
1539731603449521,4.058899824521177,-0.213626306553806,-1.1291676203554744
1539731603465524,1.8005645838102282,-0.09155413138023505,-0.15259021896690683
1539731603481528,-0.7629510948347615,0.03051804379333589,0.5798428320745188
1539731603497619,-2.4719615472647547,0.09155413138023505,1.0070954451819034
1539731603513623,-3.4485389486533222,-0.213626306553806,0.9460593575952316
1539731603529626,-3.3264667734797513,-0.45777065690094787,0.2746623941404778
1539731603545630,-2.9602502479590385,-0.7629510948347615,-0.5798428320745188
1539731603561634,-0.45777065690094787,-1.1902037079423735,-0.7629510948347615
1539731603577637,1.2512397955290453,-1.983672846570471,-0.9460593575952316
1539731603593641,0.8239871824216607,-2.8992141603723667,-1.3122758831159445
1539731603609645,0.2746623941404778,-3.692683299000464,-1.4343480582895154
1539731603625648,-1.3733119707026162,-4.242008087281647,-1.5564202334630863
1539731603641652,-6.195162890058782,-4.180971999694748,-1.6174563210497581
1539731603657655,3.4485389486533222,-2.7161058976118966,-2.3498893720911838
1539731603673659,2.8381780727854675,-2.8992141603723667,1.5564202334630863
1539731603689663,-0.7629510948347615,-3.875791561760934,1.0681315327688026
1539731603705666,11.444266422522333,-3.4485389486533222,2.8992141603723667
1539731603721670,13.76363775082018,-3.2654306858930795,5.645838101777599
1539731603737673,12.359807736324,-2.8381780727854675,7.17174029144735
1539731603753677,5.584802014190927,-1.5564202334630863,8.087281605249018
1539731603769681,-2.166781109330941,-0.213626306553806,8.6366063935302
1539731603785684,-6.012054627298312,1.0681315327688026,8.880750743877343
1539731603801688,-6.256198977645454,1.9226367589837992,9.063859006637585
1539731603817779,-7.843137254901876,2.04470893415737,8.33142595559616
1539731603833783,-5.889982452124741,1.8616006713969,7.17174029144735
1539731603849787,-0.5798428320745188,2.04470893415737,5.706874189364498
1539731603865791,2.3498893720911838,2.04470893415737,3.936827649347606
1539731603881796,2.7771419851987957,1.9226367589837992,1.6784924086366573
1539731603897800,2.9602502479590385,1.6174563210497581,-0.2746623941404778
1539731603913804,3.570611123826893,0.8239871824216607,-1.1902037079423735
1539731603929808,6.012054627298312,0.09155413138023505,-1.1902037079423735
1539731603945812,7.2938124666209205,-0.7629510948347615,-0.7629510948347615
1539731603961816,6.744487678339738,-1.6784924086366573,-0.33569848172737693
1539731603977820,7.843137254901876,-2.532997634851654,-0.2746623941404778
1539731603993824,9.918364232852582,-2.7161058976118966,-0.33569848172737693
1539731604009828,10.833905546654478,-2.655069810025225,-0.7629510948347615
1539731604025832,5.401693751430457,-2.4719615472647547,-1.1902037079423735
1539731604041836,-0.7629510948347615,-1.6174563210497581,-1.739528496223329
1539731604057840,-5.0354772259097444,-0.8850232700083325,-2.3498893720911838
1539731604073845,-6.500343327992596,-1.1291676203554744,-2.7161058976118966
1539731604089849,-3.570611123826893,-2.3498893720911838,-2.8992141603723667
1539731604105853,1.3733119707026162,-4.547188525215461,-2.8992141603723667
1539731604121857,7.598992904554734,-7.721065079728305,-2.8381780727854675
1539731604137909,14.251926451514464,-11.322194247348762,-3.0212863355459376
1539731604153913,18.82963302052326,-13.946746013580423,-3.4485389486533222
1539731604169918,18.402380407415876,-14.435034714274707,-3.7537193865873633
1539731604185922,14.740215152208748,-11.749446860456146,-4.058899824521177
1539731604201927,10.345616845960194,-7.721065079728305,-3.997863736934505
1539731604217931,7.2938124666209205,-4.242008087281647,-3.0823224231326094
1539731604233936,10.406652933546866,-2.105745021744042,-1.4343480582895154
1539731604249940,19.9282825970854,-1.4953841458761872,0.2746623941404778
1539731604265945,26.52018005645823,-2.166781109330941,1.2512397955290453
1539731604281950,23.83459220263967,-2.7771419851987957,1.3733119707026162
1539731604297954,13.336385137712568,-2.3498893720911838,1.0070954451819034
1539731604313959,-0.03051804379333589,-1.0681315327688026,0.8239871824216607
1539731604329963,-15.350576028076603,0.5188067444876197,1.5564202334630863
1539731604345968,-44.647898069733856,0.7019150072480898,2.166781109330941
1539731604361972,-56.122682536049524,2.04470893415737,0.6408789196611906
1539731604377977,-48.6762798504617,2.410925459678083,0.7629510948347615
1539731604393982,-34.271763179980326,1.739528496223329,2.410925459678083
1539731604409986,-20.23346303501944,0.5188067444876197,2.8992141603723667
1539731604425991,-9.491111619745197,-1.4953841458761872,2.3498893720911838
1539731604441995,8.270389868009488,-2.8381780727854675,2.410925459678083
1539731604458099,18.402380407415876,-4.242008087281647,2.655069810025225
1539731604474104,19.317921721217544,-4.852368963149502,3.2043945983061803
1539731604490108,18.463416495002548,-4.486152437628789,2.9602502479590385
1539731604506113,7.354848554207592,-4.364080262455218,2.3498893720911838
1539731604522117,-2.532997634851654,-3.814755474174035,1.8005645838102282
1539731604538122,-9.308003356984727,-3.997863736934505,0.9460593575952316
1539731604554126,-14.068818188753994,-4.242008087281647,0.3967345693140487
1539731604570131,-15.838864728770886,-3.2654306858930795,0.33569848172737693
1539731604586135,-16.26611734187827,-3.997863736934505,0.09155413138023505
1539731604602140,-6.927595941100208,-3.3875028610666504,-0.03051804379333589
1539731604618145,-2.3498893720911838,-2.9602502479590385,0.09155413138023505
1539731604634149,2.4719615472647547,-2.227817196917613,0.8239871824216607
1539731604650154,4.058899824521177,-1.4343480582895154,2.5940337224383256
1539731604666158,0.8239871824216607,-0.33569848172737693,5.157549401083315
1539731604682163,-8.758678568703772,1.1291676203554744,7.2938124666209205
1539731604698167,-18.402380407415876,2.655069810025225,8.087281605249018
1539731604714172,-20.843823910887295,4.058899824521177,7.4158846417944915
1539731604730177,-16.998550392919697,4.60822461280236,5.401693751430457
1539731604746181,-8.392462043183059,4.242008087281647,2.4719615472647547
1539731604762186,2.4719615472647547,3.4485389486533222,-0.7019150072480898
1539731604778259,10.162508583199724,2.410925459678083,-2.7771419851987957
1539731604794264,14.251926451514464,1.4953841458761872,-3.814755474174035
1539731604810269,12.542915999084471,0.5798428320745188,-3.814755474174035
1539731604826274,9.491111619745197,-0.8850232700083325,-3.570611123826893
1539731604842279,7.843137254901876,-3.1433585107195086,-3.0212863355459376
1539731604858284,3.6316472114137923,-5.401693751430457,-1.4953841458761872
1539731604874289,-1.739528496223329,-6.927595941100208,0.33569848172737693
1539731604890294,-7.354848554207592,-7.782101167315204,1.3122758831159445
1539731604906299,-4.60822461280236,-8.33142595559616,0.6408789196611906
1539731604922304,6.9886320286868795,-9.185931181811156,-0.8850232700083325
1539731604938309,18.70756084534969,-10.467689021133765,-3.0212863355459376
1539731604954314,29.999237048905115,-10.711833371480907,-4.730296787975931
1539731604970319,33.783474479285815,-10.101472495613052,-4.974441138323073
1539731604986324,30.853742275120112,-9.002822919050914,-4.364080262455218
1539731605002329,22.919050888838,-7.660028992141633,-3.5095750362402214
1539731605018334,10.650797283894008,-6.439307240405924,-2.04470893415737
1539731605034340,0.8850232700083325,-4.9134050507361735,-0.3967345693140487
1539731605050345,-8.819714656290444,-3.814755474174035,0.8850232700083325
1539731605066350,-18.89066910811016,-2.7771419851987957,2.532997634851654
1539731605082355,-24.994277866788707,-1.6784924086366573,4.364080262455218
1539731605098419,-23.651483939879427,-1.2512397955290453,5.462729839017356
1539731605114424,-17.66994735637445,-1.1902037079423735,5.462729839017356
1539731605130429,-9.491111619745197,-1.8616006713969,4.486152437628789
1539731605146434,1.0070954451819034,-3.0823224231326094,3.2654306858930795
1539731605162439,12.848096437018285,-4.119935912108076,2.288853284504512
1539731605178444,19.684138246738257,-4.852368963149502,1.9226367589837992
1539731605194449,13.76363775082018,-4.730296787975931,2.410925459678083
1539731605210454,6.9886320286868795,-3.997863736934505,2.227817196917613
1539731605226459,13.031204699778755,-2.3498893720911838,1.9226367589837992
1539731605242464,8.087281605249018,-1.6784924086366573,1.6784924086366573
1539731605258469,-0.45777065690094787,-0.7019150072480898,1.1902037079423735
1539731605274474,-7.476920729381163,0.2746623941404778,-0.09155413138023505
1539731605290479,-7.2938124666209205,0.8239871824216607,-1.8005645838102282
1539731605306484,-2.288853284504512,0.9460593575952316,-3.0212863355459376
1539731605322489,4.730296787975931,1.0681315327688026,-4.119935912108076
1539731605338494,9.613183794918768,1.0681315327688026,-4.9134050507361735
1539731605354499,8.941786831464015,1.2512397955290453,-4.9134050507361735
1539731605370504,7.598992904554734,1.8005645838102282,-5.0354772259097444
1539731605386510,4.303044174868319,1.4343480582895154,-4.852368963149502
1539731605402515,6.378271152819025,0.8239871824216607,-4.730296787975931
1539731605418579,12.848096437018285,0.33569848172737693,-4.242008087281647
1539731605434584,20.23346303501944,-0.45777065690094787,-3.3264667734797513
1539731605450590,25.726710917830133,-0.7629510948347615,-2.227817196917613
1539731605466595,23.773556115052997,-0.7019150072480898,-1.1902037079423735
1539731605482601,17.42580300602731,-0.03051804379333589,0.03051804379333589
1539731605498606,18.76859693293659,1.0681315327688026,0.8850232700083325
1539731605514612,13.76363775082018,0.2746623941404778,0.7629510948347615
1539731605530617,12.176699473563758,-0.5798428320745188,0.7019150072480898
1539731605546623,11.383230334935433,-1.1902037079423735,-0.03051804379333589
1539731605562628,6.805523765926637,-2.227817196917613,-0.3967345693140487
1539731605578634,3.936827649347606,-3.1433585107195086,-0.15259021896690683
1539731605594639,3.3264667734797513,-3.2654306858930795,0.09155413138023505
1539731605610645,2.3498893720911838,-2.655069810025225,0.15259021896690683
1539731605626650,2.105745021744042,-1.983672846570471,0.2746623941404778
1539731605642656,4.119935912108076,-1.3122758831159445,0.213626306553806
1539731605658661,7.721065079728305,-0.6408789196611906,0.03051804379333589
1539731605674667,9.55214770733187,-0.09155413138023505,0.33569848172737693
1539731605690672,8.33142595559616,0.3967345693140487,1.0681315327688026
1539731605706678,5.76791027695117,1.0070954451819034,1.739528496223329
1539731605722684,2.4719615472647547,1.4953841458761872,1.983672846570471
1539731605738739,-1.4343480582895154,1.8005645838102282,1.9226367589837992
1539731605754744,-5.279621576256886,2.04470893415737,1.739528496223329
1539731605770750,-6.8665598535133086,2.04470893415737,1.3122758831159445
1539731605786755,-4.364080262455218,1.8005645838102282,0.7629510948347615
1539731605802761,-1.1902037079423735,1.6174563210497581,0.3967345693140487
1539731605818766,-1.1291676203554744,1.4343480582895154,0.213626306553806
1539731605834772,0.5188067444876197,1.5564202334630863,-0.15259021896690683
1539731605850777,-1.8616006713969,1.5564202334630863,-0.6408789196611906
1539731605866783,-6.927595941100208,1.5564202334630863,-1.0681315327688026
1539731605882788,-19.9893186846723,1.6784924086366573,-1.5564202334630863
1539731605898794,-30.914778362706784,2.655069810025225,-1.5564202334630863
1539731605914799,-35.12626840619532,3.6316472114137923,-1.2512397955290453
1539731605930805,-34.63797970550104,3.7537193865873633,-0.7629510948347615
1539731605946810,-28.900587472342977,3.0212863355459376,-0.2746623941404778
1539731605962816,-18.89066910811016,1.8616006713969,0.03051804379333589
1539731605978821,-4.486152437628789,0.5188067444876197,0.33569848172737693
1539731605994827,7.721065079728305,-0.8850232700083325,0.5188067444876197
1539731606010832,13.946746013580423,-1.9226367589837992,0.03051804379333589
1539731606026838,18.158236057068734,-1.9226367589837992,-0.45777065690094787
1539731606042843,13.885709925993751,-2.04470893415737,-0.33569848172737693
1539731606058868,7.049668116273779,-1.3122758831159445,-0.7019150072480898
1539731606074874,0.7629510948347615,-0.7629510948347615,-0.3967345693140487
1539731606090880,0.213626306553806,-0.09155413138023505,-0.5188067444876197
1539731606106886,-0.03051804379333589,-0.3967345693140487,-0.03051804379333589
1539731606122892,7.354848554207592,-1.0681315327688026,0.3967345693140487
1539731606138898,9.430075532158298,-0.7629510948347615,0.8239871824216607
1539731606154904,3.936827649347606,-0.7019150072480898,1.6784924086366573
1539731606170910,3.5095750362402214,-0.33569848172737693,1.6174563210497581
1539731606186916,4.303044174868319,-0.3967345693140487,2.105745021744042
1539731606202922,3.5095750362402214,-0.7629510948347615,2.3498893720911838
1539731606218928,1.6784924086366573,-1.0070954451819034,2.655069810025225
1539731606234934,0.15259021896690683,-1.0070954451819034,2.5940337224383256
1539731606250940,-0.7019150072480898,-1.0681315327688026,2.288853284504512
1539731606266946,-1.1291676203554744,-1.3122758831159445,1.6784924086366573
1539731606282952,0.8850232700083325,-1.739528496223329,0.7629510948347615
1539731606298958,3.4485389486533222,-2.532997634851654,-0.3967345693140487
1539731606314964,4.242008087281647,-3.4485389486533222,-1.1291676203554744
1539731606330970,5.889982452124741,-4.119935912108076,-1.4953841458761872
1539731606346976,8.758678568703772,-4.486152437628789,-1.8616006713969
1539731606362982,9.67421988250544,-4.119935912108076,-2.105745021744042
1539731606379058,8.6366063935302,-3.5095750362402214,-1.9226367589837992
1539731606395064,10.223544670786623,-3.1433585107195086,-1.2512397955290453
1539731606411070,10.955977721828049,-3.3264667734797513,-0.7019150072480898
1539731606427076,5.279621576256886,-3.3264667734797513,-0.7019150072480898
1539731606443082,-4.852368963149502,-1.9226367589837992,-1.3122758831159445
1539731606459088,-19.317921721217544,0.5188067444876197,-2.105745021744042
1539731606475094,-33.66140230411247,3.0212863355459376,-2.227817196917613
1539731606491100,-35.431448844129136,5.157549401083315,-1.8005645838102282
1539731606507106,-30.4264896620125,5.157549401083315,-0.9460593575952316
1539731606523112,-20.17242694743254,3.936827649347606,-0.03051804379333589
1539731606539118,-7.721065079728305,2.7161058976118966,1.0681315327688026
1539731606555124,2.227817196917613,1.8005645838102282,1.8005645838102282
1539731606571130,9.55214770733187,0.9460593575952316,1.983672846570471
1539731606587136,16.26611734187827,-0.5188067444876197,1.6174563210497581
1539731606603142,18.402380407415876,-2.410925459678083,0.8239871824216607
1539731606619148,15.899900816357558,-3.570611123826893,-0.2746623941404778
1539731606635154,8.148317692835917,-4.242008087281647,-1.4343480582895154
1539731606651160,-11.749446860456146,-5.0354772259097444,-2.04470893415737
1539731606667166,-33.35622186617843,-3.570611123826893,-2.410925459678083
1539731606683172,-44.8310063324941,-1.0681315327688026,-1.739528496223329
1539731606699218,-46.9672693980317,0.3967345693140487,0.213626306553806
1539731606715224,-36.713206683451745,-0.33569848172737693,2.655069810025225
1539731606731230,-14.618142977035177,-3.4485389486533222,4.547188525215461
1539731606747236,12.359807736324,-7.537956816968062,5.0354772259097444
1539731606763242,28.473334859235365,-11.566338597695903,4.669260700389032
1539731606779248,31.70824750133511,-13.824673838406852,4.791332875562603
1539731606795254,22.369726100556818,-13.519493400473038,5.3406576638437855
1539731606811260,6.195162890058782,-11.383230334935433,5.2185854886702145
1539731606827266,-7.11070420386045,-8.51453421835663,3.7537193865873633
1539731606843272,-13.519493400473038,-6.927595941100208,1.739528496223329
1539731606859278,-7.904173342488775,-6.561379415579495,0.7629510948347615
1539731606875284,2.410925459678083,-7.721065079728305,0.5188067444876197
1539731606891290,10.589761196307336,-9.55214770733187,0.6408789196611906
1539731606907296,16.876478217746126,-10.833905546654478,1.1902037079423735
1539731606923302,20.660715648126825,-10.223544670786623,1.8005645838102282
1539731606939308,19.9893186846723,-8.758678568703772,1.3122758831159445
1539731606955314,11.383230334935433,-8.575570305943302,-0.7629510948347615
1539731606971320,-1.739528496223329,-8.575570305943302,-2.8381780727854675
1539731606987326,-8.819714656290444,-7.598992904554734,-2.3498893720911838
1539731607003332,-8.941786831464015,-5.401693751430457,1.0070954451819034
1539731607019378,-2.7161058976118966,-3.0212863355459376,2.5940337224383256
1539731607035385,9.308003356984727,-1.6174563210497581,1.8005645838102282
1539731607051391,44.220645456626016,3.7537193865873633,3.570611123826893
1539731607067398,50.14114595254432,10.162508583199724,9.246967269398056
1539731607083404,10.467689021133765,11.383230334935433,16.571297779812312
1539731607099411,-0.213626306553806,12.4208438239109,23.163195239185143
1539731607115417,-2.532997634851654,11.566338597695903,27.069504844739413
1539731607131424,-2.410925459678083,10.284580758373295,29.694056610971074
1539731607147430,-2.7161058976118966,9.796292057679011,31.403067063401068
1539731607163437,-3.6316472114137923,8.33142595559616,31.64721141374821
1539731607179443,-1.4953841458761872,6.500343327992596,28.656443121995835
1539731607195449,-3.3875028610666504,3.4485389486533222,23.468375677118956
1539731607211456,-0.9460593575952316,-1.2512397955290453,18.95170519569683
1539731607227462,4.852368963149502,-6.927595941100208,15.655756466010416
1539731607243469,10.89494163424115,-11.871519035629717,12.848096437018285
1539731607259475,13.153276874952326,-15.899900816357558,9.979400320439481
1539731607275482,8.575570305943302,-18.097199969481835,6.439307240405924
1539731607291488,5.279621576256886,-17.975127794308264,2.8992141603723667
1539731607307495,2.3498893720911838,-16.754406042572555,-1.0681315327688026
1539731607323501,4.852368963149502,-16.1440451667047,-4.9134050507361735
1539731607339538,11.749446860456146,-16.876478217746126,-7.354848554207592
1539731607355545,14.740215152208748,-16.876478217746126,-8.392462043183059
1539731607371551,9.67421988250544,-13.76363775082018,-9.308003356984727
1539731607387558,6.561379415579495,-7.721065079728305,-11.627374685282575
1539731607403564,3.0823224231326094,-1.3122758831159445,-15.411612115663274
1539731607419571,-0.5188067444876197,2.227817196917613,-17.42580300602731
1539731607435577,-2.105745021744042,2.7771419851987957,-16.08300907911803
1539731607451583,-5.76791027695117,1.0070954451819034,-12.23773556115043
1539731607467590,-0.09155413138023505,-0.8850232700083325,-7.843137254901876
1539731607483596,3.2043945983061803,-3.3875028610666504,-5.645838101777599
1539731607499603,4.730296787975931,-5.0354772259097444,-4.791332875562603
1539731607515609,10.040436408026153,-5.0354772259097444,-3.7537193865873633
1539731607531616,11.20012207217519,-4.791332875562603,-2.410925459678083
1539731607547622,9.73525597009234,-4.547188525215461,-1.6174563210497581
1539731607563629,10.406652933546866,-4.974441138323073,-1.4953841458761872
1539731607579635,12.909132524605184,-5.2185854886702145,-1.9226367589837992
1539731607595642,14.80125123979542,-4.9134050507361735,-2.3498893720911838
1539731607611648,14.190890363927565,-4.730296787975931,-2.227817196917613
1539731607627655,12.542915999084471,-4.974441138323073,-2.532997634851654
1539731607643661,11.139085984588291,-4.852368963149502,-3.7537193865873633
1539731607659698,13.519493400473038,-4.303044174868319,-6.195162890058782
1539731607675705,15.533684290836845,-4.791332875562603,-7.904173342488775
1539731607691711,16.2050812542916,-5.889982452124741,-8.392462043183059
1539731607707718,14.862287327382319,-6.012054627298312,-6.500343327992596
1539731607723724,8.880750743877343,-5.0354772259097444,-1.3122758831159445
1539731607739730,6.134126802471883,-2.7161058976118966,4.974441138323073
1539731607755737,2.227817196917613,-0.7019150072480898,9.613183794918768
1539731607771743,-1.983672846570471,0.7629510948347615,11.261158159761862
1539731607787750,-4.669260700389032,1.6784924086366573,9.185931181811156
1539731607803756,-3.997863736934505,2.166781109330941,4.486152437628789
1539731607819763,-3.6316472114137923,1.4343480582895154,-0.6408789196611906
1539731607835769,-0.03051804379333589,-0.8239871824216607,-3.5095750362402214
1539731607851776,5.95101853971164,-3.3264667734797513,-3.2654306858930795
1539731607867782,9.491111619745197,-5.2185854886702145,-1.3122758831159445
1539731607883789,12.176699473563758,-5.3406576638437855,0.2746623941404778
1539731607899795,10.528725108720437,-4.058899824521177,1.0070954451819034
1539731607915802,4.303044174868319,-2.227817196917613,0.9460593575952316
1539731607931808,0.5798428320745188,-0.5798428320745188,-0.15259021896690683
1539731607947815,-0.33569848172737693,-0.5188067444876197,-0.8239871824216607
1539731607963821,3.997863736934505,-1.4953841458761872,-1.0070954451819034
1539731607979858,3.5095750362402214,-2.7771419851987957,-0.7019150072480898
1539731607995864,3.1433585107195086,-2.8381780727854675,-0.3967345693140487
1539731608011871,2.7161058976118966,-2.7161058976118966,-1.1291676203554744
1539731608027877,1.3733119707026162,-2.8992141603723667,-1.8616006713969
1539731608043884,0.8850232700083325,-2.7771419851987957,-1.3122758831159445
1539731608059890,1.9226367589837992,-2.7161058976118966,-0.45777065690094787
1539731608075897,3.1433585107195086,-2.7161058976118966,-0.09155413138023505
1539731608091903,1.1902037079423735,-3.0212863355459376,-0.33569848172737693
1539731608107910,-0.8239871824216607,-3.3264667734797513,-0.7019150072480898
1539731608123916,-1.0070954451819034,-2.7161058976118966,-1.1902037079423735
1539731608139923,0.2746623941404778,-1.983672846570471,-1.8005645838102282
1539731608155929,-1.0070954451819034,-1.6174563210497581,-1.8616006713969
1539731608171936,-1.1291676203554744,-1.6174563210497581,-1.1291676203554744
1539731608187942,-1.1902037079423735,-1.6784924086366573,-0.3967345693140487
1539731608203949,-1.6174563210497581,-1.6784924086366573,-0.3967345693140487
1539731608219955,-1.1291676203554744,-1.6174563210497581,-1.1902037079423735
1539731608235962,-2.5940337224383256,-1.8005645838102282,-2.3498893720911838
1539731608251968,-3.570611123826893,-1.8616006713969,-2.8381780727854675
1539731608267974,-3.0823224231326094,-1.4343480582895154,-3.0823224231326094
1539731608283981,-0.7629510948347615,-1.0070954451819034,-2.227817196917613
1539731608300018,1.4953841458761872,-1.3733119707026162,2.5940337224383256
1539731608316025,-6.8665598535133086,-1.5564202334630863,9.67421988250544
1539731608332032,-24.567025253681095,-1.4953841458761872,18.646524757763018
1539731608348039,-28.595407034408936,1.6174563210497581,29.38887617303726
1539731608364046,-29.20576791027679,7.232776379034021,41.16884107728674
1539731608380053,-31.830319676508907,11.261158159761862,55.390249485007644
1539731608396060,-27.61882963302037,11.749446860456146,74.98283360036658
1539731608412067,-22.064545662623004,9.491111619745197,96.83375295643555
1539731608428074,-20.11139085984587,3.997863736934505,118.56260013733117
1539731608444080,-24.505989166094423,-6.256198977645454,141.6342412451363
1539731608460087,-17.853055619134693,-15.045395590142562,161.53200579842814
1539731608476094,-14.92332341496899,-21.087968261234437,173.98336766613238
1539731608492101,0.5798428320745188,-23.041123064011572,175.87548638132284
1539731608508108,10.89494163424115,-23.651483939879427,170.74845502403286
1539731608524115,17.975127794308264,-22.430762188143717,160.55542839703958
1539731608540122,27.008468757152514,-23.163195239185143,149.01960784313724
1539731608556129,28.351262684061794,-26.214999618524416,138.46036469062346
1539731608572136,35.30937666895534,-30.60959792477297,127.16868848706781
1539731608588143,58.9913786526281,-33.11207751583129,112.39795529106595
1539731608604150,67.29228656443138,-33.23414969100486,96.10131990539412
1539731608620178,67.41435873960518,-32.99000534065772,79.13328755626799
1539731608636185,62.226291294727616,-33.23414969100486,63.263904783703765
1539731608652192,59.05241474021477,-34.027618829633184,47.82177462424647
1539731608668199,59.17448691538857,-33.844510566872714,32.92896925307082
1539731608684206,60.944533455405235,-33.11207751583129,17.730983443961122
1539731608700213,54.04745555809859,-31.342030975814623,-2.3498893720911838
1539731608716220,31.036850537880355,-30.670634012359642,-28.473334859235365
1539731608732226,13.58052948805971,-29.816128786144645,-58.503089951934044
1539731608748233,13.092240787365427,-25.42153047989609,-94.94163424124531
1539731608764240,5.462729839017356,-17.181658655680167,-139.62005035477227
1539731608780247,3.997863736934505,-2.8992141603723667,-195.529106584268
1539731608796254,-34.027618829633184,12.542915999084471,-260.7766842145418
1539731608812261,-41.779201953154825,25.29945830472252,-333.22652018005647
1539731608828268,-47.51659418631266,35.61455710688938,-410.0709544518197
1539731608844275,-60.51728084229808,45.5634393835353,-475.806820782788
1539731608860282,-947.3105973907072,-30.914778362706784,-244.84626535439088
1539731608876289,522.6214999618524,-0.7629510948347615,40.74158846417936
1539731608892296,273.4721904325934,9.246967269398056,71.8699931334404
1539731608908303,14.068818188753994,-1.6784924086366573,35.43144884412891
1539731608924310,27.435721370260126,10.101472495613052,17.48683909361398
1539731608940368,19.317921721217544,11.322194247348762,15.838864728770886
1539731608956375,21.820401312275862,3.0212863355459376,28.534370946822264
1539731608972382,29.51094834821083,-4.974441138323073,46.23483634699005
1539731608988389,22.308690012970146,-9.369039444571627,65.15602349889377
1539731609004396,20.294499122606112,-8.209353780422589,76.87495231555658
1539731609020403,8.575570305943302,-5.889982452124741,78.46189059281323
1539731609036410,-0.33569848172737693,-2.4719615472647547,70.28305485618375
1539731609052417,-8.880750743877343,1.1291676203554744,55.817502098115256
1539731609068424,-10.101472495613052,3.2654306858930795,38.78843366140222
1539731609084431,-11.566338597695903,0.8239871824216607,23.407339589532285
1539731609100438,-10.772869459067579,-2.8992141603723667,8.880750743877343
1539731609116445,-5.889982452124741,-3.692683299000464,-4.42511635004189
1539731609132452,-1.983672846570471,-1.4953841458761872,-15.899900816357558
1539731609148459,-1.8005645838102282,0.45777065690094787,-22.8580148012511
1539731609164466,-3.1433585107195086,0.09155413138023505,-23.95666437781324
1539731609180472,-8.941786831464015,-0.3967345693140487,-20.599679560540153
1539731609196479,-11.627374685282575,-0.213626306553806,-16.693369954985883
1539731609212486,-12.542915999084471,-0.5188067444876197,-14.435034714274707
1539731609228493,-4.119935912108076,-1.5564202334630863,-13.214312962538997
1539731609244500,2.166781109330941,-3.5095750362402214,-11.871519035629717
1539731609260528,0.33569848172737693,-5.523765926604028,-10.528725108720437
1539731609276536,-5.462729839017356,-6.012054627298312,-9.124895094224485
1539731609292543,-5.462729839017356,-4.119935912108076,-8.697642481116873
1539731609308550,-0.5188067444876197,-1.739528496223329,-10.589761196307336
1539731609324558,-3.3875028610666504,-1.4343480582895154,-13.45845731288614
1539731609340565,-9.063859006637585,-1.8005645838102282,-15.10643167772946
1539731609356573,-15.899900816357558,-2.166781109330941,-15.838864728770886
1539731609372580,-15.045395590142562,-0.5188067444876197,-17.120622568093268
1539731609388588,-8.758678568703772,1.0681315327688026,-20.17242694743254
1539731609404595,-3.692683299000464,1.4953841458761872,-22.980086976424673
1539731609420602,-3.3264667734797513,1.3122758831159445,-23.041123064011572
1539731609436610,-5.706874189364498,0.8239871824216607,-20.538643472953254
1539731609452617,-7.904173342488775,1.0681315327688026,-17.48683909361398
1539731609468625,-3.6316472114137923,1.0681315327688026,-16.1440451667047
1539731609484632,-3.2043945983061803,0.15259021896690683,-16.32715342946517
1539731609500640,-1.0070954451819034,0.7019150072480898,-14.80125123979542
1539731609516647,-0.6408789196611906,1.0681315327688026,-11.139085984588291
1539731609532654,-0.8239871824216607,0.7019150072480898,-7.2938124666209205
1539731609548662,1.8005645838102282,0.5188067444876197,-5.2185854886702145
1539731609564669,-3.570611123826893,-0.213626306553806,-5.401693751430457
1539731609580688,-1.983672846570471,-1.3122758831159445,-5.0354772259097444
1539731609596696,-2.04470893415737,-2.04470893415737,-4.791332875562603
1539731609612703,-1.8005645838102282,-1.6174563210497581,-5.096513313496644
1539731609628710,1.9226367589837992,-0.3967345693140487,-7.11070420386045
1539731609644718,0.15259021896690683,0.8239871824216607,-9.67421988250544
1539731609660725,-1.4343480582895154,2.105745021744042,-11.444266422522333
1539731609676733,-3.2654306858930795,2.9602502479590385,-12.23773556115043
1539731609692740,-4.486152437628789,3.6316472114137923,-13.092240787365427
1539731609708747,-1.4343480582895154,4.242008087281647,-15.533684290836845
1539731609724755,-0.03051804379333589,3.0823224231326094,-17.914091706721592
1539731609740762,4.547188525215461,0.5798428320745188,-17.853055619134693
1539731609756770,2.8381780727854675,-2.288853284504512,-13.946746013580423
1539731609772777,1.2512397955290453,-3.997863736934505,-4.60822461280236
1539731609788785,1.8005645838102282,-4.058899824521177,5.2185854886702145
1539731609804792,-0.3967345693140487,-2.7161058976118966,10.345616845960194
1539731609820799,-0.7019150072480898,-0.33569848172737693,9.67421988250544
1539731609836807,-3.0823224231326094,1.3122758831159445,4.60822461280236
1539731609852814,-4.974441138323073,1.739528496223329,-1.0681315327688026
1539731609868822,-8.819714656290444,0.9460593575952316,-4.791332875562603
1539731609884829,-7.721065079728305,-0.8850232700083325,-6.317235065232353
1539731609900848,-6.012054627298312,-3.2043945983061803,-5.3406576638437855
1539731609916855,-3.814755474174035,-4.974441138323073,-2.9602502479590385
1539731609932863,-4.180971999694748,-5.279621576256886,-1.2512397955290453
1539731609948870,-4.852368963149502,-4.058899824521177,-0.3967345693140487
1539731609964878,-4.242008087281647,-3.1433585107195086,-0.45777065690094787
1539731609980885,-3.3875028610666504,-2.8381780727854675,-1.2512397955290453
1539731609996893,-1.3733119707026162,-3.1433585107195086,-2.5940337224383256
1539731610012900,-2.4719615472647547,-3.3875028610666504,-3.0823224231326094
1539731610028907,-0.45777065690094787,-2.8992141603723667,-2.532997634851654
1539731610044915,1.983672846570471,-2.5940337224383256,-1.3122758831159445
1539731610060922,0.6408789196611906,-2.655069810025225,-0.33569848172737693
1539731610076930,-0.2746623941404778,-2.7771419851987957,-0.15259021896690683
1539731610092937,1.739528496223329,-3.0212863355459376,-0.5188067444876197
1539731610108945,1.3733119707026162,-3.3875028610666504,-0.5798428320745188
1539731610124952,2.3498893720911838,-3.2654306858930795,-0.9460593575952316
1539731610140959,3.814755474174035,-2.8381780727854675,-1.8616006713969
1539731610156967,4.791332875562603,-2.5940337224383256,-2.8381780727854675
1539731610172974,5.462729839017356,-2.410925459678083,-2.9602502479590385
1539731610188982,4.242008087281647,-2.166781109330941,-2.3498893720911838
1539731610204989,3.2043945983061803,-1.739528496223329,-1.5564202334630863
1539731610221008,2.9602502479590385,-1.1291676203554744,-0.7629510948347615
1539731610237015,2.5940337224383256,-0.45777065690094787,-0.45777065690094787
1539731610253023,2.410925459678083,-0.09155413138023505,-0.09155413138023505
1539731610269030,-0.03051804379333589,-0.45777065690094787,-0.5798428320745188
1539731610285038,-1.0681315327688026,-0.7019150072480898,-0.3967345693140487
1539731610301045,-0.9460593575952316,-1.0070954451819034,0.5188067444876197
1539731610317052,-0.8239871824216607,-1.4953841458761872,0.7629510948347615
1539731610333060,-0.8850232700083325,-2.166781109330941,0.5188067444876197
1539731610349067,-3.692683299000464,-2.532997634851654,0.5188067444876197
1539731610365075,-3.4485389486533222,-2.410925459678083,0.45777065690094787
1539731610381082,-1.8005645838102282,-2.166781109330941,-0.5188067444876197
1539731610397090,0.8239871824216607,-2.105745021744042,-1.0681315327688026
1539731610413097,2.227817196917613,-2.04470893415737,-1.1902037079423735
1539731610429104,1.3733119707026162,-1.9226367589837992,-1.8616006713969
1539731610445112,2.410925459678083,-1.4953841458761872,-2.105745021744042
1539731610461119,1.4953841458761872,-1.2512397955290453,-1.6784924086366573
1539731610477127,0.5798428320745188,-0.9460593575952316,-0.8850232700083325
1539731610493134,-1.1291676203554744,-1.0681315327688026,-0.2746623941404778
1539731610509142,-4.242008087281647,-1.4953841458761872,-0.15259021896690683
1539731610525149,-3.692683299000464,-1.6174563210497581,0.3967345693140487
1539731610541168,-3.875791561760934,-1.739528496223329,0.9460593575952316
1539731610557175,-3.2654306858930795,-1.6784924086366573,1.1902037079423735
1539731610573183,-1.983672846570471,-1.8005645838102282,0.5798428320745188
1539731610589190,0.33569848172737693,-1.8005645838102282,0.45777065690094787
1539731610605198,0.5188067444876197,-1.8616006713969,0.5188067444876197
1539731610621205,1.6174563210497581,-1.4343480582895154,0.5798428320745188
1539731610637212,1.4953841458761872,-1.3733119707026162,0.09155413138023505
1539731610653220,0.5188067444876197,-0.8850232700083325,-0.15259021896690683
1539731610669227,0.09155413138023505,-0.5798428320745188,0.15259021896690683
1539731610685235,-1.5564202334630863,-0.5798428320745188,0.5798428320745188
1539731610701242,-1.6784924086366573,-0.8850232700083325,1.0070954451819034
1539731610717249,-2.166781109330941,-1.1902037079423735,1.3733119707026162
1539731610733257,-3.1433585107195086,-1.3122758831159445,1.5564202334630863
1539731610749264,-2.288853284504512,-1.1902037079423735,1.6174563210497581
1539731610765272,-3.570611123826893,-1.1902037079423735,1.4343480582895154
1539731610781279,-3.1433585107195086,-0.9460593575952316,1.2512397955290453
1539731610797287,-2.166781109330941,-0.9460593575952316,1.1291676203554744
1539731610813294,0.5188067444876197,-1.1902037079423735,0.8239871824216607
1539731610829301,3.0823224231326094,-1.4343480582895154,0.2746623941404778
1539731610845309,4.180971999694748,-1.4953841458761872,-0.213626306553806
1539731610861328,2.9602502479590385,-1.1291676203554744,-0.33569848172737693
1539731610877335,1.3733119707026162,-0.5188067444876197,-0.45777065690094787
1539731610893343,0.213626306553806,-0.03051804379333589,-0.5188067444876197
1539731610909350,-0.45777065690094787,-0.03051804379333589,-0.213626306553806
1539731610925357,-1.0681315327688026,-0.5798428320745188,0.33569848172737693
1539731610941365,-0.8850232700083325,-0.8239871824216607,0.45777065690094787
1539731610957372,-0.7629510948347615,-1.0681315327688026,0.09155413138023505
1539731610973380,-1.3733119707026162,-1.4343480582895154,-0.09155413138023505
1539731610989387,-1.2512397955290453,-1.6174563210497581,-0.2746623941404778
1539731611005395,-1.8005645838102282,-1.8005645838102282,-0.2746623941404778
1539731611021402,-1.0070954451819034,-1.739528496223329,-0.213626306553806
1539731611037409,-1.1902037079423735,-1.6784924086366573,-0.2746623941404778
1539731611053417,-0.03051804379333589,-1.2512397955290453,-0.5188067444876197
1539731611069424,0.5798428320745188,-1.3733119707026162,-0.6408789196611906
1539731611085432,1.6784924086366573,-1.6174563210497581,-0.5798428320745188
1539731611101439,3.5095750362402214,-1.6174563210497581,-0.6408789196611906
1539731611117447,3.814755474174035,-1.6174563210497581,-0.33569848172737693
1539731611133454,3.5095750362402214,-1.2512397955290453,0.03051804379333589
1539731611149461,1.5564202334630863,-0.8850232700083325,0.03051804379333589
1539731611165469,1.0070954451819034,-0.5188067444876197,0.03051804379333589
1539731611181488,0.5188067444876197,-0.5188067444876197,-0.03051804379333589
1539731611197495,0.3967345693140487,-0.5798428320745188,0.15259021896690683
1539731611213503,0.7019150072480898,-0.5188067444876197,0.2746623941404778
1539731611229510,-0.03051804379333589,-0.33569848172737693,0.45777065690094787
1539731611245517,-1.739528496223329,-0.09155413138023505,0.3967345693140487
1539731611261525,-2.8381780727854675,0.09155413138023505,0.5188067444876197
1539731611277532,-2.410925459678083,-0.09155413138023505,0.6408789196611906
1539731611293540,-1.9226367589837992,-0.3967345693140487,0.6408789196611906
1539731611309547,-1.2512397955290453,-0.7019150072480898,0.213626306553806
1539731611325554,-0.45777065690094787,-0.7019150072480898,-0.09155413138023505
1539731611341562,-0.8850232700083325,-0.7019150072480898,-0.03051804379333589
1539731611357569,-1.0681315327688026,-0.5798428320745188,0.03051804379333589
1539731611373577,-0.3967345693140487,-0.6408789196611906,-0.03051804379333589
1539731611389584,-0.5188067444876197,-0.9460593575952316,-0.15259021896690683
1539731611405592,-0.213626306553806,-0.9460593575952316,-0.3967345693140487
1539731611421599,-0.03051804379333589,-0.8850232700083325,-0.3967345693140487
1539731611437606,0.6408789196611906,-1.0070954451819034,-0.33569848172737693
1539731611453614,0.8239871824216607,-1.1291676203554744,-0.33569848172737693
1539731611469621,0.09155413138023505,-1.0681315327688026,-0.5188067444876197
1539731611485629,-0.2746623941404778,-1.0070954451819034,-0.6408789196611906
1539731611501648,-2.3498893720911838,-0.9460593575952316,-0.3967345693140487
1539731611517655,-3.1433585107195086,-0.7629510948347615,0.03051804379333589
1539731611533662,-2.3498893720911838,-0.8239871824216607,0.45777065690094787
1539731611549670,-2.410925459678083,-1.0681315327688026,0.6408789196611906
1539731611565677,-2.7161058976118966,-1.1291676203554744,0.45777065690094787
1539731611581685,-2.3498893720911838,-1.3733119707026162,0.33569848172737693
1539731611597692,-0.9460593575952316,-1.6784924086366573,0.33569848172737693
1539731611613700,0.213626306553806,-1.8005645838102282,0.2746623941404778
1539731611629707,1.4953841458761872,-1.6784924086366573,0.2746623941404778
1539731611645714,1.1902037079423735,-1.4953841458761872,0.09155413138023505
1539731611661722,0.213626306553806,-1.4953841458761872,-0.09155413138023505
1539731611677729,-0.2746623941404778,-1.2512397955290453,-0.213626306553806
1539731611693737,-0.03051804379333589,-1.1291676203554744,-0.03051804379333589
1539731611709744,-0.15259021896690683,-1.1902037079423735,0.213626306553806
1539731611725752,-0.03051804379333589,-1.3122758831159445,0.8850232700083325
1539731611741759,-0.33569848172737693,-1.3122758831159445,1.1902037079423735
1539731611757766,-1.0681315327688026,-0.9460593575952316,1.1291676203554744
1539731611773774,-1.6784924086366573,-0.8239871824216607,0.8850232700083325
1539731611789781,-1.6174563210497581,-0.8850232700083325,0.9460593575952316
1539731611805789,-1.1902037079423735,-0.9460593575952316,0.8850232700083325
1539731611821807,-1.4953841458761872,-0.9460593575952316,0.9460593575952316
1539731611837815,-0.6408789196611906,-0.9460593575952316,0.8850232700083325
1539731611853822,-0.3967345693140487,-1.3122758831159445,0.8850232700083325
1539731611869830,-0.15259021896690683,-1.739528496223329,0.9460593575952316
1539731611885837,-0.45777065690094787,-1.983672846570471,0.9460593575952316
1539731611901845,-0.213626306553806,-2.166781109330941,0.7629510948347615
1539731611917852,0.45777065690094787,-2.105745021744042,0.33569848172737693
1539731611933859,0.5798428320745188,-2.04470893415737,0.2746623941404778
1539731611949867,-0.03051804379333589,-1.9226367589837992,0.213626306553806
1539731611965874,-0.33569848172737693,-1.6784924086366573,-0.213626306553806
1539731611981882,0.5798428320745188,-1.3733119707026162,-0.7629510948347615
1539731611997889,1.8005645838102282,-1.4953841458761872,-1.1291676203554744
1539731612013897,2.4719615472647547,-1.983672846570471,-0.9460593575952316
1539731612029904,2.8992141603723667,-2.04470893415737,-0.5798428320745188
1539731612045911,0.8850232700083325,-1.9226367589837992,-0.5188067444876197
1539731612061919,-0.3967345693140487,-1.4343480582895154,-0.7019150072480898
1539731612077926,-0.9460593575952316,-1.0681315327688026,-0.8239871824216607
1539731612093934,-0.45777065690094787,-1.1902037079423735,-0.5798428320745188
1539731612109941,0.213626306553806,-1.5564202334630863,-0.33569848172737693
1539731612125949,0.8239871824216607,-1.8616006713969,-0.2746623941404778
1539731612141967,1.3733119707026162,-1.9226367589837992,-0.09155413138023505
1539731612157975,0.15259021896690683,-1.983672846570471,0.7019150072480898
1539731612173982,-1.5564202334630863,-1.4343480582895154,1.8005645838102282
1539731612189990,-2.8992141603723667,-0.7629510948347615,2.655069810025225
1539731612205997,-3.875791561760934,-0.33569848172737693,2.8992141603723667
1539731612222005,-3.814755474174035,-0.45777065690094787,2.7771419851987957
1539731612238012,-3.2043945983061803,-0.8239871824216607,2.227817196917613
1539731612254019,-3.3875028610666504,-1.1902037079423735,1.739528496223329
1539731612270027,-2.9602502479590385,-1.1291676203554744,1.3122758831159445
1539731612286034,-3.3875028610666504,-0.5798428320745188,0.7629510948347615
1539731612302042,-3.692683299000464,-0.15259021896690683,0.15259021896690683
1539731612318049,-1.8005645838102282,-0.213626306553806,-0.09155413138023505
1539731612334056,-0.6408789196611906,-0.8239871824216607,-0.15259021896690683
1539731612350064,0.2746623941404778,-1.1902037079423735,-0.2746623941404778
1539731612366071,1.3122758831159445,-1.1902037079423735,-0.33569848172737693
1539731612382079,0.7629510948347615,-1.1291676203554744,-0.2746623941404778
1539731612398086,-0.09155413138023505,-0.8850232700083325,-0.3967345693140487
1539731612414094,-0.15259021896690683,-0.7019150072480898,-0.7019150072480898
1539731612430101,0.5188067444876197,-0.8239871824216607,-1.0070954451819034
1539731612446108,0.5798428320745188,-1.3122758831159445,-1.1902037079423735
1539731612462158,1.3122758831159445,-1.6784924086366573,-1.3733119707026162
1539731612478166,1.1291676203554744,-1.5564202334630863,-1.1902037079423735
1539731612494174,0.2746623941404778,-1.4343480582895154,-0.8850232700083325
1539731612510182,-0.8850232700083325,-1.6784924086366573,-0.5798428320745188
1539731612526189,-0.7019150072480898,-1.739528496223329,-0.5798428320745188
1539731612542197,-0.9460593575952316,-1.6174563210497581,-0.3967345693140487
1539731612558205,-0.2746623941404778,-1.4343480582895154,-0.15259021896690683
1539731612574213,-0.2746623941404778,-1.4953841458761872,0.09155413138023505
1539731612590221,-0.6408789196611906,-1.6174563210497581,0.3967345693140487
1539731612606229,-0.33569848172737693,-1.5564202334630863,0.5188067444876197
1539731612622237,-0.7629510948347615,-1.3733119707026162,0.5798428320745188
1539731612638245,-0.8850232700083325,-1.4343480582895154,0.9460593575952316
1539731612654253,-1.0070954451819034,-1.739528496223329,1.0681315327688026
1539731612670261,-0.8850232700083325,-1.983672846570471,0.8850232700083325
1539731612686268,-0.5188067444876197,-2.166781109330941,0.7629510948347615
1539731612702276,0.15259021896690683,-2.3498893720911838,1.3733119707026162
1539731612718284,1.3122758831159445,-2.3498893720911838,2.4719615472647547
1539731612734292,1.3122758831159445,-2.04470893415737,3.570611123826893
1539731612750300,-0.7019150072480898,-1.3733119707026162,3.997863736934505
1539731612766308,-2.4719615472647547,-0.3967345693140487,3.814755474174035
1539731612782318,-4.119935912108076,0.5188067444876197,3.2043945983061803
1539731612798326,-3.5095750362402214,0.9460593575952316,2.7771419851987957
1539731612814334,-1.3122758831159445,0.5798428320745188,2.7771419851987957
1539731612830341,0.45777065690094787,0.09155413138023505,2.7161058976118966
1539731612846349,0.3967345693140487,-0.45777065690094787,2.410925459678083
1539731612862357,-1.3733119707026162,-0.7629510948347615,1.983672846570471
1539731612878365,-1.8616006713969,-1.0681315327688026,1.8616006713969
1539731612894373,-1.5564202334630863,-1.4953841458761872,1.9226367589837992
1539731612910381,-0.2746623941404778,-1.9226367589837992,1.8005645838102282
1539731612926389,-0.09155413138023505,-2.166781109330941,1.3122758831159445
1539731612942397,0.45777065690094787,-1.983672846570471,0.5188067444876197
1539731612958405,0.9460593575952316,-1.983672846570471,0.03051804379333589
1539731612974413,1.1291676203554744,-2.166781109330941,-0.09155413138023505
1539731612990420,1.0070954451819034,-2.166781109330941,-0.33569848172737693
1539731613006428,0.15259021896690683,-2.04470893415737,-0.7019150072480898
1539731613022436,-1.1291676203554744,-1.983672846570471,-0.7629510948347615
1539731613038444,-0.9460593575952316,-1.983672846570471,-0.7019150072480898
1539731613054452,0.15259021896690683,-2.105745021744042,-0.5798428320745188
1539731613070460,1.0681315327688026,-2.166781109330941,-0.5188067444876197
1539731613086468,1.4953841458761872,-2.288853284504512,-0.5188067444876197
1539731613102478,0.6408789196611906,-2.227817196917613,-0.213626306553806
1539731613118486,-0.3967345693140487,-2.105745021744042,0.03051804379333589
1539731613134493,-0.7019150072480898,-1.9226367589837992,0.03051804379333589
1539731613150501,-0.15259021896690683,-1.739528496223329,-0.15259021896690683
1539731613166509,0.2746623941404778,-1.5564202334630863,-0.2746623941404778
1539731613182517,0.45777065690094787,-1.3122758831159445,-0.2746623941404778
1539731613198525,0.7629510948347615,-1.1902037079423735,-0.2746623941404778
1539731613214533,0.3967345693140487,-1.0681315327688026,-0.15259021896690683
1539731613230541,0.2746623941404778,-0.8850232700083325,0.09155413138023505
1539731613246549,-1.0070954451819034,-0.9460593575952316,0.33569848172737693
1539731613262557,-1.9226367589837992,-1.0681315327688026,0.45777065690094787
1539731613278565,-1.739528496223329,-1.0681315327688026,0.2746623941404778
1539731613294572,-0.33569848172737693,-1.0681315327688026,0.15259021896690683
1539731613310580,0.8239871824216607,-1.2512397955290453,0.213626306553806
1539731613326588,0.8850232700083325,-1.4953841458761872,0.5798428320745188
1539731613342596,-0.2746623941404778,-1.5564202334630863,0.6408789196611906
1539731613358604,-0.8850232700083325,-1.3122758831159445,0.33569848172737693
1539731613374612,-1.3122758831159445,-1.2512397955290453,0.15259021896690683
1539731613390620,-0.7019150072480898,-1.4953841458761872,-0.09155413138023505
1539731613406628,0.15259021896690683,-1.739528496223329,-0.2746623941404778
1539731613422638,0.213626306553806,-2.04470893415737,-0.33569848172737693
1539731613438645,0.3967345693140487,-2.105745021744042,-0.3967345693140487
1539731613454653,0.5798428320745188,-1.983672846570471,-0.7019150072480898
1539731613470661,-0.15259021896690683,-1.8005645838102282,-0.8239871824216607
1539731613486669,-0.213626306553806,-1.739528496223329,-1.0070954451819034
1539731613502677,0.213626306553806,-1.6784924086366573,-0.8239871824216607
1539731613518685,0.7629510948347615,-1.6784924086366573,-0.6408789196611906
1539731613534693,1.2512397955290453,-1.5564202334630863,-0.33569848172737693
1539731613550701,0.8239871824216607,-1.5564202334630863,-0.15259021896690683
1539731613566709,-0.213626306553806,-1.4343480582895154,0.03051804379333589
1539731613582717,-1.0681315327688026,-0.8850232700083325,0.03051804379333589
1539731613598724,-1.1902037079423735,-0.5798428320745188,-0.15259021896690683
1539731613614732,0.03051804379333589,-0.5798428320745188,-0.213626306553806
1539731613630740,1.739528496223329,-1.0070954451819034,-0.213626306553806
1539731613646748,3.2654306858930795,-1.6784924086366573,-0.03051804379333589
1539731613662756,3.692683299000464,-2.227817196917613,0.33569848172737693
1539731613678764,2.410925459678083,-2.410925459678083,0.45777065690094787
1539731613694772,0.15259021896690683,-2.04470893415737,0.45777065690094787
1539731613710780,-2.532997634851654,-1.4343480582895154,0.213626306553806
1539731613726788,-2.8992141603723667,-0.6408789196611906,-0.15259021896690683
1539731613742797,-1.1902037079423735,-0.45777065690094787,-0.5188067444876197
1539731613758805,1.1291676203554744,-0.8850232700083325,-0.6408789196611906
1539731613774813,3.3875028610666504,-1.4953841458761872,-0.5188067444876197
1539731613790821,3.2654306858930795,-1.9226367589837992,-0.213626306553806
1539731613806829,1.1902037079423735,-1.6174563210497581,0.213626306553806
1539731613822837,-0.6408789196611906,-0.8239871824216607,0.6408789196611906
1539731613838845,-2.04470893415737,-0.3967345693140487,1.0070954451819034
1539731613854853,-2.4719615472647547,-0.45777065690094787,1.1902037079423735
1539731613870861,-1.6174563210497581,-0.7629510948347615,0.9460593575952316
1539731613886869,-1.5564202334630863,-1.0681315327688026,0.33569848172737693
1539731613902876,-1.6784924086366573,-1.1291676203554744,-0.2746623941404778
1539731613918884,-1.8005645838102282,-0.8850232700083325,-0.5188067444876197
1539731613934892,-1.3122758831159445,-0.8850232700083325,-0.5188067444876197
1539731613950900,-0.33569848172737693,-1.1902037079423735,-0.6408789196611906
1539731613966908,1.983672846570471,-1.6174563210497581,-0.7019150072480898
1539731613982916,3.0823224231326094,-2.105745021744042,-0.45777065690094787
1539731613998924,2.4719615472647547,-1.983672846570471,0.03051804379333589
1539731614014932,0.7019150072480898,-1.0070954451819034,0.8239871824216607
1539731614030940,-1.9226367589837992,0.09155413138023505,1.6784924086366573
1539731614046948,-4.364080262455218,0.6408789196611906,2.105745021744042
1539731614062957,-4.180971999694748,0.5188067444876197,1.983672846570471
1539731614078965,-2.5940337224383256,0.213626306553806,1.5564202334630863
1539731614094973,-2.7771419851987957,-0.2746623941404778,1.4953841458761872
1539731614110981,-3.814755474174035,-0.5798428320745188,1.6784924086366573
1539731614126989,-5.157549401083315,-0.7019150072480898,1.6174563210497581
1539731614142997,-5.0354772259097444,-0.6408789196611906,0.8239871824216607
1539731614159005,-3.814755474174035,-0.7629510948347615,-0.2746623941404778
1539731614175013,-1.0681315327688026,-1.1902037079423735,-1.3122758831159445
1539731614191021,0.7629510948347615,-1.4953841458761872,-1.8005645838102282
1539731614207028,0.8850232700083325,-1.4343480582895154,-1.6174563210497581
1539731614223036,-0.7019150072480898,-1.1902037079423735,-0.9460593575952316
1539731614239044,-1.4953841458761872,-1.1902037079423735,-0.5188067444876197
1539731614255052,-1.3733119707026162,-1.6174563210497581,-0.213626306553806
1539731614271060,-0.7019150072480898,-2.105745021744042,-0.03051804379333589
1539731614287068,-1.4343480582895154,-2.532997634851654,0.33569848172737693
1539731614303076,-0.6408789196611906,-2.5940337224383256,0.3967345693140487
1539731614319084,0.3967345693140487,-2.8381780727854675,0.03051804379333589
1539731614335092,2.8992141603723667,-2.8992141603723667,-0.5798428320745188
1539731614351100,3.3875028610666504,-3.0823224231326094,-1.1902037079423735
1539731614367107,1.8005645838102282,-2.5940337224383256,-1.4953841458761872
1539731614383148,0.7629510948347615,-1.5564202334630863,-1.6784924086366573
1539731614399156,0.213626306553806,-0.8239871824216607,-1.9226367589837992
1539731614415164,0.15259021896690683,-0.7629510948347615,-1.9226367589837992
1539731614431172,0.2746623941404778,-1.1902037079423735,-1.4343480582895154
1539731614447179,1.4953841458761872,-1.4953841458761872,-0.7629510948347615
1539731614463187,0.8239871824216607,-1.4343480582895154,-0.03051804379333589
1539731614479195,-0.3967345693140487,-0.8850232700083325,0.8850232700083325
1539731614495203,-1.6784924086366573,-0.5798428320745188,1.5564202334630863
1539731614511211,-2.04470893415737,-0.7019150072480898,1.6174563210497581
1539731614527219,-1.1291676203554744,-0.9460593575952316,1.3733119707026162
1539731614543227,-0.09155413138023505,-1.3122758831159445,0.8850232700083325
1539731614559235,0.8850232700083325,-1.4343480582895154,0.6408789196611906
1539731614575243,1.4343480582895154,-1.5564202334630863,0.8239871824216607
1539731614591251,0.15259021896690683,-1.3122758831159445,1.0681315327688026
1539731614607258,-0.7629510948347615,-0.8850232700083325,1.1902037079423735
1539731614623266,-1.5564202334630863,-0.5798428320745188,1.4343480582895154
1539731614639274,-1.0681315327688026,-0.33569848172737693,1.4343480582895154
1539731614655282,0.2746623941404778,-0.2746623941404778,1.3122758831159445
1539731614671290,0.8239871824216607,-0.2746623941404778,0.8239871824216607
1539731614687298,1.1902037079423735,0.03051804379333589,0.7629510948347615
1539731614703308,0.8850232700083325,0.3967345693140487,0.9460593575952316
1539731614719316,0.2746623941404778,0.7019150072480898,0.9460593575952316
1539731614735324,-0.15259021896690683,1.0070954451819034,0.5798428320745188
1539731614751331,-0.6408789196611906,1.1291676203554744,-0.09155413138023505
1539731614767339,-0.5798428320745188,1.0070954451819034,-0.5188067444876197
1539731614783347,-0.5188067444876197,0.9460593575952316,-0.9460593575952316
1539731614799355,-0.2746623941404778,1.1291676203554744,-1.6784924086366573
1539731614815363,0.8239871824216607,1.983672846570471,-2.655069810025225
1539731614831371,1.6174563210497581,2.3498893720911838,-3.3264667734797513
1539731614847379,4.60822461280236,1.8005645838102282,-3.570611123826893
1539731614863387,7.537956816968062,0.5798428320745188,-3.2654306858930795
1539731614879395,9.430075532158298,-0.6408789196611906,-2.4719615472647547
1539731614895403,7.598992904554734,-1.2512397955290453,-1.6174563210497581
1539731614911410,3.2654306858930795,-1.3122758831159445,-0.8850232700083325
1539731614927418,-1.6784924086366573,-1.1902037079423735,0.09155413138023505
1539731614943426,-5.3406576638437855,-1.0070954451819034,1.3122758831159445
1539731614959434,-6.134126802471883,-1.2512397955290453,1.983672846570471
1539731614975442,-5.523765926604028,-2.04470893415737,1.983672846570471
1539731614991450,-3.692683299000464,-3.2043945983061803,1.8005645838102282
1539731615007458,-3.0823224231326094,-3.875791561760934,1.6174563210497581
1539731615023468,-3.2043945983061803,-3.570611123826893,1.4343480582895154
1539731615039476,-3.692683299000464,-2.8381780727854675,1.3733119707026162
1539731615055483,-4.486152437628789,-2.288853284504512,1.6784924086366573
1539731615071491,-4.669260700389032,-1.8005645838102282,2.3498893720911838
1539731615087499,-4.486152437628789,-1.6174563210497581,2.9602502479590385
1539731615103507,-2.8381780727854675,-1.8005645838102282,3.4485389486533222
1539731615119515,-0.33569848172737693,-2.532997634851654,3.5095750362402214
1539731615135523,2.288853284504512,-3.2043945983061803,2.9602502479590385
1539731615151531,3.7537193865873633,-3.5095750362402214,1.8005645838102282
1539731615167539,3.692683299000464,-2.9602502479590385,0.5188067444876197
1539731615183547,2.04470893415737,-1.983672846570471,-1.3122758831159445
1539731615199555,0.213626306553806,-1.1291676203554744,-2.532997634851654
1539731615215562,-0.6408789196611906,-0.6408789196611906,-2.8992141603723667
1539731615231570,-1.0070954451819034,-0.5798428320745188,-2.4719615472647547
1539731615247578,-1.1291676203554744,-0.9460593575952316,-1.8616006713969
1539731615263586,-0.45777065690094787,-1.6784924086366573,-1.2512397955290453
1539731615279594,1.3122758831159445,-2.288853284504512,-0.7019150072480898
1539731615295602,1.4343480582895154,-2.7161058976118966,-0.6408789196611906
1539731615311610,0.7629510948347615,-3.0212863355459376,-0.8239871824216607
1539731615327618,-0.15259021896690683,-2.8381780727854675,-1.1291676203554744
1539731615343658,-1.4343480582895154,-2.288853284504512,-1.6784924086366573
1539731615359666,-1.0070954451819034,-1.3733119707026162,-2.166781109330941
1539731615375674,-0.45777065690094787,-0.7629510948347615,-2.227817196917613
1539731615391682,0.8239871824216607,-0.7629510948347615,-2.3498893720911838
1539731615407690,1.3122758831159445,-1.0681315327688026,-2.655069810025225
1539731615423698,1.2512397955290453,-1.4953841458761872,-2.7771419851987957
1539731615439705,1.0070954451819034,-2.105745021744042,-2.166781109330941
1539731615455713,0.03051804379333589,-2.7161058976118966,-1.1291676203554744
1539731615471721,0.33569848172737693,-2.9602502479590385,-0.33569848172737693
1539731615487729,0.5188067444876197,-3.2043945983061803,0.15259021896690683
1539731615503737,1.1902037079423735,-3.4485389486533222,0.09155413138023505
1539731615519745,1.3122758831159445,-3.4485389486533222,0.09155413138023505
1539731615535753,0.8239871824216607,-3.1433585107195086,0.2746623941404778
1539731615551761,-1.4953841458761872,-2.532997634851654,0.5798428320745188
1539731615567769,-3.0212863355459376,-1.6174563210497581,0.5798428320745188
1539731615583777,-3.0212863355459376,-1.0070954451819034,0.5798428320745188
1539731615599784,-1.5564202334630863,-0.8850232700083325,0.6408789196611906
1539731615615792,-0.3967345693140487,-1.0070954451819034,0.5188067444876197
1539731615631800,0.45777065690094787,-0.7629510948347615,0.33569848172737693
1539731615647808,1.0681315327688026,-0.2746623941404778,0.15259021896690683
1539731615663818,0.7019150072480898,0.15259021896690683,0.09155413138023505
1539731615679826,0.09155413138023505,0.09155413138023505,0.09155413138023505
1539731615695834,-0.2746623941404778,-0.03051804379333589,-0.03051804379333589
1539731615711842,0.09155413138023505,-0.09155413138023505,-0.33569848172737693
1539731615727850,0.5798428320745188,-0.15259021896690683,-0.7019150072480898
1539731615743857,0.6408789196611906,-0.2746623941404778,-1.0681315327688026
1539731615759865,0.7019150072480898,-0.3967345693140487,-1.1291676203554744
1539731615775873,0.45777065690094787,-0.5188067444876197,-0.9460593575952316
1539731615791881,-0.09155413138023505,-0.2746623941404778,-0.5798428320745188
1539731615807889,-1.4953841458761872,0.03051804379333589,-0.33569848172737693
1539731615823897,-2.04470893415737,0.213626306553806,-0.33569848172737693
1539731615839905,-1.6174563210497581,-0.09155413138023505,-0.45777065690094787
1539731615855913,0.5798428320745188,-0.6408789196611906,-0.5188067444876197
1539731615871921,2.532997634851654,-1.3122758831159445,-0.5188067444876197
1539731615887929,3.7537193865873633,-1.4953841458761872,-0.45777065690094787
1539731615903936,3.3875028610666504,-1.4953841458761872,-0.33569848172737693
1539731615919944,2.8381780727854675,-1.3733119707026162,0.03051804379333589
1539731615935952,3.0212863355459376,-1.4343480582895154,0.2746623941404778
1539731615951960,3.6316472114137923,-1.6174563210497581,-0.03051804379333589
1539731615967968,5.2185854886702145,-1.739528496223329,-0.45777065690094787
1539731615983978,5.645838101777599,-1.739528496223329,-0.45777065690094787
1539731615999986,4.974441138323073,-1.6174563210497581,-0.09155413138023505
1539731616015994,2.04470893415737,-1.1902037079423735,0.2746623941404778
1539731616032002,-0.7019150072480898,-0.3967345693140487,0.45777065690094787
1539731616048009,-1.5564202334630863,-0.03051804379333589,0.33569848172737693
1539731616064017,-0.7629510948347615,-0.2746623941404778,0.213626306553806
1539731616080025,1.0681315327688026,-0.8239871824216607,0.2746623941404778
1539731616096033,2.288853284504512,-1.1902037079423735,0.15259021896690683
1539731616112041,1.9226367589837992,-1.2512397955290453,0.15259021896690683
1539731616128049,0.15259021896690683,-1.0681315327688026,0.213626306553806
1539731616144057,-0.9460593575952316,-0.6408789196611906,0.15259021896690683
1539731616160065,-0.7629510948347615,-0.45777065690094787,0.09155413138023505
1539731616176073,-0.45777065690094787,-0.6408789196611906,0.213626306553806
1539731616192081,-0.45777065690094787,-0.8850232700083325,0.33569848172737693
1539731616208088,-0.33569848172737693,-0.8239871824216607,0.45777065690094787
1539731616224096,0.03051804379333589,-1.0070954451819034,0.5798428320745188
1539731616240104,0.8239871824216607,-1.5564202334630863,0.8239871824216607
1539731616256112,1.5564202334630863,-1.983672846570471,0.9460593575952316
1539731616272120,1.1291676203554744,-2.04470893415737,0.6408789196611906
1539731616288128,0.5798428320745188,-1.6174563210497581,0.33569848172737693
1539731616304138,-0.33569848172737693,-1.1902037079423735,0.15259021896690683
1539731616320146,-1.1291676203554744,-1.0070954451819034,0.15259021896690683
1539731616336154,0.09155413138023505,-0.8239871824216607,0.3967345693140487
1539731616352162,0.33569848172737693,-0.8239871824216607,0.5798428320745188
1539731616368169,-0.45777065690094787,-0.5798428320745188,0.5798428320745188
1539731616384177,-1.3122758831159445,-0.2746623941404778,0.5798428320745188
1539731616400185,-2.9602502479590385,0.213626306553806,0.8239871824216607
1539731616416193,-4.730296787975931,0.3967345693140487,1.0681315327688026
1539731616432201,-6.927595941100208,0.15259021896690683,1.1902037079423735
1539731616448209,-7.2938124666209205,-0.09155413138023505,1.3733119707026162
1539731616464217,-7.2938124666209205,-0.45777065690094787,1.3122758831159445
1539731616480225,-8.880750743877343,-0.7019150072480898,1.3122758831159445
1539731616496233,-8.880750743877343,-0.2746623941404778,1.2512397955290453
1539731616512241,-8.941786831464015,-0.09155413138023505,1.2512397955290453
1539731616528248,-7.049668116273779,-0.03051804379333589,1.1902037079423735
1539731616544256,-9.002822919050914,-0.33569848172737693,0.9460593575952316
1539731616560264,-9.918364232852582,-0.15259021896690683,0.9460593575952316
1539731616576272,-9.918364232852582,-0.09155413138023505,0.8850232700083325
1539731616592280,-8.33142595559616,-0.5188067444876197,0.6408789196611906
1539731616608288,-4.9134050507361735,-1.1902037079423735,0.2746623941404778
1539731616624298,0.09155413138023505,-2.04470893415737,0.03051804379333589
1539731616640306,3.997863736934505,-3.2043945983061803,0.15259021896690683
1539731616656314,4.058899824521177,-3.814755474174035,0.5188067444876197
1539731616672321,2.105745021744042,-3.3875028610666504,1.0681315327688026
1539731616688329,-3.0823224231326094,-2.7771419851987957,1.8616006713969
1539731616704337,-6.378271152819025,-1.8616006713969,2.4719615472647547
1539731616720345,-8.270389868009488,-1.1902037079423735,2.655069810025225
1539731616736353,-10.345616845960194,-1.1291676203554744,2.8381780727854675
1539731616752361,-9.002822919050914,-1.3122758831159445,2.9602502479590385
1539731616768369,-6.8665598535133086,-1.4953841458761872,2.8381780727854675
1539731616784377,-8.270389868009488,-1.739528496223329,3.3264667734797513
1539731616800385,-9.67421988250544,-1.5564202334630863,4.730296787975931
1539731616816393,-11.07804989700162,-0.7019150072480898,5.706874189364498
1539731616832400,-11.07804989700162,-0.33569848172737693,5.645838101777599
1539731616848408,-9.185931181811156,-0.6408789196611906,5.279621576256886
1539731616864416,-5.462729839017356,-1.4343480582895154,4.60822461280236
1539731616880424,-3.570611123826893,-2.288853284504512,3.814755474174035
1539731616896432,-2.8381780727854675,-1.983672846570471,2.8381780727854675
1539731616912440,-3.4485389486533222,-1.6784924086366573,1.983672846570471
1539731616928448,-3.2654306858930795,-2.3498893720911838,1.983672846570471
1539731616944458,-2.166781109330941,-3.5095750362402214,2.410925459678083
1539731616960466,-3.6316472114137923,-3.3875028610666504,2.5940337224383256
1539731616976473,-7.232776379034021,-1.739528496223329,2.7161058976118966
1539731616992481,-9.918364232852582,0.09155413138023505,3.5095750362402214
1539731617008489,-10.955977721828049,0.33569848172737693,5.279621576256886
1539731617024497,-10.040436408026153,-0.5798428320745188,6.8665598535133086
1539731617040505,-10.772869459067579,-1.9226367589837992,7.476920729381163
1539731617056513,-9.613183794918768,-3.3264667734797513,8.087281605249018
1539731617072521,-13.336385137712568,-5.096513313496644,9.246967269398056
1539731617088529,-14.862287327382319,-6.561379415579495,11.01701380941472
1539731617104537,-12.115663385976859,-7.232776379034021,11.505302510109004
1539731617120545,-10.345616845960194,-8.51453421835663,10.89494163424115
1539731617136552,-5.401693751430457,-9.430075532158298,10.284580758373295
1539731617152560,7.4158846417944915,-9.491111619745197,9.185931181811156
1539731617168568,21.820401312275862,-11.383230334935433,7.476920729381163
1539731617184576,44.89204242008077,-12.481879911497572,4.852368963149502
1539731617200584,39.154650186922936,-12.726024261844714,3.2654306858930795
1539731617216592,28.534370946822264,-11.566338597695903,4.242008087281647
1539731617232600,34.69901579308748,-8.880750743877343,7.537956816968062
1539731617248608,27.374685282673227,-9.063859006637585,10.284580758373295
1539731617264618,-55.3902494850081,-19.9893186846723,8.880750743877343
1539731617280625,-67.84161135271233,-18.341344319828977,6.805523765926637
1539731617296633,-55.63439383535524,-6.805523765926637,5.828946364538069
1539731617312641,-114.83939879453737,-2.7161058976118966,6.683451590753066
1539731617328649,-164.09552147707336,-2.04470893415737,8.026245517662346
1539731617344657,-253.5744258793011,-17.181658655680167,26.092927443350845
1539731617360665,-168.06286717021453,-18.341344319828977,29.26680399786369
1539731617376673,-71.19859616998542,-10.284580758373295,22.552834363317288
1539731617392681,-46.05172808422981,-8.941786831464015,16.998550392919697
1539731617408689,-27.069504844739413,-10.101472495613052,11.07804989700162
1539731617424697,6.500343327992596,-7.843137254901876,4.9134050507361735
1539731617440704,25.48256656748299,-4.669260700389032,2.5940337224383256
1539731617456712,27.98504615854108,-2.8381780727854675,3.4485389486533222
1539731617472720,20.538643472953254,-1.4953841458761872,4.119935912108076
1539731617488728,29.38887617303726,-0.3967345693140487,2.8992141603723667
1539731617504736,39.82604715037746,-0.8239871824216607,1.3122758831159445
1539731617520744,40.80262455176603,-2.410925459678083,1.4343480582895154
1539731617536752,40.9246967269396,-3.7537193865873633,1.0070954451819034
1539731617552760,39.64293888761722,-4.669260700389032,-0.7019150072480898
1539731617568768,42.20645456626221,-3.875791561760934,-2.166781109330941
1539731617584777,48.371099412527656,-2.410925459678083,-3.570611123826893
1539731617600785,44.83100633249387,-1.4953841458761872,-4.730296787975931
1539731617616793,32.99000534065749,-0.6408789196611906,-5.706874189364498
1539731617632801,33.3562218661782,1.2512397955290453,-5.523765926604028
1539731617648809,39.154650186922936,2.8381780727854675,-4.364080262455218
1539731617664817,32.19653620202939,1.0681315327688026,-4.058899824521177
1539731617680825,42.20645456626221,-0.03051804379333589,-4.486152437628789
1539731617696833,46.967269398031476,-0.7629510948347615,-5.096513313496644
1539731617712841,40.314335851071746,-1.4343480582895154,-3.997863736934505
1539731617728849,42.755779354543165,-1.3733119707026162,-2.8381780727854675
1539731617744856,45.380331120775054,-1.4343480582895154,-1.8005645838102282
1539731617760864,41.65712977798103,-1.3733119707026162,-0.8850232700083325
1539731617776872,31.76928358892178,-0.5798428320745188,-1.3122758831159445
1539731617792880,0.7019150072480898,1.4343480582895154,-2.532997634851654
1539731617808888,-24.994277866788707,2.8381780727854675,-2.8992141603723667
1539731617824896,-33.60036621652557,4.730296787975931,-1.739528496223329
1539731617840904,-34.88212405584818,5.0354772259097444,0.3967345693140487
1539731617856912,-26.39810788128466,4.60822461280236,2.105745021744042
1539731617872920,-15.289539940489703,3.692683299000464,3.7537193865873633
1539731617888928,-2.166781109330941,1.983672846570471,4.242008087281647
1539731617904937,13.153276874952326,-0.6408789196611906,3.6316472114137923
1539731617920945,22.49179827573039,-2.532997634851654,4.119935912108076
1539731617936953,22.8580148012511,-3.2654306858930795,5.706874189364498
1539731617952961,16.754406042572555,-2.3498893720911838,6.9886320286868795
1539731617968969,7.904173342488775,-1.1902037079423735,5.889982452124741
1539731617984977,-2.7771419851987957,-0.15259021896690683,3.814755474174035
1539731618000985,-13.275349050125897,0.8850232700083325,1.4953841458761872
1539731618016993,-24.383916990920852,2.7771419851987957,0.03051804379333589
1539731618033001,-24.933241779201808,3.7537193865873633,0.5798428320745188
1539731618049008,15.899900816357558,8.697642481116873,2.7771419851987957
1539731618065016,20.660715648126825,13.519493400473038,5.3406576638437855
1539731618081024,-5.157549401083315,17.79201953154802,8.392462043183059
1539731618097032,-10.833905546654478,24.933241779201808,15.960936903944457
1539731618113040,-14.679179064621849,28.229190508888223,30.060273136491787
1539731618129048,-14.373998626688035,24.811169604028237,48.73731593804814
1539731618145056,0.33569848172737693,17.48683909361398,66.07156481269567
1539731618161064,-0.09155413138023505,5.706874189364498,81.08644235904512
1539731618177072,2.3498893720911838,-6.073090714885211,94.51438162813793
1539731618193080,7.965209430075447,-14.740215152208748,107.69817654688359
1539731618209087,12.4208438239109,-22.369726100556818,121.00404364080259
1539731618225097,22.369726100556818,-31.464103150988194,133.39436942092016
1539731618241105,27.069504844739413,-41.29091325246054,144.25879301136774
1539731618257113,34.57694361791391,-48.00488288700694,151.52208743419533
1539731618273121,45.13618677042791,-51.36186770428026,155.7335774776834
1539731618289129,53.92538338292479,-53.25398641947049,156.03875791561768
1539731618305137,63.32494087129044,-53.31502250705739,147.12748912794677
1539731618321145,63.01976043335662,-53.07087815671025,131.86846723125063
1539731618337153,57.404440375371905,-51.66704814221407,113.19142442969405
1539731618353160,50.38529030289146,-47.63866636148623,92.25604638742652
1539731618369168,37.87289234760033,-42.32852674143601,72.72449835965517
1539731618385176,28.656443121995835,-35.24834058136889,58.442053864347145
1539731618401184,21.45418478675515,-26.7032883192187,43.24406805523745
1539731618417192,13.092240787365427,-17.914091706721592,27.008468757152514
1539731618433200,13.946746013580423,-8.758678568703772,8.697642481116873
1539731618449208,12.726024261844714,-0.7019150072480898,-10.101472495613052
1539731618465216,4.60822461280236,5.0354772259097444,-26.39810788128466
1539731618481224,-3.570611123826893,9.063859006637585,-40.314335851071974
1539731618497232,1.6784924086366573,13.031204699778755,-59.1134508278019
1539731618513239,14.435034714274707,16.32715342946517,-89.57045853360796
1539731618529247,11.444266422522333,17.79201953154802,-130.2204928664073
1539731618545288,-0.9460593575952316,16.876478217746126,-177.88967727168688
1539731618561296,-7.476920729381163,8.819714656290444,-231.11314564736404
1539731618577304,0.8850232700083325,-0.5188067444876197,-286.65598535133904
1539731618593311,27.86297398336751,-7.537956816968062,-349.5231555657283
1539731618609319,-18.158236057068734,-9.124895094224485,-416.17456321049826
1539731618625327,-722.2705424582284,-59.05241474021523,-229.89242389562833
1539731618641335,587.0756084534983,-16.937514305333025,44.7699702449072
1539731618657343,195.83428702220226,-0.5798428320745188,60.57831692988475
1539731618673351,-66.80399786373687,-1.3733119707026162,5.0354772259097444
1539731618689359,16.693369954985883,32.19653620202939,-39.276722362096734
1539731618705367,-56.061646448462625,40.61951628900579,-52.88776989394978
1539731618721375,-67.78057526512544,47.638666361486,-41.59609369039458
1539731618737383,-55.08506904707406,47.51659418631243,-15.350576028076603
1539731618753390,-25.48256656748299,41.16884107728674,18.82963302052326
1539731618769398,4.180971999694748,29.20576791027679,53.74227512016478
1539731618785406,9.369039444571627,14.98435950255589,80.59815365835084
1539731618801414,9.185931181811156,6.805523765926637,94.33127336537746
1539731618817422,12.848096437018285,5.462729839017356,95.91821164263365
1539731618833430,14.679179064621849,5.523765926604028,87.55626764324415
1539731618849438,11.07804989700162,2.227817196917613,72.96864271000231
1539731618865448,7.965209430075447,-3.0212863355459376,56.97718776226429
1539731618881456,8.697642481116873,-6.256198977645454,41.718165865567926
1539731618897463,11.688410772869474,-7.660028992141633,26.6422522316318
1539731618913471,8.941786831464015,-8.51453421835663,12.054627298390187
1539731618929479,7.537956816968062,-8.880750743877343,-1.3122758831159445
1539731618945487,12.603952086671143,-8.575570305943302,-11.871519035629717
1539731618961495,14.190890363927565,-8.45349813076973,-17.54787518120088
1539731618977503,5.828946364538069,-9.55214770733187,-19.80621042191183
1539731618993511,-3.3875028610666504,-10.345616845960194,-20.35553521019301
1539731619009519,-5.523765926604028,-10.284580758373295,-19.745174334325156
1539731619025527,2.3498893720911838,-10.528725108720437,-18.158236057068734
1539731619041535,7.721065079728305,-12.542915999084471,-15.899900816357558
1539731619057542,3.570611123826893,-14.98435950255589,-13.45845731288614
1539731619073550,0.33569848172737693,-15.228503852903032,-11.688410772869474
1539731619089558,-0.3967345693140487,-13.58052948805971,-11.383230334935433
1539731619105566,-1.2512397955290453,-11.993591210803288,-12.23773556115043
1539731619121574,-1.739528496223329,-10.406652933546866,-13.45845731288614
1539731619137582,-0.45777065690094787,-9.308003356984727,-14.190890363927565
1539731619153590,-0.09155413138023505,-8.758678568703772,-14.373998626688035
1539731619169598,-3.2043945983061803,-7.965209430075447,-15.533684290836845
1539731619185608,-7.4158846417944915,-7.2938124666209205,-17.48683909361398
1539731619201615,-5.0354772259097444,-6.256198977645454,-18.646524757763018
1539731619217623,-3.936827649347606,-6.073090714885211,-18.95170519569683
1539731619233631,-3.875791561760934,-5.95101853971164,-19.317921721217544
1539731619249639,-1.1291676203554744,-4.486152437628789,-19.80621042191183
1539731619265647,-3.4485389486533222,-2.8381780727854675,-19.256885633630873
1539731619281655,-5.096513313496644,-1.6174563210497581,-17.54787518120088
1539731619297663,-3.4485389486533222,-0.7629510948347615,-15.655756466010416
1539731619313671,-3.2043945983061803,-0.9460593575952316,-14.435034714274707
1539731619329679,-0.8239871824216607,-1.0070954451819034,-13.275349050125897
1539731619345687,-2.4719615472647547,-1.3122758831159445,-10.833905546654478
1539731619361694,-4.486152437628789,-0.7629510948347615,-8.026245517662346
1539731619377702,-3.4485389486533222,0.5798428320745188,-6.561379415579495
1539731619393710,-1.8616006713969,1.0070954451819034,-6.8665598535133086
1539731619409718,-0.3967345693140487,0.8850232700083325,-7.232776379034021
1539731619425726,-0.3967345693140487,0.3967345693140487,-6.622415503166167
1539731619441734,-2.532997634851654,0.8239871824216607,-5.645838101777599
1539731619457742,-4.60822461280236,2.04470893415737,-4.9134050507361735
1539731619473750,-3.0212863355459376,3.2654306858930795,-4.852368963149502
1539731619489758,-0.2746623941404778,4.242008087281647,-5.828946364538069
1539731619505767,-0.7019150072480898,5.2185854886702145,-6.134126802471883
1539731619521775,-4.9134050507361735,5.95101853971164,-4.60822461280236
1539731619537783,-7.782101167315204,6.500343327992596,-2.7161058976118966
1539731619553791,-7.660028992141633,6.805523765926637,-2.5940337224383256
1539731619569799,-6.561379415579495,6.683451590753066,-4.242008087281647
1539731619585807,-6.622415503166167,5.889982452124741,-5.401693751430457
1539731619601815,-7.476920729381163,4.119935912108076,-4.9134050507361735
1539731619617823,-5.828946364538069,2.288853284504512,-3.5095750362402214
1539731619633831,-4.119935912108076,0.03051804379333589,-2.3498893720911838
1539731619649839,-1.1291676203554744,-2.7161058976118966,-2.7161058976118966
1539731619665846,2.9602502479590385,-5.584802014190927,-4.119935912108076
1539731619681854,7.721065079728305,-6.8665598535133086,-4.486152437628789
1539731619697862,8.148317692835917,-6.012054627298312,-3.875791561760934
1539731619713870,4.486152437628789,-3.2654306858930795,-2.7161058976118966
1539731619729878,-0.7019150072480898,-0.3967345693140487,-1.6174563210497581
1539731619745886,-5.889982452124741,1.3122758831159445,-0.8850232700083325
1539731619761894,-9.979400320439481,2.288853284504512,0.09155413138023505
1539731619777902,-11.01701380941472,2.105745021744042,0.33569848172737693
1539731619793910,-9.918364232852582,0.5798428320745188,-0.3967345693140487
1539731619809918,-6.8665598535133086,-1.4953841458761872,-1.1902037079423735
1539731619825927,-3.0212863355459376,-3.6316472114137923,-0.7019150072480898
1539731619841935,2.655069810025225,-4.669260700389032,0.5188067444876197
1539731619857943,6.9886320286868795,-4.669260700389032,1.1291676203554744
1539731619873951,8.880750743877343,-4.42511635004189,0.6408789196611906
1539731619889959,7.843137254901876,-3.4485389486533222,-0.6408789196611906
1539731619905967,4.9134050507361735,-1.6174563210497581,-2.227817196917613
1539731619921975,-1.5564202334630863,0.213626306553806,-2.4719615472647547
1539731619937983,-7.476920729381163,2.04470893415737,-0.8239871824216607
1539731619953991,-11.01701380941472,3.2043945983061803,2.105745021744042
1539731619969998,-13.76363775082018,3.6316472114137923,4.547188525215461
1539731619986006,-13.336385137712568,3.0212863355459376,5.2185854886702145
1539731620002014,-6.744487678339738,1.6174563210497581,4.791332875562603
1539731620018022,0.45777065690094787,-0.5798428320745188,3.7537193865873633
1539731620034030,6.683451590753066,-2.3498893720911838,2.4719615472647547
1539731620050038,11.322194247348762,-3.1433585107195086,1.1902037079423735
1539731620066046,11.505302510109004,-2.5940337224383256,0.5188067444876197
1539731620082054,7.2938124666209205,-1.0070954451819034,-0.03051804379333589
1539731620098062,0.7019150072480898,0.7019150072480898,-0.7019150072480898
1539731620114070,-6.256198977645454,1.739528496223329,-1.0681315327688026
1539731620130077,-9.85732814526591,2.532997634851654,-1.3733119707026162
1539731620146087,-8.575570305943302,2.3498893720911838,-1.6174563210497581
1539731620162095,-2.532997634851654,1.1902037079423735,-1.5564202334630863
1539731620178103,5.2185854886702145,-0.33569848172737693,-0.7629510948347615
1539731620194111,11.566338597695903,-1.1902037079423735,-0.09155413138023505
1539731620210119,12.176699473563758,-0.5798428320745188,-0.213626306553806
1539731620226127,10.162508583199724,1.0070954451819034,-0.213626306553806
1539731620242135,7.660028992141633,2.7771419851987957,-0.03051804379333589
1539731620258143,4.974441138323073,3.3264667734797513,-0.15259021896690683
1539731620274150,-1.4953841458761872,2.288853284504512,-0.7019150072480898
1539731620290158,-5.523765926604028,1.6174563210497581,-1.2512397955290453
1539731620306166,-8.148317692835917,1.5564202334630863,-1.739528496223329
1539731620322174,-12.481879911497572,1.4343480582895154,-2.166781109330941
1539731620338182,-12.4208438239109,1.6784924086366573,-1.983672846570471
1539731620354190,-9.430075532158298,1.4953841458761872,-1.6784924086366573
1539731620370198,-7.049668116273779,0.5798428320745188,-1.739528496223329
1539731620386206,-4.058899824521177,-0.03051804379333589,-2.410925459678083
1539731620402214,-0.5798428320745188,-0.15259021896690683,-2.7771419851987957
1539731620418222,2.410925459678083,-0.09155413138023505,-2.410925459678083
1539731620434229,4.119935912108076,0.09155413138023505,-1.8005645838102282
1539731620450237,3.936827649347606,-0.213626306553806,-1.6174563210497581
1539731620466247,1.2512397955290453,-0.45777065690094787,-1.4953841458761872
1539731620482255,-0.9460593575952316,-0.2746623941404778,-1.4953841458761872
1539731620498263,-3.3264667734797513,0.03051804379333589,-1.4953841458761872
1539731620514271,-1.983672846570471,0.09155413138023505,-1.4343480582895154
1539731620530279,2.532997634851654,0.03051804379333589,-1.2512397955290453
1539731620546287,5.096513313496644,-0.15259021896690683,-1.5564202334630863
1539731620562295,5.584802014190927,-0.7019150072480898,-2.410925459678083
1539731620578302,6.073090714885211,-0.8850232700083325,-3.2654306858930795
1539731620594310,6.744487678339738,-0.5798428320745188,-3.4485389486533222
1539731620610318,6.561379415579495,-0.45777065690094787,-2.9602502479590385
1539731620626326,5.523765926604028,-0.6408789196611906,-2.04470893415737
1539731620642334,2.5940337224383256,-0.45777065690094787,-1.2512397955290453
1539731620658342,-4.852368963149502,-0.15259021896690683,-0.8239871824216607
1539731620674350,-15.655756466010416,0.15259021896690683,-0.33569848172737693
1539731620690358,-26.153963530937517,0.45777065690094787,0.2746623941404778
1539731620706366,-30.30441748683893,1.8616006713969,0.5188067444876197
1539731620722374,-28.900587472342977,2.4719615472647547,0.3967345693140487
1539731620738381,-24.567025253681095,1.8616006713969,0.15259021896690683
1539731620754389,-15.533684290836845,0.5188067444876197,-0.7019150072480898
1539731620770397,-3.814755474174035,-0.7019150072480898,-1.4343480582895154
1539731620786407,4.303044174868319,-2.04470893415737,-1.5564202334630863
1539731620802415,7.782101167315204,-2.655069810025225,-1.3122758831159445
1539731620818423,7.782101167315204,-2.410925459678083,-0.7629510948347615
1539731620834431,5.645838101777599,-1.6784924086366573,-0.213626306553806
1539731620850439,3.570611123826893,-0.8239871824216607,0.213626306553806
1539731620866447,1.4343480582895154,-0.3967345693140487,0.6408789196611906
1539731620882454,1.5564202334630863,-0.15259021896690683,0.8850232700083325
1539731620898462,3.1433585107195086,0.03051804379333589,0.8850232700083325
1539731620914470,3.5095750362402214,-0.15259021896690683,0.9460593575952316
1539731620930478,5.706874189364498,-0.213626306553806,1.2512397955290453
1539731620946486,5.706874189364498,-0.213626306553806,1.5564202334630863
1539731620962494,3.6316472114137923,0.2746623941404778,2.105745021744042
1539731620978502,0.7629510948347615,0.7629510948347615,2.3498893720911838
1539731620994510,-2.04470893415737,0.8239871824216607,2.227817196917613
1539731621010518,-2.227817196917613,0.7629510948347615,2.105745021744042
1539731621026526,-4.364080262455218,0.33569848172737693,2.288853284504512
1539731621042533,-3.5095750362402214,0.15259021896690683,2.166781109330941
1539731621058541,-1.2512397955290453,-0.15259021896690683,1.6784924086366573
1539731621074549,-1.4953841458761872,-0.5188067444876197,1.1291676203554744
1539731621090557,-1.0070954451819034,-0.5798428320745188,0.6408789196611906
1539731621106567,-0.9460593575952316,-0.45777065690094787,0.33569848172737693
1539731621122575,-1.2512397955290453,-0.3967345693140487,-0.03051804379333589
1539731621138583,-0.8239871824216607,-0.5798428320745188,-0.6408789196611906
1539731621154591,-1.6784924086366573,-1.0681315327688026,-0.8850232700083325
1539731621170599,-1.3122758831159445,-1.2512397955290453,-0.6408789196611906
1539731621186607,-1.739528496223329,-1.1291676203554744,-0.213626306553806
1539731621202614,-2.04470893415737,-1.1291676203554744,0.213626306553806
1539731621218622,-1.6784924086366573,-1.2512397955290453,0.45777065690094787
1539731621234630,-1.3733119707026162,-1.6174563210497581,0.5798428320745188
1539731621250638,-2.166781109330941,-1.983672846570471,0.6408789196611906
1539731621266646,-2.04470893415737,-1.8616006713969,0.6408789196611906
1539731621282654,-2.166781109330941,-1.6784924086366573,0.7019150072480898
1539731621298662,-1.739528496223329,-1.4343480582895154,0.7629510948347615
1539731621314670,-1.2512397955290453,-1.3733119707026162,0.8239871824216607
1539731621330678,-1.1291676203554744,-1.3733119707026162,0.5798428320745188
1539731621346686,-1.739528496223329,-1.4953841458761872,0.03051804379333589
1539731621362693,-0.213626306553806,-1.739528496223329,-0.33569848172737693
1539731621378701,0.09155413138023505,-2.4719615472647547,0.03051804379333589
1539731621394709,1.3122758831159445,-2.8381780727854675,0.2746623941404778
1539731621410717,3.1433585107195086,-2.7161058976118966,0.15259021896690683
1539731621426757,3.936827649347606,-2.4719615472647547,0.7019150072480898
1539731621442765,5.0354772259097444,-2.105745021744042,1.739528496223329
1539731621458773,5.706874189364498,-1.9226367589837992,2.7161058976118966
1539731621474781,5.2185854886702145,-1.8005645838102282,3.0212863355459376
1539731621490789,4.791332875562603,-1.8616006713969,3.2654306858930795
1539731621506797,4.547188525215461,-2.227817196917613,3.875791561760934
1539731621522805,3.3875028610666504,-2.410925459678083,4.364080262455218
1539731621538813,0.8239871824216607,-2.227817196917613,4.730296787975931
1539731621554821,-1.8005645838102282,-1.8616006713969,4.974441138323073
1539731621570829,-2.532997634851654,-1.6174563210497581,4.730296787975931
1539731621586836,-1.6784924086366573,-1.8005645838102282,3.875791561760934
1539731621602844,1.4343480582895154,-1.983672846570471,2.4719615472647547
1539731621618852,3.936827649347606,-2.227817196917613,0.7019150072480898
1539731621634860,5.2185854886702145,-2.410925459678083,-1.0070954451819034
1539731621650868,6.500343327992596,-2.166781109330941,-1.9226367589837992
1539731621666876,5.95101853971164,-1.6784924086366573,-1.9226367589837992
1539731621682884,2.655069810025225,-1.0681315327688026,-1.4953841458761872
1539731621698892,-0.5188067444876197,-0.5188067444876197,-0.8850232700083325
1539731621714900,-1.6784924086366573,-0.15259021896690683,-0.33569848172737693
1539731621730908,-2.227817196917613,-0.213626306553806,-0.2746623941404778
1539731621746917,-2.5940337224383256,-0.3967345693140487,-0.33569848172737693
1539731621762925,-2.5940337224383256,-0.5188067444876197,-0.5188067444876197
1539731621778933,-2.9602502479590385,-1.0070954451819034,-0.7019150072480898
1539731621794941,-3.3264667734797513,-1.4343480582895154,-0.6408789196611906
1539731621810949,-3.2654306858930795,-1.739528496223329,-0.6408789196611906
1539731621826957,-1.0070954451819034,-1.8005645838102282,-0.6408789196611906
1539731621842965,1.739528496223329,-2.04470893415737,-0.7019150072480898
1539731621858973,3.5095750362402214,-2.4719615472647547,-0.7629510948347615
1539731621874981,3.2654306858930795,-2.7771419851987957,-1.0681315327688026
1539731621890988,2.166781109330941,-2.7771419851987957,-1.3122758831159445
1539731621906996,-0.7019150072480898,-2.410925459678083,-1.5564202334630863
1539731621923004,-4.9134050507361735,-1.8005645838102282,-1.8616006713969
1539731621939012,-8.51453421835663,-1.0070954451819034,-1.8616006713969
1539731621955020,-9.002822919050914,-0.6408789196611906,-1.4953841458761872
1539731621971028,-6.256198977645454,-0.8850232700083325,-1.0070954451819034
1539731621987036,-1.983672846570471,-1.4343480582895154,-0.8239871824216607
1539731622003044,-0.33569848172737693,-1.8005645838102282,-0.6408789196611906
1539731622019052,-2.7161058976118966,-1.4343480582895154,-0.3967345693140487
1539731622035060,-6.561379415579495,-0.7629510948347615,-0.15259021896690683
1539731622051067,-9.67421988250544,-0.15259021896690683,-0.09155413138023505
1539731622067077,-11.383230334935433,0.15259021896690683,-0.15259021896690683
1539731622083085,-11.139085984588291,0.15259021896690683,-0.5188067444876197
1539731622099093,-8.087281605249018,-0.03051804379333589,-1.0681315327688026
1539731622115101,-5.828946364538069,-0.3967345693140487,-1.1902037079423735
1539731622131109,-3.5095750362402214,-0.33569848172737693,-1.3733119707026162
1539731622147117,-3.2654306858930795,-0.45777065690094787,-1.5564202334630863
1539731622163125,-4.303044174868319,-1.0070954451819034,-1.739528496223329
1539731622179133,-0.213626306553806,-0.213626306553806,-1.8005645838102282
1539731622195140,-0.3967345693140487,-0.2746623941404778,-1.739528496223329
1539731622211148,2.655069810025225,-0.2746623941404778,-2.105745021744042
1539731622227156,5.3406576638437855,-1.1291676203554744,-2.5940337224383256
1539731622243164,9.002822919050914,-1.6784924086366573,-3.0823224231326094
1539731622259172,10.589761196307336,-1.8616006713969,-2.9602502479590385
1539731622275180,9.613183794918768,-1.3122758831159445,-2.105745021744042
1539731622291188,7.11070420386045,-0.3967345693140487,-0.9460593575952316
1539731622307196,5.2185854886702145,0.33569848172737693,-0.09155413138023505
1539731622323204,9.063859006637585,0.8239871824216607,0.6408789196611906
1539731622339212,15.777828641183987,1.0070954451819034,1.4343480582895154
1539731622355219,22.49179827573039,0.7019150072480898,2.166781109330941
1539731622371227,29.877164873731545,1.0070954451819034,2.5940337224383256
1539731622387268,34.943160143434625,1.8005645838102282,2.8992141603723667
1539731622403276,38.48325322346818,2.288853284504512,2.9602502479590385
1539731622419284,41.65712977798103,2.288853284504512,2.7161058976118966
1539731622435293,41.16884107728674,1.2512397955290453,2.227817196917613
1539731622451301,36.163881895170334,-0.03051804379333589,1.3733119707026162
1539731622467310,30.60959792477297,-0.8850232700083325,0.3967345693140487
1539731622483318,22.980086976424673,-0.8239871824216607,-0.15259021896690683
1539731622499326,10.650797283894008,-0.213626306553806,-0.213626306553806
1539731622515335,-3.3264667734797513,0.3967345693140487,-0.213626306553806
1539731622531343,-11.444266422522333,1.0070954451819034,-0.15259021896690683
1539731622547351,-14.862287327382319,1.3733119707026162,0.15259021896690683
1539731622563360,-14.435034714274707,1.2512397955290453,0.33569848172737693
1539731622579368,-11.627374685282575,0.8850232700083325,0.15259021896690683
1539731622595377,-10.406652933546866,0.33569848172737693,-0.09155413138023505
1539731622611385,-8.575570305943302,-0.03051804379333589,-0.33569848172737693
1539731622627393,-4.791332875562603,-0.5188067444876197,-0.2746623941404778
1539731622643402,-0.9460593575952316,-1.0070954451819034,-0.09155413138023505
1539731622659410,2.655069810025225,-1.3122758831159445,-0.09155413138023505
1539731622675418,3.997863736934505,-1.4343480582895154,-0.2746623941404778
1539731622691427,4.852368963149502,-1.0681315327688026,-0.33569848172737693
1539731622707428,4.974441138323073,-0.7629510948347615,-0.3967345693140487
1539731622723436,5.889982452124741,-0.2746623941404778,-0.5798428320745188
1539731622739443,7.354848554207592,0.9460593575952316,-0.45777065690094787
1539731622755451,5.828946364538069,2.532997634851654,-0.33569848172737693
1539731622771459,2.410925459678083,3.875791561760934,-0.33569848172737693
1539731622787467,-2.4719615472647547,4.974441138323073,-0.213626306553806
1539731622803475,-9.918364232852582,5.462729839017356,0.09155413138023505
1539731622819483,-9.796292057679011,6.012054627298312,0.5798428320745188
1539731622835491,-9.491111619745197,5.828946364538069,1.1902037079423735
1539731622851499,-14.251926451514464,4.60822461280236,1.9226367589837992
1539731622867507,-17.181658655680167,3.0212863355459376,2.410925459678083
1539731622883515,-15.716792553597315,0.8850232700083325,2.655069810025225
1539731622899522,-13.397421225299468,-1.4343480582895154,2.655069810025225
1539731622915530,-9.369039444571627,-3.0823224231326094,2.655069810025225
1539731622931538,-4.303044174868319,-3.814755474174035,2.532997634851654
1539731622947546,-1.2512397955290453,-3.692683299000464,2.3498893720911838
1539731622963554,1.6174563210497581,-3.2654306858930795,2.3498893720911838
1539731622979562,2.655069810025225,-2.7771419851987957,2.227817196917613
1539731622995570,3.0823224231326094,-2.166781109330941,1.983672846570471
1539731623011578,3.936827649347606,-1.6784924086366573,1.6784924086366573
1539731623027588,3.5095750362402214,-1.4953841458761872,1.4343480582895154
1539731623043595,2.7161058976118966,-0.9460593575952316,1.1902037079423735
1539731623059603,0.8239871824216607,-0.3967345693140487,1.0070954451819034
1539731623075611,-2.532997634851654,-0.15259021896690683,0.8239871824216607
1539731623091619,-5.645838101777599,-0.09155413138023505,0.8239871824216607
1539731623107627,-5.3406576638437855,-0.09155413138023505,1.0070954451819034
1539731623123635,-5.76791027695117,-0.03051804379333589,1.4953841458761872
1539731623139643,-5.279621576256886,0.33569848172737693,2.3498893720911838
1539731623155651,-6.927595941100208,0.33569848172737693,2.8381780727854675
1539731623171659,-9.613183794918768,0.33569848172737693,3.3264667734797513
1539731623187667,-11.261158159761862,0.33569848172737693,3.692683299000464
1539731623203674,-11.932555123216616,0.15259021896690683,3.2654306858930795
1539731623219682,-8.697642481116873,-0.15259021896690683,1.6784924086366573
1539731623235690,-1.6784924086366573,-0.5798428320745188,-0.6408789196611906
1539731623251698,5.0354772259097444,-1.0070954451819034,-2.5940337224383256
1539731623267706,7.965209430075447,-1.3122758831159445,-3.5095750362402214
1539731623283714,7.476920729381163,-1.3122758831159445,-3.7537193865873633
1539731623299722,1.8616006713969,-0.7019150072480898,-3.1433585107195086
1539731623315730,-4.669260700389032,-0.03051804379333589,-1.9226367589837992
1539731623331738,-9.369039444571627,0.213626306553806,-0.7629510948347615
1539731623347747,-11.688410772869474,0.03051804379333589,0.15259021896690683
1539731623363755,-10.284580758373295,-0.213626306553806,0.33569848172737693
1539731623379763,-7.2938124666209205,-1.0681315327688026,0.213626306553806
1539731623395771,-4.486152437628789,-2.04470893415737,0.03051804379333589
1539731623411779,-1.2512397955290453,-2.7771419851987957,-0.3967345693140487
1539731623427787,2.288853284504512,-3.0823224231326094,-1.0070954451819034
1539731623443795,3.6316472114137923,-3.2043945983061803,-1.5564202334630863
1539731623459803,4.119935912108076,-3.3264667734797513,-1.6784924086366573
1539731623475811,4.9134050507361735,-3.570611123826893,-1.2512397955290453
1539731623491819,5.157549401083315,-3.875791561760934,-0.3967345693140487
1539731623507826,3.997863736934505,-4.058899824521177,0.6408789196611906
1539731623523834,3.0823224231326094,-3.814755474174035,1.4953841458761872
1539731623539842,1.0070954451819034,-3.4485389486533222,2.105745021744042
1539731623555850,-1.4343480582895154,-2.8992141603723667,2.166781109330941
1539731623571858,-2.7771419851987957,-2.4719615472647547,1.983672846570471
1539731623587866,-3.875791561760934,-2.105745021744042,1.9226367589837992
1539731623603874,-3.4485389486533222,-1.6784924086366573,1.6784924086366573
1539731623619882,-2.5940337224383256,-1.6174563210497581,1.4953841458761872
1539731623635890,-2.04470893415737,-1.6174563210497581,1.4343480582895154
1539731623651898,-1.0681315327688026,-1.739528496223329,1.1902037079423735
1539731623667907,0.7629510948347615,-1.8005645838102282,0.9460593575952316
1539731623683915,1.0070954451819034,-1.6174563210497581,0.7629510948347615
1539731623699923,0.09155413138023505,-1.2512397955290453,0.7629510948347615
1539731623715931,-0.09155413138023505,-0.9460593575952316,0.7629510948347615
1539731623731939,-0.7019150072480898,-0.7019150072480898,0.9460593575952316
1539731623747947,-1.983672846570471,-0.7019150072480898,1.0070954451819034
1539731623763955,-1.3733119707026162,-0.7019150072480898,0.7019150072480898
1539731623779963,-2.288853284504512,-0.8850232700083325,0.3967345693140487
1539731623795971,-3.570611123826893,-1.1291676203554744,0.09155413138023505
1539731623811978,-3.2654306858930795,-1.3122758831159445,-0.213626306553806
1539731623827986,-3.0212863355459376,-1.8005645838102282,-0.2746623941404778
1539731623843994,-4.364080262455218,-2.227817196917613,-0.2746623941404778
1539731623860002,-7.965209430075447,-2.3498893720911838,-0.3967345693140487
1539731623876010,-9.85732814526591,-2.288853284504512,-0.6408789196611906
1539731623892018,-11.688410772869474,-2.532997634851654,-0.8850232700083325
1539731623908026,-12.787060349431613,-2.655069810025225,-0.9460593575952316
1539731623924034,-11.505302510109004,-2.288853284504512,-0.8850232700083325
1539731623940042,-12.481879911497572,-1.5564202334630863,-0.7629510948347615
1539731623956050,-13.214312962538997,-0.5188067444876197,-0.6408789196611906
1539731623972057,-14.190890363927565,0.5188067444876197,-0.2746623941404778
1539731623988067,-15.228503852903032,1.4953841458761872,0.5798428320745188
1539731624004075,-15.777828641183987,2.3498893720911838,1.9226367589837992
1539731624020083,-15.350576028076603,2.288853284504512,3.7537193865873633
1539731624036091,-11.566338597695903,1.6784924086366573,5.279621576256886
1539731624052099,-4.669260700389032,0.7019150072480898,5.889982452124741
1539731624068107,3.2654306858930795,-0.213626306553806,5.401693751430457
1539731624084115,8.270389868009488,-0.7019150072480898,4.303044174868319
1539731624100123,9.308003356984727,-0.6408789196611906,2.8381780727854675
1539731624116130,7.232776379034021,-0.5798428320745188,1.1902037079423735
1539731624132138,6.500343327992596,-1.0681315327688026,0.03051804379333589
1539731624148146,7.2938124666209205,-1.9226367589837992,-0.7019150072480898
1539731624164154,8.758678568703772,-2.532997634851654,-1.0681315327688026
1539731624180162,9.796292057679011,-2.7771419851987957,-1.1291676203554744
1539731624196170,8.941786831464015,-2.4719615472647547,-0.9460593575952316
1539731624212178,5.462729839017356,-1.8005645838102282,-0.5798428320745188
1539731624228186,1.1291676203554744,-1.1291676203554744,-0.2746623941404778
1539731624244194,-1.6784924086366573,-0.8850232700083325,0.15259021896690683
1539731624260202,-2.8381780727854675,-1.2512397955290453,0.5188067444876197
1539731624276209,-2.532997634851654,-1.739528496223329,0.8239871824216607
1539731624292217,-2.288853284504512,-2.105745021744042,1.4343480582895154
1539731624308227,-4.242008087281647,-2.288853284504512,2.227817196917613
1539731624324235,-6.805523765926637,-2.166781109330941,2.8381780727854675
1539731624340243,-12.542915999084471,-2.04470893415737,3.4485389486533222
1539731624356251,-17.66994735637445,-1.4343480582895154,3.692683299000464
1539731624372259,-18.70756084534969,-1.1291676203554744,3.2043945983061803
1539731624388267,-16.32715342946517,-1.983672846570471,2.3498893720911838
1539731624404275,-9.918364232852582,-3.0823224231326094,1.4953841458761872
1539731624420282,-1.4953841458761872,-3.875791561760934,0.7629510948347615
1539731624436290,4.9134050507361735,-4.119935912108076,0.3967345693140487
1539731624452298,7.537956816968062,-3.875791561760934,0.33569848172737693
1539731624468306,7.17174029144735,-3.2654306858930795,0.3967345693140487
1539731624484314,4.791332875562603,-2.532997634851654,0.2746623941404778
1539731624500322,1.983672846570471,-1.8616006713969,0.15259021896690683
1539731624516330,-0.2746623941404778,-1.3733119707026162,0.03051804379333589
1539731624532338,-1.8005645838102282,-1.1902037079423735,-0.03051804379333589
1539731624548346,-2.288853284504512,-1.2512397955290453,-0.15259021896690683
1539731624564354,-2.8381780727854675,-1.0681315327688026,-0.33569848172737693
1539731624580361,-3.2654306858930795,-0.8239871824216607,-0.3967345693140487
1539731624596369,-1.8005645838102282,-0.7629510948347615,-0.3967345693140487
1539731624612377,-0.33569848172737693,-0.8850232700083325,-0.33569848172737693
1539731624628418,0.6408789196611906,-0.8850232700083325,-0.213626306553806
1539731624644426,-0.3967345693140487,-0.8239871824216607,-0.09155413138023505
1539731624660434,-3.0823224231326094,-0.7629510948347615,-0.15259021896690683
1539731624676443,-3.7537193865873633,-0.7019150072480898,-0.8239871824216607
1539731624692451,-2.3498893720911838,-0.9460593575952316,-1.6174563210497581
1539731624708459,0.213626306553806,-1.5564202334630863,-2.288853284504512
1539731624724468,4.669260700389032,-1.9226367589837992,-2.655069810025225
1539731624740476,8.697642481116873,-1.739528496223329,-2.105745021744042
1539731624756485,9.185931181811156,-1.2512397955290453,-1.1291676203554744
1539731624772493,6.927595941100208,-0.5188067444876197,-0.45777065690094787
1539731624788501,1.5564202334630863,0.09155413138023505,-0.2746623941404778
1539731624804510,-1.4343480582895154,0.3967345693140487,0.09155413138023505
1539731624820518,-1.3122758831159445,0.09155413138023505,0.45777065690094787
1539731624836526,-0.8850232700083325,-1.0070954451819034,0.5798428320745188
1539731624852535,3.5095750362402214,-1.9226367589837992,0.5188067444876197
1539731624868543,9.73525597009234,-2.4719615472647547,0.45777065690094787
1539731624884552,14.80125123979542,-2.8381780727854675,0.5798428320745188
1539731624900560,20.965896086060866,-3.2654306858930795,0.6408789196611906
1539731624916568,21.759365224688963,-3.997863736934505,0.3967345693140487
1539731624932577,17.54787518120088,-4.058899824521177,-0.15259021896690683
1539731624948578,11.139085984588291,-2.8992141603723667,-0.5798428320745188
1539731624964586,2.7161058976118966,-0.9460593575952316,-0.45777065690094787
1539731624980594,-4.547188525215461,0.7629510948347615,-0.03051804379333589
1539731624996603,-7.782101167315204,1.6174563210497581,0.3967345693140487
1539731625012611,-7.049668116273779,1.6784924086366573,0.8239871824216607
1539731625028619,-3.3875028610666504,1.0070954451819034,1.0070954451819034
1539731625044628,1.3733119707026162,-0.09155413138023505,1.1902037079423735
1539731625060636,2.8992141603723667,-0.6408789196611906,1.4953841458761872
1539731625076645,2.166781109330941,-0.213626306553806,1.983672846570471
1539731625092653,-0.03051804379333589,0.8239871824216607,2.5940337224383256
1539731625108661,-0.6408789196611906,1.6174563210497581,3.5095750362402214
1539731625124670,0.213626306553806,2.166781109330941,4.547188525215461
1539731625140678,0.09155413138023505,2.5940337224383256,5.523765926604028
1539731625156686,-1.8005645838102282,3.0212863355459376,6.500343327992596
1539731625172695,-6.378271152819025,3.0823224231326094,6.8665598535133086
1539731625188703,-11.383230334935433,2.9602502479590385,6.805523765926637
1539731625204712,-14.251926451514464,2.105745021744042,6.317235065232353
1539731625220720,-15.533684290836845,0.5798428320745188,5.279621576256886
1539731625236728,-11.871519035629717,-0.8850232700083325,3.692683299000464
1539731625252737,-4.974441138323073,-2.04470893415737,2.105745021744042
1539731625268737,3.1433585107195086,-2.8992141603723667,0.8850232700083325
1539731625284746,9.063859006637585,-3.2654306858930795,0.09155413138023505
1539731625300754,9.796292057679011,-3.1433585107195086,-0.15259021896690683
1539731625316763,6.561379415579495,-2.3498893720911838,0.15259021896690683
1539731625332771,1.8005645838102282,-1.2512397955290453,0.7629510948347615
1539731625348779,-3.3875028610666504,-0.09155413138023505,1.4953841458761872
1539731625364788,-8.575570305943302,0.8850232700083325,2.04470893415737
1539731625380796,-14.373998626688035,1.1291676203554744,2.227817196917613
1539731625396804,-18.82963302052326,0.5188067444876197,2.410925459678083
1539731625412813,-19.9893186846723,-0.45777065690094787,2.105745021744042
1539731625428821,-16.815442130159454,-1.3733119707026162,1.8005645838102282
1539731625444830,-11.505302510109004,-2.166781109330941,1.3733119707026162
1539731625460838,-6.500343327992596,-3.0212863355459376,1.1291676203554744
1539731625476846,-2.5940337224383256,-3.875791561760934,0.9460593575952316
1539731625492855,-1.739528496223329,-4.547188525215461,0.8239871824216607
1539731625508863,-1.0070954451819034,-4.9134050507361735,0.6408789196611906
1539731625524871,-1.983672846570471,-5.157549401083315,1.0070954451819034
1539731625540880,-2.105745021744042,-5.279621576256886,1.5564202334630863
1539731625556888,-2.4719615472647547,-5.584802014190927,1.983672846570471
1539731625572897,-3.0212863355459376,-5.828946364538069,2.227817196917613
1539731625588897,-0.33569848172737693,-5.76791027695117,2.5940337224383256
1539731625604905,-0.8239871824216607,-6.195162890058782,3.0823224231326094
1539731625620913,-1.5564202334630863,-6.195162890058782,4.058899824521177
1539731625636921,0.7019150072480898,-5.157549401083315,4.180971999694748
1539731625652929,-3.997863736934505,-4.791332875562603,4.119935912108076
1539731625668937,-12.603952086671143,-4.364080262455218,3.570611123826893
1539731625684945,-16.08300907911803,-3.4485389486533222,2.9602502479590385
1539731625700953,-7.049668116273779,-2.8992141603723667,2.532997634851654
1539731625716961,7.476920729381163,-2.9602502479590385,1.8005645838102282
1539731625732968,18.95170519569683,-3.5095750362402214,0.33569848172737693
1539731625748976,32.501716639963206,-3.875791561760934,-1.1291676203554744
1539731625764984,44.281681544212915,-4.119935912108076,-2.105745021744042
1539731625780992,48.004882887006715,-4.364080262455218,-2.532997634851654
1539731625797000,40.375371938658645,-4.547188525215461,-2.655069810025225
1539731625813008,28.229190508888223,-4.242008087281647,-2.5940337224383256
1539731625829016,16.632333867398984,-3.692683299000464,-2.288853284504512
1539731625845024,5.279621576256886,-3.2654306858930795,-1.983672846570471
1539731625861032,-3.4485389486533222,-3.1433585107195086,-1.9226367589837992
1539731625877040,-6.8665598535133086,-3.3875028610666504,-2.105745021744042
1539731625893047,-3.875791561760934,-3.936827649347606,-2.3498893720911838
1539731625909057,0.5798428320745188,-4.42511635004189,-2.3498893720911838
1539731625925065,3.7537193865873633,-4.730296787975931,-2.655069810025225
1539731625941073,5.096513313496644,-4.730296787975931,-3.0212863355459376
1539731625957081,6.561379415579495,-4.547188525215461,-3.3875028610666504
1539731625973089,8.575570305943302,-4.303044174868319,-3.814755474174035
1539731625989097,10.650797283894008,-4.119935912108076,-3.7537193865873633
1539731626005105,10.89494163424115,-3.7537193865873633,-3.0212863355459376
1539731626021113,7.965209430075447,-2.9602502479590385,-2.04470893415737
1539731626037120,2.4719615472647547,-2.105745021744042,-1.0681315327688026
1539731626053128,-2.04470893415737,-1.0070954451819034,-0.03051804379333589
1539731626069136,-4.974441138323073,-0.213626306553806,1.1291676203554744
1539731626085144,-6.8665598535133086,0.6408789196611906,2.105745021744042
1539731626101152,-7.354848554207592,1.6784924086366573,2.5940337224383256
1539731626117160,-7.354848554207592,2.8992141603723667,2.5940337224383256
1539731626133168,-7.721065079728305,3.997863736934505,2.3498893720911838
1539731626149176,-9.246967269398056,4.730296787975931,1.2512397955290453
1539731626165184,-9.430075532158298,4.547188525215461,0.15259021896690683
1539731626181192,-4.486152437628789,3.814755474174035,-0.3967345693140487
1539731626197199,0.45777065690094787,2.410925459678083,-0.7019150072480898
1539731626213207,2.105745021744042,0.15259021896690683,-1.4953841458761872
1539731626229217,3.2654306858930795,-1.1902037079423735,-2.288853284504512
1539731626245225,5.0354772259097444,-1.4953841458761872,-2.4719615472647547
1539731626261233,5.157549401083315,-1.3122758831159445,-2.4719615472647547
1539731626277241,4.547188525215461,-0.5798428320745188,-2.532997634851654
1539731626293249,3.0823224231326094,0.2746623941404778,-2.7161058976118966
1539731626309257,1.6174563210497581,1.0070954451819034,-2.655069810025225
1539731626325265,1.4343480582895154,1.4953841458761872,-2.532997634851654
1539731626341272,0.2746623941404778,1.6174563210497581,-2.04470893415737
1539731626357280,0.09155413138023505,1.6784924086366573,-1.2512397955290453
1539731626373288,0.8239871824216607,1.739528496223329,-0.7629510948347615
1539731626389296,2.8381780727854675,1.739528496223329,-0.7019150072480898
1539731626405304,6.805523765926637,1.4953841458761872,-0.7629510948347615
1539731626421312,12.176699473563758,1.1902037079423735,-0.8850232700083325
1539731626437320,15.716792553597315,0.8850232700083325,-1.3733119707026162
1539731626453328,19.623102159151586,0.8239871824216607,-2.227817196917613
1539731626469336,22.308690012970146,0.6408789196611906,-3.0823224231326094
1539731626485344,16.388189517051842,0.03051804379333589,-4.180971999694748
1539731626501351,0.45777065690094787,-0.09155413138023505,-6.012054627298312
1539731626517359,-20.782787823300396,0.7019150072480898,-8.45349813076973
1539731626533367,-36.774242771038416,1.3733119707026162,-10.833905546654478
1539731626549377,-41.29091325246054,1.6784924086366573,-11.810482948043045
1539731626565385,-39.398794537270305,1.0070954451819034,-11.566338597695903
1539731626581393,-28.717479209582507,-0.45777065690094787,-10.040436408026153
1539731626597401,-11.383230334935433,-1.8005645838102282,-7.2938124666209205
1539731626613409,3.875791561760934,-2.532997634851654,-3.570611123826893
1539731626629417,11.383230334935433,-2.3498893720911838,0.2746623941404778
1539731626645424,8.33142595559616,-1.9226367589837992,3.2654306858930795
1539731626661432,-2.105745021744042,-0.9460593575952316,5.096513313496644
1539731626677440,-10.711833371480907,0.09155413138023505,5.523765926604028
1539731626693448,-14.557106889448278,0.2746623941404778,4.9134050507361735
1539731626709456,-14.557106889448278,-0.33569848172737693,3.570611123826893
1539731626725464,-10.650797283894008,-1.2512397955290453,1.8616006713969
1539731626741472,-5.096513313496644,-2.655069810025225,0.3967345693140487
1539731626757480,1.9226367589837992,-3.997863736934505,-0.5188067444876197
1539731626773488,8.697642481116873,-4.9134050507361735,-0.5798428320745188
1539731626789496,13.76363775082018,-4.9134050507361735,-0.5188067444876197
1539731626805503,16.44922560463874,-4.242008087281647,-0.2746623941404778
1539731626821511,15.289539940489703,-3.997863736934505,-0.45777065690094787
1539731626837519,12.726024261844714,-4.119935912108076,-0.45777065690094787
1539731626853527,8.880750743877343,-3.997863736934505,-0.5188067444876197
