Timestamp (microseconds),Accel X (g),Accel Y (g),Accel Z (g)
1539131036626709,-0.02386511024643312,-0.3572442206454567,0.9568627450980394
1539131036642705,0.026184481574730967,-0.35492484931715884,0.9546654459449151
1539131036658702,0.051941710536354435,-0.3311207751583125,0.9529564354924851
1539131036674698,0.062195773250934394,-0.2885175860227358,0.9521019302662701
1539131036690694,0.04632639047837017,-0.23834592202639815,0.9442893110551616
1539131036706691,0.0022583352407110624,-0.20550850690470757,0.9428244449530787
1539131036722687,-0.035095750362401645,-0.18988326848249049,0.9461203936827651
1539131036738684,-0.057312886243991557,-0.18475623712520006,0.9383077744716566
1539131036754680,-0.06622415503166268,-0.18719768062867148,0.9229266803997866
1539131036770677,-0.058289463645380124,-0.1906157015335319,0.9041275654230567
1539131036786673,-0.05389486533913157,-0.20477607385366614,0.902052338445106
1539131036802670,-0.0432745860990309,-0.22919050888838033,0.9074235141527431
1539131036818666,-0.023010605020218122,-0.2604409857328145,0.9016861219195853
1539131036834663,0.007263294422827471,-0.29169146257724865,0.8844739452201118
1539131036850659,0.041565575646600905,-0.33051041428244465,0.869947356374456
1539131036866655,0.06268406195162868,-0.35992980849927525,0.8714122224765388
1539131036882652,0.06195162890058725,-0.37592126344701304,0.8843518730449382
1539131036898648,0.04376287479972518,-0.3743343251697566,0.9032730601968417
1539131036914645,0.02655069810025168,-0.35284962233920814,0.9261005569542995
1539131036930641,0.020813305867093845,-0.3219653620202947,0.9240253299763488
1539131036946594,0.001037613488975353,-0.3031662470435643,0.9213397421225302
1539131036962590,-0.01898222323949028,-0.3126878767071033,0.9190203707942324
1539131036978586,-0.026306553749904538,-0.3311207751583125,0.9164568551155874
1539131036994582,-0.010559243152513886,-0.3323414969100482,0.9115739681086446
1539131037010578,0.0038452735179674846,-0.31866941329060827,0.9127946898603803
1539131037026574,-0.002746623941405346,-0.30511940184634145,0.914015411612116
1539131037042570,-0.021911955443655984,-0.2982833600366215,0.9173113603418024
1539131037058566,-0.03741512169069949,-0.2850995651178758,0.9234149691004809
1539131037074562,-0.02545204852368954,-0.2709391927977416,0.9204852368963152
1539131037090558,-0.014465552758068156,-0.280216678110933,0.9043717097734039
1539131037106554,-0.01483176928358887,-0.31012436102845786,0.8930189974822618
1539131037122550,0.001037613488975353,-0.3382009613183796,0.8903334096284432
1539131037138546,0.00970473792629889,-0.3471122301060503,0.8869153887235832
1539131037154542,-0.0014038300144960658,-0.3479667353322653,0.8881361104753189
1539131037170538,-0.0060425726710917615,-0.3424734874494546,0.8953383688105596
1539131037186534,-0.017761501487754572,-0.3425955596246282,0.8953383688105596
1539131037202530,-0.03729304951552592,-0.3501640344853896,0.8937514305333032
1539131037218526,-0.04779125658045302,-0.36505683985656523,0.8928969253070882
1539131037234521,-0.05767910276951227,-0.37299153124284734,0.8893568322270546
1539131037250517,-0.06329442282749698,-0.37262531471732663,0.8816662851911197
1539131037266479,-0.06683451590753053,-0.37286945906767377,0.8841077286945911
1539131037282475,-0.05120927748531301,-0.3743343251697566,0.8992446784161139
1539131037298471,-0.016784924086366004,-0.36493476768139166,0.8976577401388575
1539131037314467,0.013122758831158876,-0.356878004119936,0.8942397192339975
1539131037330463,0.02398718242160669,-0.353459983215076,0.892652780956741
1539131037346459,0.009460593575951748,-0.36505683985656523,0.9007095445181967
1539131037362455,-0.016540779736018862,-0.384466315709163,0.9073014419775696
1539131037378451,-0.029968719005111666,-0.39142442969405655,0.894361791409171
1539131037394447,-0.03826962691691449,-0.3950865949492637,0.882154573891814
1539131037410443,-0.03692683299000521,-0.39349965667200726,0.8651865415426867
1539131037426439,-0.02667277027542525,-0.3970397497520408,0.8621347371633474
1539131037442435,-0.016662851911192433,-0.39484245059891654,0.8748302433813988
1539131037458431,-0.005432211795223907,-0.3886167696650644,0.8947280079346918
1539131037474427,0.008850232700083893,-0.3786068513008316,0.9075455863279167
1539131037490423,0.019592584115358136,-0.3748226138704509,0.9176775768673231
1539131037506419,0.02398718242160669,-0.37933928435187303,0.9202410925459681
1539131037522415,0.021179522392614558,-0.3756771190966659,0.9179217212176702
1539131037538411,0.019836728465705278,-0.3673762111848631,0.9132829785610745
1539131037554407,0.015197985809109582,-0.3562676432440681,0.897779812314031
1539131037570403,0.010803387502861028,-0.356878004119936,0.8831311512932025
1539131037586151,0.005310139620050336,-0.36530098420691237,0.8734874494544895
1539131037602146,0.0036011291676203427,-0.36078431372549025,0.8677500572213317
1539131037618141,0.00579842832074462,-0.34699015793087673,0.8646982528419924
1539131037634136,0.013977264057373873,-0.32709239337758467,0.8740978103303574
1539131037650131,0.014099336232547444,-0.3152513923857483,0.8815442130159461
1539131037666126,0.011413748378728883,-0.31183337148088786,0.8902113374532696
1539131037682121,0.005676356145571049,-0.31183337148088786,0.8970473792629896
1539131037698116,0.017883573662928143,-0.31708247501335185,0.8917982757305261
1539131037714111,0.031311512932020946,-0.32599374380102253,0.8936293583581296
1539131037730106,0.0214236667429617,-0.3484550240329596,0.9115739681086446
1539131037746101,-0.01373311970702673,-0.36456855115587095,0.9397726405737394
1539131037762096,-0.0289921416037231,-0.36713206683451594,0.9436789501792937
1539131037778091,-0.015686274509803866,-0.35651178759441526,0.894361791409171
1539131037794086,-0.030090791180285237,-0.35822079804684526,0.8687266346227203
1539131037810081,-0.007385366598001042,-0.35858701457236597,0.8675059128709846
1539131037826076,0.010559243152513886,-0.3486991683833067,0.8712901503013653
1539131037842071,0.019348439765010994,-0.33270771343556893,0.8865491721980625
1539131037858066,0.02642862592507811,-0.3230640115968568,0.9051041428244453
1539131037874061,0.024719615472648115,-0.3240405889982454,0.9108415350576031
1539131037890056,0.028870069428549527,-0.3371023117418175,0.9033951323720153
1539131037905761,0.03424124513618665,-0.357732509346151,0.8974135957885103
1539131037921755,0.03717097734035235,-0.37970550087739374,0.8914320592050053
1539131037937749,0.027161058976119534,-0.38348973830777444,0.8800793469138632
1539131037953744,0.013122758831158876,-0.37763027389944304,0.8693369954985881
1539131037969738,0.0021362630655374915,-0.3689631494621195,0.860547798886091
1539131037985732,6.103608758678547E-5,-0.3598077363241017,0.855420767528801
1539131038001726,0.011902037079423167,-0.3495536736095217,0.8567635614557103
1539131038017720,0.033630884260318794,-0.33466086823834607,0.858838788433661
1539131038033714,0.04351873044937804,-0.3192797741664761,0.8606698710612646
1539131038049708,0.058289463645380124,-0.3081712062256807,0.8582284275577932
1539131038065702,0.06695658808270366,-0.2991378652628365,0.8484626535439075
1539131038081696,0.0709849698634315,-0.2986495765621422,0.856275272755016
1539131038097690,0.07354848554207649,-0.3028000305180436,0.8759288929579618
1539131038113684,0.06939803158617508,-0.3058518348973829,0.9041275654230567
1539131038129678,0.05413900968947871,-0.31329823758297115,0.9301289387350273
1539131038145672,0.04193179217212162,-0.3295338368810561,0.9532005798428322
1539131038161666,0.048157473105973736,-0.349187457084001,0.9632104982070651
1539131038177661,0.07611200122072148,-0.3638361181048295,0.9538109407187001
1539131038193655,0.10492103456168422,-0.36993972686350807,0.9436789501792937
1539131038209649,0.11859311818112417,-0.35944151979858097,0.9434348058289466
1539131038225402,0.11029221026932134,-0.34052033264667747,0.9477073319600215
1539131038241396,0.08770885786221072,-0.3236743724727247,0.942458228427558
1539131038257389,0.0613412680247194,-0.31952391851682327,0.9320820935378045
1539131038273382,0.042908369573510186,-0.3349050125886932,0.9181658655680174
1539131038289375,0.033752956435492365,-0.35529106584267955,0.8904554818036168
1539131038305368,0.036438544289310926,-0.3668879224841688,0.8604257267109174
1539131038321361,0.03070115205615309,-0.3715266651407645,0.8367437247272447
1539131038337354,0.025818265049210254,-0.36957351033798735,0.8347905699244675
1539131038353347,0.015197985809109582,-0.36920729381246664,0.8451667048142211
1539131038369341,0.009094377050431035,-0.36200503547722596,0.866529335469596
1539131038385334,0.013000686655985305,-0.34650186923018245,0.8931410696574353
1539131038401327,0.02386511024643312,-0.32623788815136967,0.910597390707256
1539131038417320,0.02386511024643312,-0.3202563515678647,0.9192645151445795
1539131038433313,0.024841687647821686,-0.3345387960631725,0.936476691844053
1539131038449306,0.028137636377508102,-0.3516289005874724,0.9529564354924851
1539131038465299,0.02642862592507811,-0.3643244068055238,0.9546654459449151
1539131038481292,0.021789883268482413,-0.3731136034180209,0.9468528267338066
1539131038497285,0.02130159456778813,-0.38141451132982374,0.9254901960784316
1539131038513279,0.025818265049210254,-0.3820248722056916,0.9074235141527431
1539131038529272,0.02386511024643312,-0.3794613565270466,0.8916762035553525
1539131038545044,0.014587624933241727,-0.37421225299458305,0.8837415121690704
1539131038561036,0.010681315327687457,-0.36664377813382165,0.8852063782711532
1539131038577028,0.016540779736018862,-0.3546807049668117,0.8815442130159461
1539131038593020,0.01617456321049815,-0.3539482719157703,0.8789806973373011
1539131038609012,0.023376821545738835,-0.3696955825131609,0.8823987182421611
1539131038625004,0.032532234683756656,-0.387884336614023,0.876173037308309
1539131038640997,0.03717097734035235,-0.3982604715037765,0.8557869840543217
1539131038656989,0.03668268863965807,-0.4043640802624551,0.8567635614557103
1539131038672981,0.0357061112382695,-0.40997940032043934,0.8661631189440753
1539131038688973,0.03985656519417091,-0.4097352559700922,0.8719005111772331
1539131038704965,0.03961242084382377,-0.4130312046997786,0.8806897077897311
1539131038720957,0.03851377126726163,-0.42059967956054,0.8917982757305261
1539131038736950,0.04486152437628732,-0.4235294117647057,0.8880140383001454
1539131038752942,0.04205386434729519,-0.42255283436331714,0.8860608834973682
1539131038768934,0.0424200808728159,-0.41840238040741573,0.896070801861601
1539131038784926,0.052063782711528006,-0.4092469672693979,0.8948500801098653
1539131038800918,0.057068741893644415,-0.3999694819562065,0.8854505226215004
1539131038816910,0.050720988784618726,-0.3928892957961394,0.8867933165484096
1539131038832903,0.049378194857709445,-0.38178072785534445,0.8877698939497982
1539131038848895,0.040100709544518054,-0.3777523460746166,0.8808117799649047
1539131038864654,0.03399710078583951,-0.3748226138704509,0.8653086137178603
1539131038880645,0.04205386434729519,-0.3823910887312123,0.8574959945067517
1539131038896637,0.04351873044937804,-0.39142442969405655,0.8565194171053632
1539131038912628,0.04132143129625376,-0.3970397497520408,0.8529793240253296
1539131038928619,0.04339665827420447,-0.39850461585412367,0.8490730144197753
1539131038944610,0.044251163500419466,-0.3997253376058594,0.8388189517051954
1539131038960601,0.04229800869764233,-0.40534065766384364,0.8341802090485997
1539131038976593,0.04046692607003877,-0.40704966811627363,0.8395513847562368
1539131038992584,0.050476844434271584,-0.3975280384527351,0.8468757152666511
1539131039008575,0.057312886243991557,-0.3866636148622873,0.8634775310902567
1539131039024566,0.059876401922636546,-0.380193789578088,0.8745860990310517
1539131039040557,0.06305027847714939,-0.3820248722056916,0.8777599755855654
1539131039056549,0.06073090714885154,-0.38898298619058513,0.8799572747386897
1539131039072540,0.059876401922636546,-0.40119020370794223,0.8780041199359125
1539131039088531,0.059754329747462975,-0.40790417334248863,0.8849622339208061
1539131039104522,0.05767910276951227,-0.4080262455176622,0.8905775539787903
1539131039120514,0.050476844434271584,-0.4063172350652322,0.8867933165484096
1539131039136505,0.04571602960250232,-0.4105897611963072,0.8827649347676818
1539131039152496,0.05218585488670158,-0.41498435950255574,0.8794689860379954
1539131039168487,0.05877775234607441,-0.4151064316777293,0.8767833981841768
1539131039184295,0.059632257572289404,-0.4072938124666208,0.8780041199359125
1539131039200286,0.05816739147020655,-0.3988708323796444,0.8817883573662932
1539131039216276,0.05816739147020655,-0.39398794537270154,0.8776379034103918
1539131039232266,0.061097123674372256,-0.39276722362096583,0.8700694285496295
1539131039248256,0.06488136110475295,-0.3945983062485694,0.8649423971923396
1539131039264247,0.0659800106813151,-0.3925230792706187,0.8651865415426867
1539131039280237,0.06463721675440581,-0.38641947051194014,0.8655527580682074
1539131039296227,0.062317845426107965,-0.38422217135881587,0.8638437476157774
1539131039312217,0.05999847409781012,-0.387029831387808,0.8632333867399096
1539131039328208,0.06610208285648866,-0.390447852292668,0.8676279850461581
1539131039344198,0.06878767071030722,-0.39105821316853584,0.8704356450751503
1539131039360188,0.07782101167315147,-0.3925230792706187,0.8860608834973682
1539131039376178,0.0747692072938122,-0.42243076218814357,0.8860608834973682
1539131039392169,0.06451514457923224,-0.4269474326695657,0.8563973449301896
1539131039408159,0.008972304875257464,-0.42841229877164855,0.8561532005798425
1539131039424149,0.08490119783321859,-0.4046082246128022,0.8379644464789804
1539131039440139,0.07684443427176291,-0.4556343938353553,0.829541466392004
1539131039456130,0.03741512169069949,-0.509224078736553,0.831250476844434
1539131039472120,0.04974441138323016,-0.5232623788815136,0.8527351796749825
1539131039488110,0.06707866025787723,-0.4729686427100024,0.861402304112306
1539131039503906,0.09100480659189714,-0.39655146105134653,0.8643320363164717
1539131039519896,0.0974746318760964,-0.33673609521629677,0.8695811398489353
1539131039535885,0.06573586633096795,-0.315617608911269,0.8726329442282745
1539131039551875,0.04351873044937804,-0.3142748149843597,0.8823987182421611
1539131039567865,0.03826962691691449,-0.31744869153887256,0.897779812314031
1539131039583855,0.02679484245059882,-0.3278248264286261,0.9033951323720153
1539131039599845,0.04254215304798947,-0.34308384832532246,0.8773937590600447
1539131039615834,0.05535973144121442,-0.3720149538414588,0.8546883344777596
1539131039631824,0.049134050507362304,-0.3920347905699244,0.8366216525520711
1539131039647814,0.03729304951552592,-0.40411993591210793,0.8434576943617911
1539131039663804,0.028381780727855244,-0.3982604715037765,0.8621347371633474
1539131039679793,0.03741512169069949,-0.39105821316853584,0.8755626764324411
1539131039695783,0.04498359655146089,-0.38971541924162656,0.8798352025635161
1539131039711773,0.04730296787975874,-0.40411993591210793,0.8847180895704589
1539131039727763,0.04974441138323016,-0.424872205691615,0.8954604409857332
1539131039743753,0.04254215304798947,-0.4392767223620968,0.8941176470588239
1539131039759742,0.04339665827420447,-0.44122987716487394,0.8854505226215004
1539131039775732,0.0470588235294116,-0.43720149538414566,0.8823987182421611
1539131039791722,0.05426108186465228,-0.42121004043640786,0.893507286182956
1539131039807712,0.05926604104676869,-0.39899290455481795,0.8942397192339975
1539131039823547,0.05633630884260299,-0.37799649042496375,0.8885023270008396
1539131039839536,0.05474937056534657,-0.3806820782787823,0.8944838635843446
1539131039855525,0.04986648355840373,-0.385320820935378,0.9007095445181967
1539131039871513,0.05560387579156156,-0.385320820935378,0.8845960173952854
1539131039887502,0.054383154039825854,-0.38422217135881587,0.8649423971923396
1539131039903491,0.04730296787975874,-0.3911802853437094,0.8576180666819253
1539131039919480,0.04351873044937804,-0.4021667811093308,0.8650644693675131
1539131039935469,0.050598916609445155,-0.4122987716487372,0.8672617685206374
1539131039951458,0.04974441138323016,-0.41669336995498574,0.8721446555275802
1539131039967446,0.05487144274052014,-0.4226749065384907,0.8767833981841768
1539131039983435,0.06317235065232296,-0.4207217517357136,0.8705577172503238
1539131039999424,0.059754329747462975,-0.4155947203784236,0.8668955519951167
1539131040015413,0.05145342183566015,-0.4147402151522086,0.876173037308309
1539131040031402,0.052918287937743,-0.4173037308308536,0.8859388113221947
1539131040047391,0.05767910276951227,-0.41120012207217504,0.8845960173952854
1539131040063379,0.05804531929503298,-0.40912489509422434,0.8822766460669875
1539131040079368,0.0567025253681237,-0.4151064316777293,0.8798352025635161
1539131040095357,0.060975051499198685,-0.41742580300602716,0.871656366826886
1539131040111346,0.06500343327992653,-0.40570687418936435,0.8705577172503238
1539131040127335,0.05938811322194226,-0.3908140688181887,0.8751964599069204
1539131040143188,0.052918287937743,-0.3828793774319066,0.8750743877317468
1539131040159176,0.04180971999694805,-0.38727397573815514,0.8688487067978938
1539131040175165,0.04083314259555948,-0.3950865949492637,0.8599374380102232
1539131040191153,0.04095521477073305,-0.40155642023346294,0.8518806744487675
1539131040207142,0.040344853894865196,-0.3967956054016937,0.8484626535439075
1539131040223130,0.03546196688792236,-0.3982604715037765,0.8510261692225525
1539131040239118,0.03729304951552592,-0.40192263675898365,0.8570077058060575
1539131040255107,0.0432745860990309,-0.4080262455176622,0.8661631189440753
1539131040271095,0.05560387579156156,-0.41327534905012575,0.8623788815136946
1539131040287083,0.07244983596551435,-0.4168154421301593,0.8616464484626531
1539131040303072,0.07928587777523433,-0.4093690394445715,0.8720225833524067
1539131040319060,0.08587777523460716,-0.393011367971313,0.8777599755855654
1539131040335048,0.0823376821545736,-0.3794613565270466,0.8849622339208061
1539131040351037,0.08856336308842572,-0.3761654077973602,0.8938735027084768
1539131040367025,0.08587777523460716,-0.38226901655603873,0.8919203479056996
1539131040383013,0.0852674143587393,-0.3953307392996108,0.8825207904173347
1539131040399002,0.06610208285648866,-0.4064393072404058,0.8678721293965053
1539131040414990,0.04522774090180803,-0.4101014724956129,0.8657969024185546
1539131040430978,0.03289845120927737,-0.4047302967879758,0.8683604180971995
1539131040446967,0.02423132677195383,-0.39557488364995796,0.8650644693675131
1539131040462799,0.023132677195391693,-0.3953307392996108,0.8681162737468524
1539131040478787,0.023620965896085977,-0.40228885328450437,0.8789806973373011
1539131040494774,0.030823224231326662,-0.4113221942473486,0.8883802548256661
1539131040510762,0.03741512169069949,-0.4142519264515143,0.8792248416876483
1539131040526750,0.04315251392385733,-0.42035553521019287,0.8678721293965053
1539131040542738,0.04742504005493231,-0.43378347447928567,0.8693369954985881
1539131040558726,0.05145342183566015,-0.44281681544213036,0.8719005111772331
1539131040574714,0.04510566872663446,-0.4408636606393532,0.8671396963454638
1539131040590702,0.041565575646600905,-0.42133211261158143,0.8593270771343553
1539131040606690,0.0357061112382695,-0.3978942549782558,0.870801861600671
1539131040622677,0.03460746166170736,-0.383611810482948,0.881300068665599
1539131040638665,0.036194399938963784,-0.3908140688181887,0.872510872053101
1539131040654653,0.03924620431830306,-0.4130312046997786,0.8712901503013653
1539131040670641,0.046692607003890885,-0.4101014724956129,0.8740978103303574
1539131040686629,0.04901197833218873,-0.38471046005951015,0.8773937590600447
1539131040702617,0.04058899824521234,-0.3668879224841688,0.8762951094834825
1539131040718605,0.031189440756847375,-0.3734798199435416,0.8670176241702903
1539131040734593,0.015442130159456724,-0.3975280384527351,0.8664072632944224
1539131040750580,0.01373311970702673,-0.41718165865568,0.8666514076447696
1539131040766568,0.020691233691920274,-0.41547264820325003,0.8592050049591817
1539131040782470,0.02020294499122599,-0.42340733958953214,0.869947356374456
1539131040798458,0.017029068436713146,-0.4329289692530707,0.8748302433813988
1539131040814445,0.012756542305638163,-0.43988708323796466,0.8640878919661246
1539131040830433,0.013488975356679589,-0.4315861753261614,0.8516365300984203
1539131040846420,0.011535820553902454,-0.4147402151522086,0.8538338292515446
1539131040862407,0.016540779736018862,-0.39362172884718083,0.8671396963454638
1539131040878395,0.02008087281605242,-0.39142442969405655,0.8683604180971995
1539131040894382,0.017761501487754572,-0.40314335851071936,0.8715342946517124
1539131040910369,0.02252231631952384,-0.41791409170672145,0.8754406042572676
1539131040926357,0.029968719005111666,-0.4173037308308536,0.8628671702143889
1539131040942344,0.031311512932020946,-0.4064393072404058,0.8550545510032803
1539131040958332,0.030823224231326662,-0.3806820782787823,0.8595712214847024
1539131040974319,0.024353398947127403,-0.35870908674753954,0.8893568322270546
1539131040990306,0.027405203326466676,-0.38312352178225373,0.9025406271458003
1539131041006294,0.02008087281605242,-0.428290226596475,0.8748302433813988
1539131041022281,0.015686274509803866,-0.49542992294193944,0.8351567864499883
1539131041038269,0.024597543297474544,-0.5539024948500799,0.8018310826276034
1539131041054256,0.03045700770580595,-0.5825894560158695,0.7984130617227434
1539131041070243,0.0327763790341038,-0.5695277332722974,0.8004882887006941
1539131041086231,0.032288090333409514,-0.532539864194705,0.8305180437933926
1539131041102081,0.03558403906309593,-0.5047074082551308,0.8471198596169982
1539131041118068,0.006286717021438903,-0.4960402838178073,0.8390630960555425
1539131041134055,4.272526131074983E-4,-0.5003128099488823,0.8266117341878383
1539131041150042,-0.006530861371786045,-0.4956740672922866,0.8208743419546805
1539131041166029,-0.0038452735179674846,-0.4778515297169452,0.8401617456321047
1539131041182016,3.0518043793392735E-4,-0.46308079652094314,0.8585946440833139
1539131041198002,-0.001159685664148924,-0.4530708781567103,0.8350347142748147
1539131041213989,-0.006530861371786045,-0.46564431219958813,0.826977950713359
1539131041229976,0.004333562218661768,-0.4888380254825666,0.826123445487144
1539131041245963,9.15541313801782E-4,-0.5003128099488823,0.8477302204928661
1539131041261950,-0.009460593575951748,-0.4901808194094759,0.8351567864499883
1539131041277937,-0.021667811093308842,-0.5084916456855115,0.8439459830624854
1539131041293924,-0.010193026626993174,-0.5181353475242236,0.8211184863050276
1539131041309911,-0.0042114900434881974,-0.5271686884870679,0.8310063324940868
1539131041325898,-0.015197985809109582,-0.49408712901503016,0.8238040741588462
1539131041341885,-0.030090791180285237,-0.46186007476920743,0.8391851682307161
1539131041357872,0.004943923094529623,-0.43549248493171566,0.8714122224765388
1539131041373859,0.04217593652246876,-0.41376363775082003,0.8695811398489353
1539131041389845,0.03558403906309593,-0.4093690394445715,0.8686045624475467
1539131041405832,0.010193026626993174,-0.40534065766384364,0.8371099412527654
1539131041421692,-0.010681315327687457,-0.4485542076752882,0.792553597314412
1539131041437678,-0.030823224231326662,-0.5199664301518272,0.7599603265430686
1539131041453664,0.00457770656900891,-0.6207980468451972,0.7587396047913328
1539131041469651,0.026062409399557396,-0.679758907454032,0.7434805828946365
1539131041485637,-0.018371862363622427,-0.697825589379721,0.7327382314793622
1539131041501624,-0.001159685664148924,-0.7064927138170445,0.7090562294956895
1539131041517610,0.0319218738078888,-0.688426031891356,0.7030746929121845
1539131041533597,0.04095521477073305,-0.6625467307545585,0.7265125505455101
1539131041549583,0.014587624933241727,-0.6531471732661935,0.7604486152437628
1539131041565570,-0.01629663538567172,-0.6463111314564736,0.7775387197680628
1539131041581556,-0.032410162508583085,-0.6482642862592507,0.7879148546578163
1539131041597542,-0.030212863355458808,-0.47980468451972236,0.7659418631265735
1539131041613529,-0.04461738002594018,-0.42230869001297,0.9033951323720153
1539131041629515,-0.13299763485160598,-0.2276035706111239,0.8744640268558781
1539131041645502,-0.027161058976119534,-0.27191577019913016,0.9009536888685439
1539131041661488,-0.020813305867093845,-0.2234531166552225,0.9138933394369424
1539131041677475,-0.031067368581673804,-0.18658731975280363,0.9064469367513546
1539131041693461,-0.03741512169069949,-0.20880445563439398,0.9188982986190588
1539131041709447,-0.008606088349736751,-0.23077744716563675,0.9427023727779051
1539131041725434,0.05389486533913157,-0.275944151979858,0.9171892881666288
1539131041741333,0.06317235065232296,-0.27826352330815585,0.8808117799649047
1539131041757319,0.03448538948653379,-0.30719462882429216,0.9153582055390252
1539131041773305,-0.04095521477073305,-0.34686808575570316,0.9618677042801558
1539131041789291,-0.047913328755626594,-0.34357213702601674,0.9857938506141757
1539131041805276,-0.0015259021896696368,-0.26898603799496446,0.9265888456549938
1539131041821262,-0.04058899824521234,-0.14325169756618594,0.8460212100404361
1539131041837248,0.03997863736934448,-0.044129091325245895,0.8776379034103918
1539131041853234,0.01373311970702673,0.05133134966048658,0.9474631876096744
1539131041869220,-0.0214236667429617,0.1138323033493549,0.9883573662928207
1539131041885206,0.004943923094529623,0.12262149996185201,0.9833524071107043
1539131041901192,0.019104295414663852,0.07891966124971361,0.9511253528648815
1539131041917178,0.033752956435492365,-0.02642862592507811,0.9370870527199209
1539131041933164,0.020447089341573133,-0.12921339742122528,0.9606469825284201
1539131041949150,7.934691386282111E-4,-0.1986724650949876,0.9767605096513314
1539131041965136,-0.023010605020218122,-0.18353551537346435,0.9652857251850158
1539131041981122,-0.019714656290531707,-0.16412603952086657,0.9507591363393608
1539131041997108,-0.029968719005111666,-0.127016098268101,0.9448996719310294
1539131042013094,-0.01861600671396957,-0.10089265278095683,0.9444113832303351
1539131042029080,-0.02020294499122599,-0.0753795681696805,0.951003280689708
1539131042045066,-0.025574120698863112,-0.06012054627298369,0.9706569008926529
1539131042060943,-0.021667811093308842,-0.043030441748683756,0.9733424887464714
1539131042076929,-0.03070115205615309,-0.03851377126726163,0.9655298695353629
1539131042092914,-0.04644846265354374,-0.06195162890058725,0.9456321049820708
1539131042108900,-0.037781338216220206,-0.11517509727626463,0.9323262378881516
1539131042124885,-0.031067368581673804,-0.1829251544975965,0.919142442969406
1539131042140871,-0.014221408407721015,-0.23468375677119102,0.9350118257419702
1539131042156856,0.029968719005111666,-0.2410315098802167,0.9591821164263372
1539131042172842,0.04840161745632088,-0.18365758754863792,0.9583276112001222
1539131042188827,0.03985656519417091,-0.10125886930647754,0.9584496833752958
1539131042204813,0.020691233691920274,-0.023743038071259548,0.9561303120469979
1539131042220798,0.007019150072480329,0.009582665751125319,0.9593041886015108
1539131042236784,-0.006897077897306758,-0.007263294422827471,0.9624780651560236
1539131042252769,-0.009948882276646032,-0.06268406195162912,0.9478294041351951
1539131042268755,-0.011291676203555312,-0.12213321126115817,0.9436789501792937
1539131042284740,-0.014343480582894585,-0.16839856565194156,0.9514915693904022
1539131042300726,-0.014099336232547444,-0.14728007934691378,0.9508812085145344
1539131042316711,-0.012146181429770309,-0.09954985885404755,0.9519798580910965
1539131042332697,-0.01641870756084529,-0.05889982452124798,0.9619897764553293
1539131042348682,-0.009338521400778177,-0.0386358434424352,0.96577401388571
1539131042364668,-0.006775005722133187,-0.044251163500419466,0.9643091477836272
1539131042380554,-0.005676356145571049,-0.06549172198062125,0.9489280537117573
1539131042396539,6.103608758678547E-5,-0.08099488822766476,0.9466086823834594
1539131042412524,0.00457770656900891,-0.08014038300144977,0.9533226520180058
1539131042428509,0.008117799649042468,-0.0707408255130848,0.9513694972152287
1539131042444494,0.0016479743648432077,-0.06353856717784412,0.9503929198138401
1539131042460479,-0.0023804074158846333,-0.06659037155718339,0.9594262607766844
1539131042476464,-0.0036011291676203427,-0.07135118638895266,0.9660181582360572
1539131042492449,0.0014038300144960658,-0.08233768215457404,0.9688258182650493
1539131042508434,0.0042114900434881974,-0.08929579613946759,0.9693141069657436
1539131042524419,9.15541313801782E-4,-0.09185931181811258,0.96577401388571
1539131042540404,-0.0036011291676203427,-0.08978408484016187,0.9606469825284201
1539131042556389,-0.005188067444876765,-0.08490119783321903,0.9652857251850158
1539131042572374,-0.0061646448462653325,-0.07647821774624264,0.9694361791409172
1539131042588359,0.0015259021896696368,-0.06659037155718339,0.9679713130388343
1539131042604344,0.0040894178683146265,-0.06182955672541368,0.9705348287174793
1539131042620329,0.009948882276646032,-0.060852979324025114,0.9687037460898758
1539131042636314,0.014709697108415298,-0.06073090714885154,0.9623559929808501
1539131042652299,0.0021362630655374915,-0.05682459754329727,0.9643091477836272
1539131042668284,0.002746623941405346,-0.05108720531013944,0.9634546425574122
1539131042684269,5.493247882810692E-4,-0.0508430609597923,0.9613794155794615
1539131042700164,0.0038452735179674846,-0.05780117494468584,0.9572289616235601
1539131042716149,0.004943923094529623,-0.06964217593652267,0.9707789730678265
1539131042732133,-1.831082627603564E-4,-0.06878767071030767,0.9779812314030671
1539131042748118,0.0025024795910582043,-0.05767910276951227,0.976882581826505
1539131042764103,0.008606088349736751,-0.05426108186465228,0.9590600442511636
1539131042780087,0.008117799649042468,-0.05938811322194226,0.9473411154345008
1539131042796072,0.006897077897306758,-0.06414892805371197,0.939894712748913
1539131042812056,0.002990768291752488,-0.050720988784618726,0.9358663309681852
1539131042828041,-0.006897077897306758,-0.03155565728236809,0.9406271457999544
1539131042844025,-0.008117799649042468,-0.03326466773479808,0.9464866102082858
1539131042860010,-3.0518043793392735E-4,-0.054627298390172996,0.9525902189669644
1539131042875994,0.00836194399938961,-0.07891966124971406,0.9536888685435265
1539131042891979,0.012024109254596738,-0.09332417792019543,0.951003280689708
1539131042907963,0.010070954451819603,-0.09466697184710471,0.9601586938277258
1539131042923948,0.006897077897306758,-0.0838025482566569,0.9721217669947357
1539131042939932,0.008972304875257464,-0.06890974288548124,0.9744411383230336
1539131042955917,0.0109254596780346,-0.05560387579156156,0.9644312199588008
1539131042971902,0.010681315327687457,-0.053284504463263715,0.9568627450980394
1539131042987886,0.010193026626993174,-0.04986648355840373,0.9623559929808501
1539131043003871,0.012146181429770309,-0.041687647821774476,0.9601586938277258
1539131043019806,0.003356984817273201,-0.03717097734035235,0.9538109407187001
1539131043035790,-0.0060425726710917615,-0.050598916609445155,0.9563744563973451
1539131043051775,-0.0040894178683146265,-0.07025253681239052,0.9695582513160907
1539131043067759,-0.001159685664148924,-0.08172732127870619,0.9652857251850158
1539131043083744,0.007751583123521755,-0.08087281605249119,0.9468528267338066
1539131043099728,0.013855191882200302,-0.07513542381933336,0.948439765011063
1539131043115713,0.017883573662928143,-0.07110704203860552,0.9658960860608836
1539131043131697,0.022400244144350268,-0.05401693751430514,0.975173571374075
1539131043147682,0.02777141985198739,-0.04107728694590662,0.964919508659495
1539131043163666,0.03143358510719452,-0.04351873044937804,0.9550316624704358
1539131043179651,0.03204394598306237,-0.054627298390172996,0.9571068894483865
1539131043195635,0.026306553749904538,-0.05926604104676869,0.9605249103532465
1539131043211620,0.02288853284504455,-0.05548180361638799,0.9606469825284201
1539131043227604,0.02679484245059882,-0.04827954528114731,0.9575951781490808
1539131043243589,0.026062409399557396,-0.046570534828717314,0.9578393224994279
1539131043259574,0.020691233691920274,-0.050720988784618726,0.9611352712291144
1539131043275558,0.015686274509803866,-0.05267414358739586,0.96406500343328
1539131043291543,0.012024109254596738,-0.057190814068817986,0.9606469825284201
1539131043307527,0.01361104753185316,-0.0613412680247194,0.9574731059739072
1539131043323512,0.015075913633936011,-0.0613412680247194,0.9556420233463037
1539131043339447,0.016906996261539575,-0.05352864881361086,0.9572289616235601
1539131043355431,0.01629663538567172,-0.04974441138323016,0.9597924773022051
1539131043371415,0.015930418860151008,-0.050476844434271584,0.9550316624704358
1539131043387399,0.013977264057373873,-0.055970092317082276,0.9512474250400551
1539131043403383,0.01495384145876244,-0.0613412680247194,0.9479514763103687
1539131043419367,0.020691233691920274,-0.058289463645380124,0.9481956206607158
1539131043435351,0.02130159456778813,-0.05108720531013944,0.9488059815365837
1539131043451335,0.02154573891813527,-0.03802548256656735,0.9567406729228658
1539131043467319,0.025696192874036683,-0.030212863355458808,0.9612573434042879
1539131043483303,0.028625925078202386,-0.03472953383688093,0.9601586938277258
1539131043499287,0.031067368581673804,-0.04730296787975874,0.9577172503242544
1539131043515271,0.023620965896085977,-0.05902189669642155,0.9632104982070651
1539131043531255,0.021667811093308842,-0.06280613412680269,0.9632104982070651
1539131043547239,0.01373311970702673,-0.058533607995727266,0.9595483329518579
1539131043563223,0.015197985809109582,-0.055970092317082276,0.9584496833752958
1539131043579208,0.01739528496223386,-0.05877775234607441,0.9589379720759901
1539131043595192,0.015564202334630295,-0.06829938200961339,0.9605249103532465
1539131043611176,0.01495384145876244,-0.06988632028686981,0.96748302433814
1539131043627160,0.014465552758068156,-0.06341649500267055,0.9665064469367515
1539131043643144,0.016540779736018862,-0.06341649500267055,0.9583276112001222
1539131043659057,0.02398718242160669,-0.062195773250934394,0.951857785915923
1539131043675041,0.015686274509803866,-0.06280613412680269,0.9511253528648815
1539131043691025,0.013244831006332447,-0.060975051499198685,0.9628442816815443
1539131043707009,0.014465552758068156,-0.055970092317082276,0.9701686121919586
1539131043722993,0.011779964904249596,-0.05145342183566015,0.9636987869077593
1539131043738978,0.013122758831158876,-0.05535973144121442,0.955275806820783
1539131043754962,0.013244831006332447,-0.06427100022888554,0.9568627450980394
1539131043770946,0.010070954451819603,-0.06707866025787768,0.9541771572442208
1539131043786930,0.010803387502861028,-0.06671244373235696,0.9529564354924851
1539131043802914,0.008239871824216038,-0.06756694895857196,0.9521019302662701
1539131043818898,0.009460593575951748,-0.06927595941100195,0.9536888685435265
1539131043834882,0.008728160524910322,-0.07208361943999408,0.9567406729228658
1539131043850866,0.0109254596780346,-0.07354848554207694,0.9567406729228658
1539131043866850,0.012634470130464592,-0.07379262989242408,0.9596704051270315
1539131043882834,0.010437170977340315,-0.07086289768825837,0.9596704051270315
1539131043898818,0.012756542305638163,-0.06915388723582838,0.9628442816815443
1539131043914802,0.011413748378728883,-0.07110704203860552,0.9529564354924851
1539131043930786,0.008239871824216038,-0.06890974288548124,0.951857785915923
1539131043946770,0.006775005722133187,-0.07318226901655622,0.9561303120469979
1539131043962754,0.00982681010147246,-0.07440299076829193,0.9644312199588008
1539131043978698,0.010803387502861028,-0.07415884641794479,0.9672388799877929
1539131043994682,0.013855191882200302,-0.07501335164415979,0.9557640955214772
1539131044010666,0.015564202334630295,-0.07476920729381265,0.9473411154345008
1539131044026649,0.018371862363622427,-0.06732280460822482,0.9468528267338066
1539131044042633,0.017639429312581,-0.060852979324025114,0.9542992294193944
1539131044058616,0.013244831006332447,-0.0669565880827041,0.9693141069657436
1539131044074600,0.013977264057373873,-0.08514534218356618,0.976882581826505
1539131044090583,0.02264438849469741,-0.09845120927748541,0.9654077973601893
1539131044106567,0.019104295414663852,-0.1030899519340811,0.9573510337987337
1539131044122551,0.019470511940184565,-0.09991607537956826,0.9596704051270315
1539131044138534,0.028137636377508102,-0.06756694895857196,0.9615014877546351
1539131044154518,0.015197985809109582,-0.022278171969176697,0.970901045243
1539131044170501,0.008728160524910322,0.0040894178683146265,0.97431906614786
1539131044186485,0.004943923094529623,-0.0018921187151903496,0.9738307774471657
1539131044202468,0.0025024795910582043,-0.03668268863965807,0.9661402304112308
1539131044218452,0.008972304875257464,-0.07220569161516766,0.9536888685435265
1539131044234436,0.011291676203555312,-0.08953994048981473,0.9459983215075916
1539131044250419,0.011535820553902454,-0.08197146562905333,0.945876249332418
1539131044266403,0.012146181429770309,-0.06561379415579482,0.9517357137407494
1539131044282386,0.017029068436713146,-0.050476844434271584,0.9600366216525522
1539131044298309,0.022156099794003126,-0.04962233920805659,0.9656519417105365
1539131044314293,0.023010605020218122,-0.062195773250934394,0.9616235599298086
1539131044330276,0.01898222323949028,-0.0753795681696805,0.9615014877546351
1539131044346260,0.01641870756084529,-0.07598992904554835,0.9643091477836272
1539131044362243,0.0061646448462653325,-0.07049668116273766,0.9604028381780729
1539131044378227,0.007751583123521755,-0.06744487678339839,0.9512474250400551
1539131044394210,0.01104753185320817,-0.06903181506065481,0.951003280689708
1539131044410194,0.015197985809109582,-0.06671244373235696,0.9489280537117573
1539131044426178,0.013244831006332447,-0.058289463645380124,0.9602807660028994
1539131044442161,0.0109254596780346,-0.04827954528114731,0.9698023956664379
1539131044458145,0.01495384145876244,-0.04583810177767589,0.9634546425574122
1539131044474128,0.01226825360494388,-0.05474937056534657,0.9546654459449151
1539131044490112,0.013122758831158876,-0.0695201037613491,0.9626001373311972
1539131044506096,0.014343480582894585,-0.07855344472419334,0.96919203479057
1539131044522079,0.017273212787060288,-0.07501335164415979,0.9701686121919586
1539131044538063,0.017273212787060288,-0.0695201037613491,0.9673609521629665
1539131044554046,0.02032501716639956,-0.06622415503166268,0.9634546425574122
1539131044570030,0.022156099794003126,-0.07257190814068837,0.9505149919890137
1539131044586013,0.02423132677195383,-0.08563363088426046,0.9456321049820708
1539131044601997,0.02276646066987098,-0.09576562142366685,0.948439765011063
1539131044617920,0.01373311970702673,-0.10089265278095683,0.9600366216525522
1539131044633903,0.010070954451819603,-0.09710841535057613,0.96577401388571
1539131044649886,0.009094377050431035,-0.09271381704432757,0.9561303120469979
1539131044665869,0.013122758831158876,-0.09442282749675757,0.9438010223544673
1539131044681852,0.013977264057373873,-0.0963759822995347,0.942458228427558
1539131044697835,0.011779964904249596,-0.09161516746776543,0.9568627450980394
1539131044713818,0.006897077897306758,-0.08368047608148332,0.9647974364843215
1539131044729801,0.004455634393835339,-0.08233768215457404,0.9597924773022051
1539131044745784,0.002990768291752488,-0.0879530022125583,0.9522240024414437
1539131044761767,0.003356984817273201,-0.09662012664988184,0.9496604867627987
1539131044777751,0.0023804074158846333,-0.09698634317540256,0.9495384145876251
1539131044793734,3.0518043793392735E-4,-0.08831921873807902,0.9621118486305029
1539131044809717,0.008850232700083893,-0.08429083695735118,0.9643091477836272
1539131044825700,0.00970473792629889,-0.08636606393530188,0.9496604867627987
1539131044841683,0.012878614480811734,-0.08844129091325259,0.946730754558633
1539131044857666,0.013855191882200302,-0.08770885786221116,0.9435568780041201
1539131044873649,0.0036011291676203427,-0.08148317692835905,0.9539330128938737
1539131044889632,0.00982681010147246,-0.08245975432974761,0.9616235599298086
1539131044905615,0.008728160524910322,-0.08258182650492119,0.9557640955214772
1539131044921599,0.013855191882200302,-0.09210345616845972,0.9472190432593273
1539131044937561,0.013122758831158876,-0.1010147249561304,0.9505149919890137
1539131044953544,0.010315098802166744,-0.11114671549553679,0.9673609521629665
1539131044969527,0.010070954451819603,-0.11761654077973605,0.9699244678416115
1539131044985510,0.01361104753185316,-0.10907148851758608,0.9591821164263372
1539131045001493,0.0109254596780346,-0.09796292057679112,0.9519798580910965
1539131045017476,0.015075913633936011,-0.0879530022125583,0.9539330128938737
1539131045033459,0.009582665751125319,-0.08661020828564903,0.9627222095063708
1539131045049442,0.013977264057373873,-0.09381246662088971,0.9619897764553293
1539131045065425,0.01361104753185316,-0.10724040588998252,0.9632104982070651
1539131045081409,0.013488975356679589,-0.11419851987487606,0.9639429312581065
1539131045097392,0.013855191882200302,-0.11163500419623107,0.9671168078126193
1539131045113375,0.014587624933241727,-0.10125886930647754,0.9662623025864043
1539131045129358,0.007873655298695326,-0.09600976577401399,0.9608911268787672
1539131045145341,0.011657892729076025,-0.09918364232852683,0.9577172503242544
1539131045161324,0.01483176928358887,-0.10443274586099038,0.9582055390249486
1539131045177307,0.015808346684977437,-0.09686427100022899,0.9505149919890137
1539131045193290,0.018249790188448856,-0.09015030136568258,0.9481956206607158
1539131045209273,0.015320057984283153,-0.094300755321584,0.9532005798428322
1539131045225257,0.015320057984283153,-0.1115129320210575,0.950148775463493
1539131045241240,0.015075913633936011,-0.12372014953841459,0.9436789501792937
1539131045257141,0.007751583123521755,-0.11346608682383463,0.9408712901503016
1539131045273124,0.001159685664148924,-0.10821698329137108,0.9483176928358894
1539131045289107,-0.0018921187151903496,-0.11017013809414822,0.9561303120469979
1539131045305090,0.0060425726710917615,-0.12042420080872818,0.9597924773022051
1539131045321073,0.010070954451819603,-0.12921339742122528,0.9479514763103687
1539131045337056,0.011291676203555312,-0.13678187228198668,0.9395284962233923
1539131045353039,0.007873655298695326,-0.13580529488059812,0.9457541771572444
1539131045369022,0.008850232700083893,-0.13018997482261385,0.9550316624704358
1539131045385006,0.007263294422827471,-0.12091248950942246,0.9447775997558558
1539131045400989,0.007629510948348184,-0.1068741893644618,0.9456321049820708
1539131045416972,0.00457770656900891,-0.10455481803616395,0.9533226520180058
1539131045432955,0.008606088349736751,-0.1165178912031739,0.9561303120469979
1539131045448938,0.004943923094529623,-0.12982375829709314,0.9513694972152287
1539131045464921,0.005310139620050336,-0.1337300679026474,0.9469748989089801
1539131045480904,4.272526131074983E-4,-0.12823682001983672,0.9411154345006487
1539131045496887,-0.004333562218661768,-0.11639581902800034,0.9435568780041201
1539131045512870,-0.00457770656900891,-0.10626382848859395,0.9557640955214772
1539131045528854,3.0518043793392735E-4,-0.10553139543755252,0.9669947356374458
1539131045544837,0.0071412222476539,-0.10650797283894109,0.9619897764553293
1539131045560820,0.012634470130464592,-0.11126878767071036,0.9530785076676587
1539131045576782,0.013855191882200302,-0.11432059205004963,0.9485618371862365
1539131045592764,0.006408789196612474,-0.10894941634241251,0.9578393224994279
1539131045608747,0.008728160524910322,-0.10199130235751896,0.9672388799877929
1539131045624730,0.00982681010147246,-0.10406652933546967,0.9679713130388343
1539131045640712,0.020569161516746703,-0.11297779812314035,0.9684596017395286
1539131045656695,0.015197985809109582,-0.10846112764171822,0.9608911268787672
1539131045672678,0.02264438849469741,-0.09954985885404755,0.9606469825284201
1539131045688660,0.021911955443655984,-0.09759670405127041,0.9665064469367515
1539131045704643,0.15045395590142707,-0.19208056763561476,0.9835965514610514
1539131045720626,-0.020813305867093845,-0.09857328145265898,0.9827420462348364
1539131045736608,-0.06610208285648911,-0.11627374685282676,0.9607690547035936
1539131045752591,0.017151140611886717,-0.05951018539711583,0.9372091248950944
1539131045768573,0.06256198977645511,-0.08868543526359973,0.950148775463493
1539131045784556,-0.03668268863965807,-0.1585107194628823,0.9773708705271993
1539131045800539,0.0038452735179674846,-0.15777828641184088,0.9372091248950944
1539131045816521,0.014465552758068156,-0.17767605096513295,0.9591821164263372
1539131045832504,0.017273212787060288,-0.16180666819256873,0.9622339208056765
1539131045848487,0.019592584115358136,-0.1266498817425803,0.9485618371862365
1539131045864469,0.020935378042267416,-0.09198138399328615,0.9438010223544673
1539131045880452,0.019226367589837423,-0.08099488822766476,0.9529564354924851
1539131045896423,0.016784924086366004,-0.10113679713130397,0.9699244678416115
1539131045912406,0.02020294499122599,-0.11944762340733961,0.9646753643091479
1539131045928388,0.017273212787060288,-0.12225528343633174,0.9473411154345008
1539131045944371,0.0042114900434881974,-0.11712825207904176,0.9396505683985659
1539131045960353,-6.103608758678547E-5,-0.1123674372472725,0.9363546196688795
1539131045976336,-0.010559243152513886,-0.11517509727626463,0.9445334554055087
1539131045992319,9.15541313801782E-4,-0.12310978866254674,0.9489280537117573
1539131046008301,0.0020141908903639205,-0.14142061493858238,0.951003280689708
1539131046024284,0.010193026626993174,-0.16302738994430443,0.9553978789959565
1539131046040267,0.02264438849469741,-0.18829633020523406,0.9616235599298086
1539131046056249,0.024475471122300974,-0.17315938048371082,0.9590600442511636
1539131046072232,0.04315251392385733,-0.1359273670557717,0.9395284962233923
1539131046088214,0.05926604104676869,-0.08441290913252475,0.9239032578011752
1539131046104197,0.011413748378728883,-0.08697642481116974,0.9556420233463037
1539131046120180,0.032288090333409514,-0.06964217593652267,0.9795681696803236
1539131046136162,0.04339665827420447,-0.07647821774624264,0.9740749217975129
1539131046152145,0.02642862592507811,-0.07855344472419334,0.9341573205157552
1539131046168128,0.013855191882200302,-0.10150301365682468,0.9124284733348595
1539131046184110,0.004333562218661768,-0.13116655222400242,0.9198748760204474
1539131046200093,-0.0038452735179674846,-0.14203097581445023,0.9507591363393608
1539131046216034,0.014465552758068156,-0.127870603494316,0.9647974364843215
1539131046232016,0.017151140611886717,-0.10955977721828036,0.9553978789959565
1539131046247999,0.01898222323949028,-0.10345616845960182,0.9363546196688795
1539131046263981,0.024719615472648115,-0.11322194247348749,0.9276874952315559
1539131046279964,0.021179522392614558,-0.132143129625391,0.9412375066758223
1539131046295947,0.025940337224383825,-0.14581521324483093,0.9580834668497751
1539131046311929,0.020813305867093845,-0.14740215152208735,0.966628519111925
1539131046327912,0.013488975356679589,-0.1560692759594109,0.9729762722209507
1539131046343895,0.00836194399938961,-0.16937514305333012,0.9577172503242544
1539131046359877,0.015564202334630295,-0.18439002059967935,0.9453879606317237
1539131046375860,0.026062409399557396,-0.1850003814755472,0.939040207522698
1539131046391842,0.03350881208514522,-0.162294956893263,0.9446555275806823
1539131046407825,0.03314259555962451,-0.11200122072175178,0.9521019302662701
1539131046423808,0.009460593575951748,-0.0905165178912033,0.9434348058289466
1539131046439790,0.004821850919356052,-0.09613183794918756,0.9340352483405816
1539131046455773,-0.00982681010147246,-0.12298771648737317,0.9358663309681852
1539131046471756,-0.017273212787060288,-0.161440451667048,0.9562523842221715
1539131046487738,-0.025574120698863112,-0.19000534065766406,0.9677271686884872
1539131046503721,-0.024475471122300974,-0.19391165026321833,0.9759060044251164
1539131046519703,-0.019836728465705278,-0.16717784390020585,0.9528343633173115
1539131046535644,-0.017639429312581,-0.13946746013580524,0.9429465171282523
1539131046551626,-0.012634470130464592,-0.126161593041886,0.9464866102082858
1539131046567608,-0.015930418860151008,-0.13202105745021742,0.9712672617685207
1539131046583591,-0.018493934538795997,-0.14117647058823524,0.9844510566872664
1539131046599573,-0.012878614480811734,-0.14618142977035165,0.9628442816815443
1539131046615555,-0.0060425726710917615,-0.14581521324483093,0.9384298466468302
1539131046631537,-0.0023804074158846333,-0.1400778210116731,0.9328145265888459
1539131046647519,-0.006530861371786045,-0.13470664530403598,0.9464866102082858
1539131046663501,-0.00848401617456318,-0.130434119172961,0.9651636530098422
1539131046679484,-0.010681315327687457,-0.1362935835812924,0.9635767147325858
1539131046695466,-0.011169604028381741,-0.14654764629587236,0.9446555275806823
1539131046711448,-0.005554283970397478,-0.15399404898146019,0.9258564126039524
1539131046727430,-0.0040894178683146265,-0.1585107194628823,0.9309834439612423
1539131046743412,0.0021362630655374915,-0.15326161593041876,0.9464866102082858
1539131046759394,-0.0012817578393224949,-0.14154268711375595,0.9619897764553293
1539131046775376,0.0040894178683146265,-0.13763637750820168,0.9676050965133136
1539131046791359,0.009948882276646032,-0.13983367666132596,0.9536888685435265
1539131046807341,0.008850232700083893,-0.1426413366903181,0.942458228427558
1539131046823323,0.007995727473868897,-0.15338368810559233,0.9429465171282523
1539131046839305,0.0060425726710917615,-0.16327153429465158,0.9605249103532465
1539131046855285,0.008606088349736751,-0.15753414206149374,0.9632104982070651
1539131046871267,0.009582665751125319,-0.14532692454413665,0.9474631876096744
1539131046887250,0.00457770656900891,-0.13580529488059812,0.9378194857709623
1539131046903232,0.0039673456931410556,-0.14166475928892952,0.9466086823834594
1539131046919214,0.005676356145571049,-0.1455710688944838,0.9589379720759901
1539131046935196,0.00579842832074462,-0.14312962539101237,0.9615014877546351
1539131046951178,0.006897077897306758,-0.13104448004882885,0.951857785915923
1539131046967160,0.007019150072480329,-0.12823682001983672,0.9446555275806823
1539131046983142,0.002746623941405346,-0.13409628442816812,0.9461203936827651
1539131046999125,0.005920500495918191,-0.1464255741206988,0.9536888685435265
1539131047015107,0.006530861371786045,-0.15008773937590592,0.9547875181200887
1539131047031089,0.006897077897306758,-0.1467917906462195,0.9490501258869308
1539131047047071,0.001037613488975353,-0.1333638513771267,0.9439230945296408
1539131047063053,-0.0015259021896696368,-0.12518501564049744,0.9453879606317237
1539131047079035,5.493247882810692E-4,-0.12884718089570457,0.9513694972152287
1539131047095018,0.005065995269703194,-0.13824673838406953,0.9477073319600215
1539131047111000,0.008972304875257464,-0.14312962539101237,0.9445334554055087
1539131047126982,0.011291676203555312,-0.13653772793163954,0.9436789501792937
1539131047142964,0.009216449225604606,-0.12970168612191957,0.9546654459449151
1539131047158946,0.01495384145876244,-0.12433051041428245,0.9608911268787672
1539131047174896,0.00848401617456318,-0.12005798428320746,0.9630884260318915
1539131047190878,0.007629510948348184,-0.12323186083772031,0.9627222095063708
1539131047206860,0.004333562218661768,-0.13641565575646597,0.9613794155794615
1539131047222842,-0.006897077897306758,-0.15045395590142663,0.9589379720759901
1539131047238824,-7.934691386282111E-4,-0.15399404898146019,0.9502708476386665
1539131047254807,-0.00323491264209963,-0.14898908979934378,0.945021744106203
1539131047270789,0.0026245517662317752,-0.13531700617990383,0.9495384145876251
1539131047286771,0.00970473792629889,-0.11725032425421533,0.9567406729228658
1539131047302753,0.017883573662928143,-0.10003814755474183,0.9685816739147022
1539131047318735,0.019470511940184565,-0.0888075074387733,0.9662623025864043
1539131047334717,0.015808346684977437,-0.08783093003738474,0.9542992294193944
1539131047350700,0.01495384145876244,-0.09967193102922112,0.9466086823834594
1539131047366682,0.015075913633936011,-0.1135881589990082,0.9436789501792937
1539131047382664,0.019104295414663852,-0.11676203555352105,0.9500267032883194
1539131047398646,0.024963759822995257,-0.10711833371480894,0.9419699397268637
1539131047414628,0.00982681010147246,-0.10113679713130397,0.9468528267338066
1539131047430610,-0.001159685664148924,-0.10589761196307323,0.9617456321049822
1539131047446592,-0.020813305867093845,-0.11297779812314035,0.97944609750515
1539131047462575,-0.015442130159456724,-0.1123674372472725,0.98628213931487
1539131047478557,-0.003479056992446772,-0.10894941634241251,0.978591592278935
1539131047494506,0.0037232013427939137,-0.10516517891203181,0.9578393224994279
1539131047510489,6.103608758678547E-5,-0.10418860151064324,0.9632104982070651
1539131047526471,0.006652933546959616,-0.10199130235751896,0.9754177157244222
1539131047542453,0.004821850919356052,-0.09796292057679112,0.9870145723659114
1539131047558435,0.02130159456778813,-0.08770885786221116,1.0045929655909056
1539131047574417,0.02276646066987098,-0.07684443427176335,1.0210727092393377
1539131047590399,0.020691233691920274,-0.0812390325780119,1.0531776913099868
1539131047606382,0.013244831006332447,-0.10638590066376752,1.0832074464026853
1539131047622364,0.0214236667429617,-0.11712825207904176,1.1133592736705573
1539131047638346,0.03741512169069949,-0.13849088273441668,1.1651178759441523
1539131047654328,0.04364080262455161,0.055848020141908705,1.2376287479972534
1539131047670310,0.041443503471427334,-0.04193179217212162,1.3420004577706566
1539131047686292,0.04632639047837017,-0.11676203555352105,1.3824063477531094
1539131047702274,0.05096513313496587,-0.17840848401617437,1.3991302357518887
1539131047718257,0.06439307240405867,-0.22882429236285962,1.3957122148470287
1539131047734239,0.06207370107576082,-0.23041123064011604,1.3289387350270845
1539131047750221,0.0025024795910582043,-0.22198825055313964,1.2467841611352712
1539131047766203,-0.014587624933241727,-0.19794003204394617,1.1762264438849472
1539131047782185,-0.017639429312581,-0.15008773937590592,1.0667277027542532
1539131047798167,-0.048035400930800165,-0.10211337453269254,0.9291523613336388
1539131047814148,-0.11834897383077747,-0.04339665827420447,0.7978027008468755
1539131047830130,-0.1392233157854581,-0.018371862363622427,0.6945296406500345
1539131047846112,-0.16534676127260228,0.009948882276646032,0.5917448691538869
1539131047862094,-0.20099183642328544,0.04071107042038591,0.4874952315556573
1539131047878076,-0.24261844815747313,0.06781109330891866,0.39545281147478484
1539131047894058,-0.2632486457618066,0.07879758907454004,0.33319600213626277
1539131047910040,-0.24628061341268026,0.13116655222400286,0.26178377965972377
1539131047926023,-0.2515297169451438,0.15680170901045276,0.2133211261158161
1539131047942005,-0.2296787975890746,0.241519798580911,0.12701609826810145
1539131047957987,-0.20440985732814543,0.28278019378957797,0.022400244144350268
1539131047973969,-0.15240711070420376,0.3377126726176849,-0.12188906691081103
1539131047989951,-0.08844129091325259,0.2952315556572822,-0.26849774929427017
1539131048005933,0.040222781719691625,0.3279468986037992,-0.48908216983291375
1539131048021916,0.16119630731670131,0.33197528038452706,-0.7135728999771116
1539131048037898,0.25983062485694663,0.4271915770199133,-0.8491950865949494
1539131048053880,0.3339284351873042,0.24090943770504314,-0.5620813305867092
1539131048069862,0.5042191195544365,-0.07696650644693692,0.028137636377508102
1539131048085844,1.387655451285573,-3.9998779278248264,4.0
1539131048101826,-0.6738994430457006,-0.9470969710841537,3.5810482948043028
1539131048117808,-0.06659037155718339,0.7272449835965515,0.5930876630807962
1539131048133728,-0.21832608529793252,-0.09100480659189758,0.9007095445181967
1539131048149709,-0.022156099794003126,0.2229648279545282,0.8334477759975583
1539131048165691,-0.028503852903028815,0.08856336308842572,0.9702906843671322
1539131048181673,-0.01226825360494388,0.13580529488059856,0.9838406958113985
1539131048197654,0.004455634393835339,0.16021972991531275,0.945021744106203
1539131048213636,0.018127718013275285,0.21258869306477468,0.8291752498664833
1539131048229618,-0.0753795681696805,0.22101167315175108,0.722850385290303
1539131048245599,-0.1220111390859846,0.2587319752803845,0.6166475928892954
1539131048261581,-0.1690089265278094,0.25214007782101167,0.582345311665522
1539131048277563,-0.1749904631113144,0.2570229648279545,0.5434042877851528
1539131048293544,-0.1749904631113144,0.22870222018768604,0.5493858243686578
1539131048309526,-0.16058594644083302,0.1826810101472498,0.6137178606851297
1539131048325508,-0.1400778210116731,0.1537499046311135,0.6988021667811095
1539131048341489,-0.1165178912031739,0.12603952086671288,0.7847409781033035
1539131048357471,-0.1115129320210575,0.13543907835507785,0.8462653543907832
1539131048373453,-0.11761654077973605,0.1389791714351114,0.9026626993209739
1539131048389434,-0.10809491111619751,0.1318989852750443,0.9551537346456094
1539131048405416,-0.10919356069275965,0.13629358358129284,0.9844510566872664
1539131048421398,-0.10919356069275965,0.12091248950942202,1.0109407186999313
1539131048437379,-0.10174715800717182,0.12359807736324058,1.0166781109330891
1539131048453338,-0.1001602197299154,0.13141069657435,1.0203402761882963
1539131048469320,-0.11102464332036321,0.13507286182955713,1.0253452353704127
1539131048485302,-0.12323186083772031,0.12921339742122573,1.034622720683604
1539131048501283,-0.10321202410925467,0.11700617990386775,1.0495155260547797
1539131048517265,-0.09393453879606328,0.11627374685282632,1.0523231860837718
1539131048533247,-0.08538948653391332,0.12127870603494273,1.0349889372091248
1539131048549228,-0.08258182650492119,0.12884718089570502,1.0143587396047913
1539131048565210,-0.08416876478217761,0.13482871747921,0.9900663767452507
1539131048581192,-0.09295796139467472,0.14666971847104637,0.9755397878995957
1539131048597173,-0.08953994048981473,0.1528953994048985,0.9564965285725187
1539131048613155,-0.08026245517662334,0.16156252384222203,0.928786144808118
1539131048629137,-0.08416876478217761,0.16229495689326345,0.9132829785610745
1539131048645118,-0.08307011520561547,0.1553368429083699,0.9171892881666288
1539131048661100,-0.06964217593652267,0.14178683146410354,0.9242694743266959
1539131048677082,-0.06060883497367797,0.1453269245441371,0.9237811856260016
1539131048693063,-0.055848020141908705,0.14520485236896352,0.9171892881666288
1539131048709045,-0.05865568017090084,0.14874494544899708,0.904615854123751
1539131048725027,-0.04852368963149445,0.12970168612192,0.9084000915541317
1539131048741008,-0.04376287479972518,0.11883726253147131,0.9115739681086446
1539131048756990,-0.030945296406500233,0.10064850843060924,0.9143816281376367
1539131048772979,-0.030090791180285237,0.11126878767070991,0.911451895933471
1539131048788961,-0.02789349202716096,0.12469672693980272,0.9806668192568857
1539131048804943,-0.03826962691691449,0.14764629587243494,1.086137178606851
1539131048820924,-0.05218585488670158,0.16656748302433844,1.1537651636530102
1539131048836906,-0.062317845426107965,0.1671778439002063,1.125932707713436
1539131048852888,-0.05279621576256943,0.16192874036774274,1.0281528953994048
1539131048868869,-0.04388494697489875,0.15484855420767563,0.9186541542687117
1539131048884851,-0.05011062790875087,0.14630350194552566,0.8491950865949489
1539131048900833,-0.06854352635996053,0.13287556267643286,0.8347905699244675
1539131048916814,-0.07025253681239052,0.11981383993285988,0.8754406042572676
1539131048932796,-0.05889982452124798,0.11029221026932134,0.9613794155794615
1539131048948778,-0.05780117494468584,0.11749446860456203,1.033524071107042
1539131048964759,-0.054383154039825854,0.13934538796063212,1.0428015564202333
1539131048980741,-0.053772793163958,0.16095216296635417,0.9958037689784085
1539131048996723,-0.038757915617608774,0.17401388570992626,0.9325703822384988
1539131049012704,-0.0470588235294116,0.16766613260090057,0.9016861219195853
1539131049028686,-0.04901197833218873,0.1558251316090642,0.8970473792629896
1539131049044668,-0.04608224612802303,0.1456931410696578,0.9297627222095066
1539131049060649,-0.04339665827420447,0.13836881055924355,0.9694361791409172
1539131049076631,-0.0394903486686502,0.1436179140917071,0.9763942931258107
1539131049092590,-0.046570534828717314,0.1532616159304192,0.954421301594568
1539131049108572,-0.054383154039825854,0.16058594644083346,0.9309834439612423
1539131049124553,-0.061097123674372256,0.15728999771114704,0.9257343404287788
1539131049140535,-0.05767910276951227,0.1503318837262535,0.9442893110551616
1539131049156517,-0.05609216449225585,0.13995574883649997,0.9629663538567179
1539131049172498,-0.062195773250934394,0.12872510872053144,0.966628519111925
1539131049188480,-0.06146334019989297,0.13006790264744073,0.954421301594568
1539131049204462,-0.06207370107576082,0.13238727397573857,0.9385519188220037
1539131049220443,-0.058533607995727266,0.13885709925993783,0.9369649805447473
1539131049236425,-0.06024261844815726,0.14178683146410354,0.9502708476386665
1539131049252407,-0.05023270008392444,0.14459449149309567,0.9706569008926529
1539131049268388,-0.0470588235294116,0.15069810025177421,0.97261005569543
1539131049284370,-0.05218585488670158,0.15167467765316278,0.9539330128938737
1539131049300352,-0.06170748455024011,0.14813458457312922,0.947585259784848
1539131049316333,-0.05780117494468584,0.14117647058823568,0.9497825589379723
1539131049332315,-0.05011062790875087,0.13458457312886285,0.9566186007476922
1539131049348297,-0.04644846265354374,0.13263141832608571,0.9540550850690472
1539131049364278,-0.04876783398184159,0.1281147478446636,0.9542992294193944
1539131049380260,-0.04473945220111375,0.132265201800565,0.9496604867627987
1539131049396242,-0.045471885252155175,0.13849088273441712,0.9495384145876251
1539131049412201,-0.04864576180666802,0.14312962539101282,0.9473411154345008
1539131049428182,-0.047913328755626594,0.14264133669031853,0.9452658884565501
1539131049444164,-0.04693675135423803,0.13714808880750784,0.9428244449530787
1539131049460146,-0.04888990615701516,0.13617151140611927,0.9452658884565501
1539131049476127,-0.05401693751430514,0.13678187228198713,0.9497825589379723
1539131049492109,-0.04730296787975874,0.14422827496757495,0.9542992294193944
1539131049508091,-0.049256122682535874,0.14752422369726137,0.9528343633173115
1539131049524072,-0.05413900968947871,0.14752422369726137,0.9472190432593273
1539131049540054,-0.05535973144121442,0.1381246662088964,0.952712291142138
1539131049556036,-0.058533607995727266,0.13336385137712714,0.9539330128938737
1539131049572017,-0.0575570305943387,0.13141069657435,0.9545433737697415
1539131049587999,-0.05401693751430514,0.13202105745021786,0.9532005798428322
1539131049603981,-0.052063782711528006,0.1310444800488293,0.9463645380331123
1539131049619962,-0.052063782711528006,0.13360799572747428,0.9389181353475244
1539131049635944,-0.04901197833218873,0.13665980010681356,0.9386739909971773
1539131049651926,-0.047913328755626594,0.13971160448615283,0.9434348058289466
1539131049667907,-0.04522774090180803,0.13873502708476426,0.950148775463493
1539131049683889,-0.04473945220111375,0.13421835660334214,0.9558861676966508
1539131049699871,-0.048035400930800165,0.13299763485160643,0.9569848172732129
1539131049715852,-0.051819638361180864,0.13531700617990428,0.9594262607766844
1539131049731842,-0.05133134966048658,0.13873502708476426,0.9619897764553293
1539131049747823,-0.049500267032883016,0.13995574883649997,0.9597924773022051
1539131049763805,-0.05157549401083372,0.14081025406271497,0.9606469825284201
1539131049779787,-0.05658045319295013,0.13763637750820212,0.9584496833752958
1539131049795768,-0.0631723506523234,0.13409628442816857,0.9530785076676587
1539131049811750,-0.06512550545510054,0.13080033569848215,0.9505149919890137
1539131049827732,-0.05682459754329727,0.13446250095368928,0.9483176928358894
1539131049843713,-0.04962233920805659,0.1377584496833757,0.9517357137407494
1539131049859695,-0.045471885252155175,0.14300755321583924,0.9500267032883194
1539131049875677,-0.04986648355840373,0.14288548104066567,0.9447775997558558
1539131049891658,-0.052918287937743,0.1439841306172278,0.9463645380331123
1539131049907640,-0.05255207141222229,0.14007782101167354,0.9489280537117573
1539131049923622,-0.04827954528114731,0.13714808880750784,0.9567406729228658
1539131049939603,-0.046692607003890885,0.13287556267643286,0.9627222095063708
1539131049955585,-0.04339665827420447,0.13763637750820212,0.9567406729228658
1539131049971567,-0.0499885557335773,0.13958953231097926,0.9425803006027316
1539131049987548,-0.048157473105973736,0.13824673838406998,0.935622186617838
1539131050003530,-0.046814679179064456,0.13324177920195357,0.9439230945296408
1539131050019512,-0.041687647821774476,0.1289692530708786,0.9534447241931794
1539131050035493,-0.03814755474174092,0.13421835660334214,0.9579613946746015
1539131050051452,-0.04180971999694805,0.14386205844205424,0.9511253528648815
1539131050067434,-0.044129091325245895,0.1465476462958728,0.948439765011063
1539131050083416,-0.0424200808728159,0.13971160448615283,0.9488059815365837
1539131050099397,-0.04742504005493231,0.13482871747921,0.9474631876096744
1539131050115379,-0.05011062790875087,0.13238727397573857,0.9578393224994279
1539131050131361,-0.053284504463263715,0.13092240787365572,0.9547875181200887
1539131050147342,-0.0567025253681237,0.13067826352330858,0.9519798580910965
1539131050163324,-0.05523765926604085,0.13495078965438356,0.9461203936827651
1539131050179306,-0.05633630884260299,0.1398336766613264,0.9383077744716566
1539131050195287,-0.05108720531013944,0.14581521324483138,0.9408712901503016
1539131050211269,-0.05157549401083372,0.15045395590142707,0.9466086823834594
1539131050227251,-0.04742504005493231,0.1477683680476085,0.9541771572442208
1539131050243232,-0.04473945220111375,0.14178683146410354,0.955275806820783
1539131050259214,-0.04132143129625376,0.1377584496833757,0.9536888685435265
1539131050275196,-0.04217593652246876,0.14264133669031853,0.9423361562523844
1539131050291177,-0.042908369573510186,0.15130846112764207,0.931349660486763
1539131050307159,-0.048157473105973736,0.15716792553597347,0.9414816510261694
1539131050323141,-0.048035400930800165,0.15301747158007206,0.9547875181200887
1539131050339122,-0.04876783398184159,0.14373998626688067,0.9596704051270315
1539131050355104,-0.04644846265354374,0.13788052185854927,0.9571068894483865
1539131050371063,-0.04571602960250232,0.14093232623788854,0.9453879606317237
1539131050387045,-0.044007019150072324,0.1494773785000385,0.9402609292744337
1539131050403026,-0.04827954528114731,0.1582665751125356,0.9436789501792937
1539131050419008,-0.04510566872663446,0.16144045166704846,0.9517357137407494
1539131050434990,-0.05096513313496587,0.1532616159304192,0.9549095902952622
1539131050450971,-0.05682459754329727,0.14215304798962425,0.9567406729228658
1539131050466953,-0.05401693751430514,0.12884718089570502,0.9580834668497751
1539131050482935,-0.05267414358739586,0.123476005188067,0.9602807660028994
1539131050498916,-0.04754711223010588,0.1293354695963993,0.9564965285725187
1539131050514898,-0.04437323567559304,0.14581521324483138,0.955275806820783
1539131050530880,-0.04229800869764233,0.16119630731670131,0.9490501258869308
1539131050546861,-0.04376287479972518,0.16266117341878417,0.9477073319600215
1539131050562843,-0.04644846265354374,0.15008773937590636,0.9479514763103687
1539131050578825,-0.04229800869764233,0.13665980010681356,0.9488059815365837
1539131050594806,-0.04119935912108019,0.13080033569848215,0.9478294041351951
1539131050610788,-0.04083314259555948,0.13934538796063212,0.9459983215075916
1539131050626770,-0.04193179217212162,0.14642557412069923,0.9506370641641873
1539131050642751,-0.04364080262455161,0.15020981155107993,0.9512474250400551
1539131050658733,-0.04510566872663446,0.1486228732738235,0.952712291142138
1539131050674715,-0.041565575646600905,0.15277332722972492,0.9497825589379723
1539131050690673,-0.04339665827420447,0.15362783245593992,0.9545433737697415
1539131050706655,-0.040222781719691625,0.1544823376821549,0.9567406729228658
1539131050722636,-0.03924620431830306,0.15472648203250206,0.9589379720759901
1539131050738617,-0.041565575646600905,0.15228503852903064,0.953566796368353
1539131050754598,-0.043030441748683756,0.14703593499656709,0.9466086823834594
1539131050770579,-0.04486152437628732,0.13995574883649997,0.9413595788509959
1539131050786561,-0.045593957427328746,0.13836881055924355,0.9419699397268637
1539131050802542,-0.045593957427328746,0.13751430533302855,0.9411154345006487
1539131050818523,-0.04437323567559304,0.13958953231097926,0.9408712901503016
1539131050834504,-0.0470588235294116,0.14007782101167354,0.9468528267338066
1539131050850485,-0.0462043183031966,0.14056610971236783,0.9466086823834594
1539131050866467,-0.0462043183031966,0.13971160448615283,0.9474631876096744
1539131050882448,-0.04583810177767589,0.13702601663233427,0.9378194857709623
1539131050898429,-0.045349813076981604,0.13910124361028497,0.9372091248950944
1539131050914410,-0.04119935912108019,0.14471656366826924,0.940749217975128
1539131050930391,-0.035217822537575216,0.1456931410696578,0.9536888685435265
1539131050946373,-0.031067368581673804,0.14593728542000495,0.9574731059739072
1539131050962354,-0.02655069810025168,0.14312962539101282,0.9555199511711301
1539131050978335,-0.0214236667429617,0.1474021515220878,0.953566796368353
1539131050994316,-0.02020294499122599,0.15252918287937778,0.9479514763103687
1539131051010315,-0.02911421377889667,0.1549706263828492,0.9438010223544673
1539131051026296,-0.04632639047837017,0.1415426871137564,0.9374532692454416
1539131051042277,-0.05267414358739586,0.11529716945143775,0.9342793926909287
1539131051058258,-0.056946669718470844,0.09967193102922067,0.9362325474937059
1539131051074239,-0.05609216449225585,0.10052643625543567,0.948439765011063
1539131051090221,-0.05877775234607441,0.11236743724727205,0.9633325703822386
1539131051106202,-0.05267414358739586,0.12713817044327502,0.970901045243
1539131051122183,-0.04766918440527945,0.1410543984130621,0.970901045243
1539131051138164,-0.045471885252155175,0.1515526054779892,0.9663843747615779
1539131051154145,-0.03814755474174092,0.15082017242694779,0.9578393224994279
1539131051170127,-0.0386358434424352,0.14630350194552566,0.9541771572442208
1539131051186108,-0.04107728694590662,0.14203097581445068,0.9556420233463037
1539131051202089,-0.03936827649347663,0.14081025406271497,0.9579613946746015
1539131051218070,-0.04083314259555948,0.13958953231097926,0.9569848172732129
1539131051234051,-0.04449530785076661,0.14544899671931066,0.949294270237278
1539131051250033,-0.0462043183031966,0.1448386358434428,0.9522240024414437
1539131051266014,-0.04364080262455161,0.133974212252995,0.9539330128938737
1539131051281995,-0.04840161745632088,0.12616159304188646,0.9499046311131458
1539131051297976,-0.05242999923704872,0.12542915999084503,0.9459983215075916
1539131051313957,-0.05633630884260299,0.13177691309987072,0.944167238879988
1539131051329925,-0.050598916609445155,0.13336385137712714,0.9438010223544673
1539131051345906,-0.04986648355840373,0.13202105745021786,0.9427023727779051
1539131051361888,-0.049500267032883016,0.13287556267643286,0.9459983215075916
1539131051377869,-0.03814755474174092,0.135683222705425,0.945021744106203
1539131051393850,-0.024597543297474544,0.1369039444571607,0.9435568780041201
1539131051409831,-0.02532997634851597,0.14044403753719426,0.9444113832303351
1539131051425812,-0.01886015106431671,0.1439841306172278,0.945876249332418
1539131051441794,-0.020935378042267416,0.14801251239795565,0.9511253528648815
1539131051457775,-0.024475471122300974,0.1486228732738235,0.9580834668497751
1539131051473756,-0.032532234683756656,0.14703593499656709,0.9583276112001222
1539131051489737,-0.03717097734035235,0.1386129549095907,0.955275806820783
1539131051505718,-0.036438544289310926,0.13385214007782142,0.9604028381780729
1539131051521700,-0.028259708552681673,0.1360494392309457,0.9707789730678265
1539131051537681,-0.024475471122300974,0.15143053330281564,0.9754177157244222
1539131051553662,-0.02545204852368954,0.15814450293736204,0.9737087052719922
1539131051569643,-0.029968719005111666,0.15814450293736204,0.964919508659495
1539131051585624,-0.03472953383688093,0.15228503852903064,0.9580834668497751
1539131051601606,-0.03533989471274879,0.1432516975661864,0.9508812085145344
1539131051617587,-0.036438544289310926,0.13116655222400286,0.946730754558633
1539131051633568,-0.03460746166170736,0.12652780956740717,0.947585259784848
1539131051649536,-0.03216601815823594,0.13263141832608571,0.9473411154345008
1539131051665517,-0.035095750362401645,0.1423971923399714,0.9448996719310294
1539131051681498,-0.03265430685893023,0.14422827496757495,0.9419699397268637
1539131051697479,-0.03070115205615309,0.13653772793163999,0.9418478675516901
1539131051713461,-0.023376821545738835,0.13617151140611927,0.9422140840772109
1539131051729442,-0.022156099794003126,0.1419089036392771,0.9489280537117573
1539131051745423,-0.021667811093308842,0.14984359502555922,0.9522240024414437
1539131051761404,-0.019836728465705278,0.15130846112764207,0.9500267032883194
1539131051777385,-0.025085831998168828,0.14752422369726137,0.9464866102082858
1539131051793367,-0.027649347676813818,0.1406881818875414,0.9446555275806823
1539131051809348,-0.023376821545738835,0.13543907835507785,0.952712291142138
1539131051825329,-0.023620965896085977,0.1448386358434428,0.9499046311131458
1539131051841310,-0.02264438849469741,0.15460440985732848,0.9536888685435265
1539131051857291,-0.022156099794003126,0.1524071107042042,0.9588158999008165
1539131051873273,-0.019104295414663852,0.1482566567483028,0.9580834668497751
1539131051889254,-0.015320057984283153,0.14288548104066567,0.9523460746166172
1539131051905235,-0.018127718013275285,0.14093232623788854,0.9463645380331123
1539131051921216,-0.017639429312581,0.1410543984130621,0.9463645380331123
1539131051937197,-0.02020294499122599,0.13739223315785498,0.9523460746166172
1539131051953179,-0.023132677195391693,0.135683222705425,0.9517357137407494
1539131051969177,-0.027161058976119534,0.13556115053025142,0.9408712901503016
1539131051985158,-0.028747997253375956,0.1334859235523007,0.9352559700923173
1539131052001139,-0.02655069810025168,0.1372701609826814,0.945876249332418
1539131052017120,-0.019592584115358136,0.14251926451514496,0.9485618371862365
1539131052033102,-0.017639429312581,0.14508278019378995,0.9574731059739072
1539131052049083,-0.018127718013275285,0.1439841306172278,0.9550316624704358
1539131052065064,-0.020935378042267416,0.14203097581445068,0.9542992294193944
1539131052081045,-0.017273212787060288,0.14129854276340925,0.9624780651560236
1539131052097026,-0.016784924086366004,0.14422827496757495,0.9738307774471657
1539131052113008,-0.014099336232547444,0.1499656672007328,0.9784695201037614
1539131052128989,-0.013977264057373873,0.15057602807660064,0.9773708705271993
1539131052144970,-0.021057450217440987,0.14764629587243494,0.973464560921645
1539131052160951,-0.023254749370565264,0.14129854276340925,0.9650415808346686
1539131052176932,-0.025085831998168828,0.132265201800565,0.9613794155794615
1539131052192914,-0.019714656290531707,0.13409628442816857,0.9541771572442208
1539131052208895,-0.023743038071259548,0.1423971923399714,0.9413595788509959
1539131052224876,-0.027283131151293105,0.14630350194552566,0.9391622796978716
1539131052240857,-0.03045700770580595,0.14337376974135996,0.9412375066758223
1539131052256838,-0.031067368581673804,0.1377584496833757,0.9474631876096744
1539131052272820,-0.027527275501640247,0.1343404287785157,0.9435568780041201
1539131052288787,-0.02264438849469741,0.13153276874952358,0.940749217975128
1539131052304769,-0.019470511940184565,0.1343404287785157,0.9418478675516901
1539131052320750,-0.018127718013275285,0.13617151140611927,0.9463645380331123
1539131052336731,-0.017761501487754572,0.13995574883649997,0.9564965285725187
1539131052352712,-0.017883573662928143,0.1423971923399714,0.9606469825284201
1539131052368693,-0.01898222323949028,0.14142061493858282,0.9553978789959565
1539131052384675,-0.01898222323949028,0.13849088273441712,0.9562523842221715
1539131052400656,-0.024719615472648115,0.13592736705577213,0.9573510337987337
1539131052416637,-0.027161058976119534,0.13495078965438356,0.9600366216525522
1539131052432618,-0.03070115205615309,0.13006790264744073,0.9566186007476922
1539131052448599,-0.03265430685893023,0.1272602426184486,0.948439765011063
1539131052464581,-0.0357061112382695,0.12408636606393486,0.9508812085145344
1539131052480562,-0.03741512169069949,0.1276264591439693,0.9545433737697415
1539131052496543,-0.03558403906309593,0.13214312962539143,0.9594262607766844
1539131052512524,-0.03668268863965807,0.13910124361028497,0.9541771572442208
1539131052528505,-0.03350881208514522,0.1394674601358057,0.9588158999008165
1539131052544487,-0.038757915617608774,0.13714808880750784,0.9582055390249486
1539131052560468,-0.03973449301899734,0.13128862439917643,0.9589379720759901
1539131052576449,-0.03302052338445094,0.1251850156404979,0.9562523842221715
1539131052592430,-0.028137636377508102,0.12188906691081058,0.9442893110551616
1539131052608398,-0.02911421377889667,0.123476005188067,0.9403830014496073
1539131052624379,-0.027283131151293105,0.1310444800488293,0.940749217975128
1539131052640360,-0.02667277027542525,0.13360799572747428,0.9361104753185323
1539131052656342,-0.027283131151293105,0.1369039444571607,0.9395284962233923
1539131052672323,-0.028259708552681673,0.133974212252995,0.9444113832303351
1539131052688304,-0.028137636377508102,0.13043411917296144,0.9503929198138401
1539131052704285,-0.028381780727855244,0.12628366521706003,0.951857785915923
1539131052720266,-0.03057907988097952,0.1231097886625463,0.9529564354924851
1539131052736248,-0.027283131151293105,0.12359807736324058,0.9583276112001222
1539131052752229,-0.0289921416037231,0.1301899748226143,0.9550316624704358
1539131052768210,-0.030090791180285237,0.14312962539101282,0.9604028381780729
1539131052784191,-0.03179980163271523,0.1561913481345849,0.9607690547035936
1539131052800172,-0.028747997253375956,0.16437018387121416,0.9624780651560236
1539131052816154,-0.025696192874036683,0.16388189517051988,0.9528343633173115
1539131052832135,-0.02423132677195383,0.15924315251392418,0.950148775463493
1539131052848116,-0.022156099794003126,0.15216296635385707,0.9523460746166172
1539131052864097,-0.023376821545738835,0.14691386282139351,0.9636987869077593
1539131052880078,-0.01861600671396957,0.14593728542000495,0.9591821164263372
1539131052896060,-0.024353398947127403,0.14801251239795565,0.9491721980621044
1539131052912041,-0.024841687647821686,0.1448386358434428,0.9468528267338066
1539131052928039,-0.028747997253375956,0.14081025406271497,0.9500267032883194
1539131052944020,-0.02642862592507811,0.13873502708476426,0.9525902189669644
1539131052960002,-0.023498893720912406,0.14215304798962425,0.952712291142138
1539131052975983,-0.022278171969176697,0.1465476462958728,0.949294270237278
1539131052991964,-0.02276646066987098,0.15167467765316278,0.9392843518730452
1539131053007945,-0.024719615472648115,0.1520408941786835,0.9395284962233923
1539131053023926,-0.027527275501640247,0.14923323414969136,0.949294270237278
1539131053039908,-0.024597543297474544,0.1482566567483028,0.9512474250400551
1539131053055889,-0.020569161516746703,0.14666971847104637,0.9422140840772109
1539131053071870,-0.025940337224383825,0.14081025406271497,0.9397726405737394
1539131053087851,-0.028870069428549527,0.13580529488059856,0.9499046311131458
1539131053103832,-0.038757915617608774,0.13360799572747428,0.9567406729228658
1539131053119814,-0.03985656519417091,0.13678187228198713,0.9500267032883194
1539131053135795,-0.03326466773479808,0.14801251239795565,0.9447775997558558
1539131053151776,-0.02667277027542525,0.1549706263828492,0.9456321049820708
1539131053167757,-0.02276646066987098,0.16058594644083346,0.9513694972152287
1539131053183738,-0.02154573891813527,0.15887693598840347,0.9485618371862365
1539131053199720,-0.023620965896085977,0.15350576028076635,0.9480735484855423
1539131053215701,-0.027649347676813818,0.14691386282139351,0.9502708476386665
1539131053231682,-0.02386511024643312,0.1453269245441371,0.9508812085145344
1539131053247650,-0.02264438849469741,0.14520485236896352,0.9528343633173115
1539131053263631,-0.022278171969176697,0.14496070801861638,0.9561303120469979
1539131053279612,-0.01751735713740743,0.14923323414969136,0.9608911268787672
1539131053295593,-0.01861600671396957,0.15545891508354348,0.9632104982070651
1539131053311575,-0.017273212787060288,0.16400396734569345,0.9557640955214772
1539131053327556,-0.020447089341573133,0.16949721522850414,0.9466086823834594
1539131053343537,-0.017639429312581,0.1680323491264213,0.945876249332418
1539131053359518,-0.015686274509803866,0.16449225604638773,0.9481956206607158
1539131053375499,-0.010559243152513886,0.1599755855649656,0.9457541771572444
1539131053391481,-0.013977264057373873,0.15741206988632062,0.9434348058289466
1539131053407462,-0.0109254596780346,0.1575341420614942,0.9435568780041201
1539131053423443,-0.012756542305638163,0.1604638742656599,0.947585259784848
1539131053439424,-0.02130159456778813,0.15863279163805633,0.9582055390249486
1539131053455405,-0.03265430685893023,0.15777828641184133,0.9608911268787672
1539131053471387,-0.03851377126726163,0.15423819333180777,0.9529564354924851
1539131053487368,-0.032410162508583085,0.15191882200350992,0.9442893110551616
1539131053503349,-0.02423132677195383,0.14459449149309567,0.9413595788509959
1539131053519330,-0.017639429312581,0.14081025406271497,0.9383077744716566
1539131053535311,-0.011291676203555312,0.14984359502555922,0.9411154345006487
1539131053551293,-0.0037232013427939137,0.16498054474708201,0.944167238879988
1539131053567260,0.003112840466926059,0.1814602883955141,0.9463645380331123
1539131053583242,0.010559243152513886,0.18780804150453978,0.9486839093614101
1539131053599223,0.019592584115358136,0.18084992751964624,0.9479514763103687
1539131053615204,0.02398718242160669,0.16522468909742916,0.9477073319600215
1539131053631185,0.02288853284504455,0.14850080109864994,0.9488059815365837
1539131053647166,0.012756542305638163,0.14093232623788854,0.9508812085145344
1539131053663148,0.006775005722133187,0.14056610971236783,0.951003280689708
1539131053679129,-0.0061646448462653325,0.14959945067521208,0.9508812085145344
1539131053695110,-0.0109254596780346,0.16498054474708201,0.9374532692454416
1539131053711091,-0.010070954451819603,0.17926298924238981,0.939894712748913
1539131053727072,0.0025024795910582043,0.18585488670176264,0.9474631876096744
1539131053743054,0.01641870756084529,0.18585488670176264,0.9551537346456094
1539131053759035,0.026306553749904538,0.18243686579690266,0.9602807660028994
1539131053775016,0.03692683299000521,0.17401388570992626,0.9589379720759901
1539131053790997,0.0386358434424352,0.168398565651942,0.9594262607766844
1539131053806978,0.034851606012054503,0.16522468909742916,0.9562523842221715
1539131053822960,0.03302052338445094,0.1608300907911806,0.9534447241931794
1539131053838941,0.036438544289310926,0.15545891508354348,0.9516136415655758
1539131053854922,0.032410162508583085,0.1587548638132299,0.9468528267338066
1539131053870903,0.028503852903028815,0.1625391012436106,0.9392843518730452
1539131053886901,0.02276646066987098,0.16278324559395774,0.9334248874647137
1539131053902883,0.015808346684977437,0.15680170901045276,0.9273212787060352
1539131053918864,0.012146181429770309,0.14935530632486493,0.9201190203707945
1539131053934845,0.01226825360494388,0.14410620279240138,0.9206073090714888
1539131053950826,0.01226825360494388,0.14056610971236783,0.9368429083695737
1539131053966807,0.01226825360494388,0.14459449149309567,0.9463645380331123
1539131053982789,0.02154573891813527,0.15851071946288275,0.9422140840772109
1539131053998770,0.029602502479590953,0.1751125352864884,0.9392843518730452
1539131054014751,0.033630884260318794,0.17962920576791053,0.9455100328068973
1539131054030732,0.03729304951552592,0.17608911268787697,0.9590600442511636
1539131054046713,0.037537193865873064,0.17279316395819055,0.970901045243
1539131054062695,0.03924620431830306,0.16888685435263628,0.9611352712291144
1539131054078676,0.0394903486686502,0.165835049973297,0.9596704051270315
1539131054094657,0.03741512169069949,0.16473640039673487,0.9661402304112308
1539131054110638,0.033630884260318794,0.16681162737468558,0.9667505912870986
1539131054126619,0.026184481574730967,0.16778820477607415,0.9597924773022051
1539131054142601,0.023010605020218122,0.16656748302433844,0.9563744563973451
1539131054158582,0.015564202334630295,0.16620126649881772,0.9502708476386665
1539131054174563,0.009216449225604606,0.16412603952086702,0.9516136415655758
1539131054190544,0.0040894178683146265,0.16266117341878417,0.9495384145876251
1539131054206482,0.0037232013427939137,0.15973144121461846,0.9513694972152287
1539131054222463,0.001037613488975353,0.1587548638132299,0.9536888685435265
1539131054238444,0.0037232013427939137,0.16009765774013918,0.9566186007476922
1539131054254425,0.010437170977340315,0.16021972991531275,0.9597924773022051
1539131054270406,0.011169604028381741,0.16522468909742916,0.9580834668497751
1539131054286388,0.015808346684977437,0.1721828030823227,0.9505149919890137
1539131054302369,0.016906996261539575,0.17840848401617482,0.9512474250400551
1539131054318350,0.017151140611886717,0.17792019531548053,0.951003280689708
1539131054334331,0.015075913633936011,0.170107576104372,0.9472190432593273
1539131054350312,0.014221408407721015,0.1633936064698256,0.9400167849240866
1539131054366294,0.006652933546959616,0.15741206988632062,0.9442893110551616
1539131054382275,0.008728160524910322,0.15680170901045276,0.945876249332418
1539131054398256,0.009582665751125319,0.15741206988632062,0.9447775997558558
1539131054414237,0.010193026626993174,0.1575341420614942,0.9448996719310294
1539131054430218,0.005554283970397478,0.15692378118562633,0.9411154345006487
1539131054446200,-7.934691386282111E-4,0.15680170901045276,0.9368429083695737
1539131054462181,0.002990768291752488,0.14959945067521208,0.9333028152895402
1539131054478162,0.003356984817273201,0.14898908979934422,0.9383077744716566
1539131054494143,0.006897077897306758,0.15606927595941134,0.9456321049820708
1539131054510124,0.01239032578011745,0.16327153429465202,0.9495384145876251
1539131054526092,0.012634470130464592,0.16742198825055343,0.945876249332418
1539131054542073,0.017639429312581,0.168398565651942,0.9461203936827651
1539131054558055,0.019226367589837423,0.16888685435263628,0.9506370641641873
1539131054574036,0.018127718013275285,0.16986343175402485,0.9488059815365837
1539131054590017,0.015442130159456724,0.169253070878157,0.9489280537117573
1539131054605998,0.013000686655985305,0.168398565651942,0.9500267032883194
1539131054621979,0.010437170977340315,0.168398565651942,0.947585259784848
1539131054637961,0.00970473792629889,0.16485847257190844,0.952712291142138
1539131054653942,0.012878614480811734,0.16156252384222203,0.9480735484855423
1539131054669923,0.01495384145876244,0.1608300907911806,0.9446555275806823
1539131054685904,0.01483176928358887,0.15973144121461846,0.9402609292744337
1539131054701885,0.015320057984283153,0.1616845960173956,0.9446555275806823
1539131054717867,0.015075913633936011,0.168398565651942,0.9521019302662701
1539131054733848,0.015686274509803866,0.17022964827954556,0.9528343633173115
1539131054749829,0.015564202334630295,0.16510261692225559,0.949294270237278
1539131054765810,0.01239032578011745,0.15973144121461846,0.9512474250400551
1539131054781791,0.013366903181506018,0.15606927595941134,0.9524681467917908
1539131054797773,0.012634470130464592,0.1620508125429163,0.9600366216525522
1539131054813754,0.01373311970702673,0.16559090562294987,0.9564965285725187
1539131054829735,0.015197985809109582,0.16693369954985915,0.9494163424124515
1539131054845733,0.015930418860151008,0.16009765774013918,0.9439230945296408
1539131054861714,0.011535820553902454,0.15716792553597347,0.9473411154345008
1539131054877696,0.008606088349736751,0.16070801861600703,0.9446555275806823
1539131054893677,0.009216449225604606,0.16192874036774274,0.9429465171282523
1539131054909658,0.014587624933241727,0.16021972991531275,0.9417257953765166
1539131054925639,0.011902037079423167,0.16156252384222203,0.941603723201343
1539131054941620,0.011169604028381741,0.1616845960173956,0.9402609292744337
1539131054957602,0.011169604028381741,0.16156252384222203,0.9483176928358894
1539131054973583,0.012756542305638163,0.16144045166704846,0.9564965285725187
1539131054989564,0.015564202334630295,0.16180666819256917,0.9522240024414437
1539131055005545,0.019226367589837423,0.16070801861600703,0.9466086823834594
1539131055021526,0.01629663538567172,0.1591210803387506,0.9435568780041201
1539131055037508,0.014709697108415298,0.1637598229953463,0.9376974135957887
1539131055053489,0.01629663538567172,0.16705577172503272,0.9341573205157552
1539131055069470,0.018493934538795997,0.17084000915541342,0.940749217975128
1539131055085451,0.021667811093308842,0.17169451438162842,0.9519798580910965
1539131055101432,0.017883573662928143,0.16864271000228914,0.9557640955214772
1539131055117414,0.015686274509803866,0.1625391012436106,0.9530785076676587
1539131055133395,0.0060425726710917615,0.15558098725871705,0.9547875181200887
1539131055149376,0.009216449225604606,0.15313954375524563,0.9584496833752958
1539131055165344,0.010070954451819603,0.1553368429083699,0.9604028381780729
1539131055181325,0.012634470130464592,0.1596093690394449,0.9522240024414437
1539131055197306,0.012512397955291021,0.1629053177691313,0.9469748989089801
1539131055213287,0.008972304875257464,0.16327153429465202,0.945876249332418
1539131055229269,0.013000686655985305,0.165835049973297,0.9516136415655758
1539131055245250,0.012878614480811734,0.16900892652780986,0.9519798580910965
1539131055261231,0.015197985809109582,0.166689555199512,0.9452658884565501
1539131055277212,0.015808346684977437,0.15899900816357704,0.9412375066758223
1539131055293193,0.018127718013275285,0.1553368429083699,0.9485618371862365
1539131055309175,0.017639429312581,0.15716792553597347,0.9542992294193944
1539131055325156,0.017761501487754572,0.16119630731670131,0.9470969710841537
1539131055341137,0.015197985809109582,0.16144045166704846,0.9448996719310294
1539131055357118,0.01886015106431671,0.15252918287937778,0.9451438162813766
1539131055373099,0.019714656290531707,0.15191882200350992,0.9445334554055087
1539131055389081,0.025940337224383825,0.14898908979934422,0.9422140840772109
1539131055405062,0.02032501716639956,0.1494773785000385,0.9461203936827651
1539131055421043,0.009338521400778177,0.15301747158007206,0.9585717555504694
1539131055437024,0.01104753185320817,0.15387197680628706,0.9651636530098422
1539131055453005,0.00579842832074462,0.14972152285038565,0.9671168078126193
1539131055468987,0.0040894178683146265,0.1477683680476085,0.9599145494773786
1539131055484954,1.831082627603564E-4,0.1439841306172278,0.9532005798428322
1539131055500936,0.0022583352407110624,0.14081025406271497,0.955275806820783
1539131055516917,0.005310139620050336,0.13836881055924355,0.9523460746166172
1539131055532898,6.103608758678547E-5,0.14251926451514496,0.9516136415655758
1539131055548879,0.003112840466926059,0.14813458457312922,0.9506370641641873
1539131055564860,0.005065995269703194,0.15008773937590636,0.9539330128938737
1539131055580842,0.008850232700083893,0.15057602807660064,0.9584496833752958
1539131055596823,0.007751583123521755,0.15399404898146063,0.9562523842221715
1539131055612804,0.005554283970397478,0.15179674982833635,0.9519798580910965
1539131055628785,0.0060425726710917615,0.14593728542000495,0.9446555275806823
1539131055644766,0.008606088349736751,0.1394674601358057,0.9436789501792937
1539131055660748,0.007507438773174613,0.1343404287785157,0.9379415579461359
1539131055676729,0.008239871824216038,0.13263141832608571,0.9291523613336388
1539131055692710,0.005432211795223907,0.13165484092469715,0.9275654230563823
1539131055708691,0.005554283970397478,0.13592736705577213,0.9372091248950944
1539131055724672,0.003112840466926059,0.14471656366826924,0.9470969710841537
1539131055740654,0.005554283970397478,0.1528953994048985,0.9463645380331123
1539131055756635,0.010315098802166744,0.15728999771114704,0.944167238879988
1539131055772616,0.013488975356679589,0.1544823376821549,0.9455100328068973
1539131055788597,0.01373311970702673,0.14605935759517852,0.9538109407187001
1539131055804596,0.013122758831158876,0.13580529488059856,0.9660181582360572
1539131055820577,0.00848401617456318,0.13665980010681356,0.9671168078126193
1539131055836558,0.008606088349736751,0.1427634088654921,0.96919203479057
1539131055852539,0.007629510948348184,0.14715800717174066,0.9752956435492486
1539131055868520,0.005920500495918191,0.15167467765316278,0.9727321278706036
1539131055884502,0.003356984817273201,0.15008773937590636,0.9719996948195622
1539131055900483,0.007751583123521755,0.14935530632486493,0.9624780651560236
1539131055916464,0.006775005722133187,0.1448386358434428,0.9528343633173115
1539131055932445,0.006286717021438903,0.14007782101167354,0.9502708476386665
1539131055948426,0.0071412222476539,0.13934538796063212,0.9428244449530787
1539131055964408,0.00579842832074462,0.14471656366826924,0.9365987640192266
1539131055980389,0.006897077897306758,0.1444724193179221,0.9367208361944002
1539131055996370,0.009094377050431035,0.1448386358434428,0.9447775997558558
1539131056012351,0.015320057984283153,0.14178683146410354,0.9541771572442208
1539131056028332,0.017761501487754572,0.1394674601358057,0.955275806820783
1539131056044314,0.020935378042267416,0.14337376974135996,0.9555199511711301
1539131056060295,0.020691233691920274,0.14752422369726137,0.9566186007476922
1539131056076276,0.021911955443655984,0.15484855420767563,0.9595483329518579
1539131056092257,0.0214236667429617,0.15802243076218847,0.9557640955214772
1539131056108238,0.018493934538795997,0.15851071946288275,0.9525902189669644
1539131056124206,0.018005645838101714,0.15277332722972492,0.9534447241931794
1539131056140187,0.019226367589837423,0.14984359502555922,0.9534447241931794
1539131056156169,0.01751735713740743,0.14691386282139351,0.9511253528648815
1539131056172150,0.017639429312581,0.14679179064621994,0.9481956206607158
1539131056188131,0.016540779736018862,0.14703593499656709,0.9452658884565501
1539131056204112,0.014465552758068156,0.14874494544899708,0.951857785915923
1539131056220093,0.01617456321049815,0.14935530632486493,0.955275806820783
1539131056236075,0.018493934538795997,0.14557106889448423,0.9512474250400551
1539131056252056,0.022034027618829555,0.14691386282139351,0.9446555275806823
1539131056268037,0.022400244144350268,0.1491111619745178,0.9418478675516901
1539131056284018,0.02130159456778813,0.15082017242694779,0.9447775997558558
1539131056299999,0.022156099794003126,0.1541161211566342,0.953566796368353
1539131056315981,0.02423132677195383,0.15558098725871705,0.9557640955214772
1539131056331962,0.02642862592507811,0.1532616159304192,0.9532005798428322
1539131056347943,0.02423132677195383,0.1491111619745178,0.945876249332418
1539131056363924,0.025940337224383825,0.14715800717174066,0.9497825589379723
1539131056379905,0.021057450217440987,0.14581521324483138,0.9553978789959565
1539131056395887,0.01873807888914314,0.14874494544899708,0.9530785076676587
1539131056411868,0.019714656290531707,0.14886701762417065,0.945876249332418
1539131056427849,0.01898222323949028,0.1482566567483028,0.9425803006027316
1539131056443817,0.023132677195391693,0.14789044022278208,0.9469748989089801
1539131056459798,0.02777141985198739,0.14666971847104637,0.9474631876096744
1539131056475779,0.02789349202716096,0.15069810025177421,0.9540550850690472
1539131056491760,0.028870069428549527,0.16021972991531275,0.9553978789959565
1539131056507742,0.027038986800945963,0.16363775082017273,0.9541771572442208
1539131056523723,0.027649347676813818,0.16009765774013918,0.9533226520180058
1539131056539704,0.02386511024643312,0.15252918287937778,0.9530785076676587
1539131056555685,0.022278171969176697,0.14581521324483138,0.9532005798428322
1539131056571666,0.020935378042267416,0.1423971923399714,0.9521019302662701
1539131056587648,0.017273212787060288,0.14520485236896352,0.9549095902952622
1539131056603629,0.017761501487754572,0.14850080109864994,0.955275806820783
1539131056619610,0.019470511940184565,0.15008773937590636,0.9522240024414437
1539131056635591,0.02032501716639956,0.14752422369726137,0.9478294041351951
1539131056651572,0.022278171969176697,0.14642557412069923,0.9459983215075916
1539131056667554,0.022156099794003126,0.14557106889448423,0.948439765011063
1539131056683535,0.024353398947127403,0.1486228732738235,0.9474631876096744
1539131056699516,0.023620965896085977,0.15216296635385707,0.9457541771572444
1539131056715497,0.024475471122300974,0.15167467765316278,0.9472190432593273
1539131056731478,0.023620965896085977,0.15082017242694779,0.950148775463493
1539131056747460,0.02020294499122599,0.15106431677729493,0.9507591363393608
1539131056763458,0.017639429312581,0.1474021515220878,0.9524681467917908
1539131056779439,0.01483176928358887,0.14215304798962425,0.9472190432593273
1539131056795420,0.015808346684977437,0.1401998931868471,0.9491721980621044
1539131056811401,0.017883573662928143,0.14752422369726137,0.9496604867627987
1539131056827383,0.021911955443655984,0.1544823376821549,0.9430685893034259
1539131056843364,0.02154573891813527,0.15680170901045276,0.9429465171282523
1539131056859345,0.01641870756084529,0.15387197680628706,0.9472190432593273
1539131056875326,0.011413748378728883,0.15143053330281564,0.9519798580910965
1539131056891307,0.011413748378728883,0.1474021515220878,0.9557640955214772
1539131056907289,0.013488975356679589,0.13995574883649997,0.9539330128938737
1539131056923270,0.013855191882200302,0.1406881818875414,0.9532005798428322
1539131056939251,0.014221408407721015,0.1448386358434428,0.953566796368353
1539131056955232,0.013977264057373873,0.14874494544899708,0.9511253528648815
1539131056971213,0.015686274509803866,0.15216296635385707,0.9485618371862365
1539131056987195,0.020813305867093845,0.15436026550698134,0.9539330128938737
1539131057003176,0.019348439765010994,0.1544823376821549,0.951857785915923
1539131057019157,0.02032501716639956,0.15179674982833635,0.9483176928358894
1539131057035138,0.01617456321049815,0.14715800717174066,0.9452658884565501
1539131057051119,0.016906996261539575,0.14850080109864994,0.945876249332418
1539131057067101,0.012756542305638163,0.1524071107042042,0.9490501258869308
1539131057083068,0.01629663538567172,0.15301747158007206,0.953566796368353
1539131057099050,0.014221408407721015,0.15558098725871705,0.9555199511711301
1539131057115031,0.009948882276646032,0.1663233386739913,0.9567406729228658
1539131057131012,0.005065995269703194,0.17169451438162842,0.9522240024414437
1539131057146993,0.003479056992446772,0.17230487525749627,0.9425803006027316
1539131057162974,0.023010605020218122,0.1432516975661864,0.9409933623254751
1539131057178956,0.023620965896085977,0.13250934615091214,0.9335469596398873
1539131057194937,0.016662851911192433,0.11920347905699202,0.9516136415655758
1539131057210918,0.023743038071259548,0.11187914854657777,0.9622339208056765
1539131057226899,0.017761501487754572,0.12042420080872773,0.9639429312581065
1539131057242880,0.011169604028381741,0.132265201800565,0.9584496833752958
1539131057258862,0.004821850919356052,0.14679179064621994,0.9532005798428322
1539131057274843,0.004455634393835339,0.1486228732738235,0.9457541771572444
1539131057290824,-4.272526131074983E-4,0.13629358358129284,0.9461203936827651
1539131057306805,6.713969634546402E-4,0.1276264591439693,0.953566796368353
1539131057322786,0.010437170977340315,0.13409628442816857,0.9569848172732129
1539131057338768,6.103608758678547E-5,0.14349584191653353,0.9516136415655758
1539131057354749,-0.005920500495918191,0.14935530632486493,0.9488059815365837
1539131057370730,-0.010803387502861028,0.14410620279240138,0.9558861676966508
1539131057386711,-0.011779964904249596,0.13275349050125929,0.9671168078126193
1539131057402649,-0.00579842832074462,0.12066834515907487,0.9746852826733807
1539131057418629,-0.00836194399938961,0.1167620355535206,0.97261005569543
1539131057434610,-0.010070954451819603,0.12042420080872773,0.9634546425574122
1539131057450591,-0.007263294422827471,0.13031204699778787,0.951857785915923
1539131057466571,-0.006530861371786045,0.13214312962539143,0.9479514763103687
1539131057482552,-0.0018921187151903496,0.12994583047226715,0.949294270237278
1539131057498533,0.00323491264209963,0.11981383993285988,0.9502708476386665
1539131057514514,0.008117799649042468,0.11371023117418133,0.9500267032883194
1539131057530494,0.0017700465400167786,0.11456473640039633,0.947585259784848
1539131057546475,0.006652933546959616,0.1193255512321656,0.9468528267338066
1539131057562456,0.0016479743648432077,0.12372014953841415,0.9430685893034259
1539131057578436,-0.009216449225604606,0.12469672693980272,0.9472190432593273
1539131057594417,-0.012634470130464592,0.12274357213702558,0.9524681467917908
1539131057610398,-0.019470511940184565,0.12164492256046344,0.953566796368353
1539131057626379,-0.017883573662928143,0.1264057373922336,0.9593041886015108
1539131057642359,-0.01239032578011745,0.13202105745021786,0.9556420233463037
1539131057658340,-0.0021362630655374915,0.1318989852750443,0.9546654459449151
1539131057674321,-0.003356984817273201,0.12884718089570502,0.9549095902952622
1539131057690302,7.934691386282111E-4,0.12945754177157287,0.9561303120469979
1539131057706282,0.0026245517662317752,0.13214312962539143,0.9550316624704358
1539131057722290,9.15541313801782E-4,0.13592736705577213,0.9516136415655758
1539131057738271,-0.00323491264209963,0.13299763485160643,0.9557640955214772
1539131057754252,-0.006897077897306758,0.12823682001983716,0.9572289616235601
1539131057770233,-0.014587624933241727,0.12884718089570502,0.9611352712291144
1539131057786214,-0.01617456321049815,0.12994583047226715,0.9636987869077593
1539131057802196,-0.018249790188448856,0.1276264591439693,0.9650415808346686
1539131057818177,-0.01995880064087885,0.1138323033493549,0.9673609521629665
1539131057834158,-0.01739528496223386,0.10308995193408066,0.96406500343328
1539131057850139,-0.01995880064087885,0.1012588693064771,0.9602807660028994
1539131057866120,-0.01641870756084529,0.1117570763714042,0.9601586938277258
1539131057882102,-0.013244831006332447,0.13275349050125929,0.9558861676966508
1539131057898083,-0.0109254596780346,0.1444724193179221,0.9545433737697415
1539131057914064,-0.013244831006332447,0.14386205844205424,0.9549095902952622
1539131057930045,-0.011535820553902454,0.12664988174258074,0.9601586938277258
1539131057946026,-0.015320057984283153,0.10955977721827992,0.9622339208056765
1539131057962008,-0.014709697108415298,0.10540932326237851,0.953566796368353
1539131057977989,-0.01226825360494388,0.11541924162661132,0.951857785915923
1539131057993970,-0.015564202334630295,0.13202105745021786,0.9464866102082858
1539131058009951,-0.015564202334630295,0.1386129549095907,0.953566796368353
1539131058025932,-0.016540779736018862,0.13421835660334214,0.9517357137407494
1539131058041900,-0.02252231631952384,0.1255512321660186,0.9503929198138401
1539131058057881,-0.023254749370565264,0.11712825207904132,0.9644312199588008
1539131058073862,-0.029480430304417382,0.11700617990386775,0.9843289845120928
1539131058089842,-0.02642862592507811,0.1214007782101163,0.9980010681315328
1539131058105823,-0.036438544289310926,0.1284809643701843,1.0144808117799649
1539131058121804,-0.042908369573510186,0.14129854276340925,1.0379186694132905
1539131058137785,-0.03973449301899734,0.13202105745021786,1.084428168154421
1539131058153765,-0.023620965896085977,0.16266117341878417,1.107499809262226
1539131058169746,0.005065995269703194,0.15655756466010562,1.1352101930266274
1539131058185727,-0.009460593575951748,0.1482566567483028,1.2090638590066378
1539131058201707,-0.018127718013275285,0.33624780651560204,1.305745021744106
1539131058217688,0.015197985809109582,0.3167162584878307,1.4219577325093464
1539131058233669,0.008239871824216038,0.20794995040817899,1.547814145113298
1539131058249650,0.03302052338445094,0.13373006790264785,1.5832150759136336
1539131058265630,0.009094377050431035,0.08160524910353217,1.5627069504844737
1539131058281611,3.0518043793392735E-4,0.021911955443655984,1.4954451819638361
1539131058297592,-0.0014038300144960658,-0.020691233691920274,1.3946135652704665
1539131058313573,-0.023376821545738835,-0.0394903486686502,1.254230563820859
1539131058329553,-0.017273212787060288,-0.036316472114137355,1.0968795300221252
1539131058345534,-0.023743038071259548,0.004821850919356052,0.8948500801098653
1539131058361511,-0.09088273441672401,0.06878767071030722,0.6723125047684446
1539131058377492,-0.15460440985732804,0.1406881818875414,0.4745555809872588
1539131058393472,-0.18561074235141506,0.17120622568093413,0.30939192797741644
1539131058409453,-0.25397116044861523,0.20123598077363258,0.18121614404516695
1539131058425434,-0.3041428244449529,0.19891660944533474,0.08099488822766432
1539131058441414,-0.34723430228122387,0.15570305943389062,0.019104295414663852
1539131058457395,-0.32428473334859254,0.15741206988632062,-0.05780117494468584
1539131058473376,-0.2888838025482565,0.13592736705577213,-0.12469672693980316
1539131058489357,-0.2544594491493095,0.09430075532158355,-0.19000534065766406
1539131058505337,-0.26276035706111234,0.07635614557106862,-0.26605630579079875
1539131058521318,-0.15277332722972448,0.0327763790341038,-0.3373464560921646
1539131058537299,-0.04888990615701516,0.06158541237506654,-0.4447699702449075
1539131058553280,0.12445258258945557,0.22528419928282606,-0.609201190203708
1539131058569260,0.24408331425955598,0.37360189211871475,-0.7184557869840544
1539131058585241,0.2860761425192644,0.5287556267643243,-0.7702143892576485
1539131058601222,0.4005798428320748,0.34003204394598274,-0.32086671244373255
1539131058617202,0.6724345769436182,0.06073090714885154,0.3947203784237434
1539131058633183,0.18719768062867193,-1.6505989166094452,4.0
1539131058649164,-0.7082017242694745,-0.21307698176546896,1.9841000991836424
1539131058665145,0.07794308384832505,0.5687953002212556,0.6132295719844354
1539131058681152,-0.12921339742122528,0.00982681010147246,0.9455100328068973
1539131058697133,-0.06732280460822482,0.02020294499122599,0.9384298466468302
1539131058713114,0.011169604028381741,-0.04205386434729519,0.9549095902952622
1539131058729096,0.022034027618829555,-0.09539940489814613,0.9809109636072328
1539131058745077,0.023620965896085977,-0.008972304875257464,0.9130388342107274
1539131058761058,0.02008087281605242,0.11908140688181845,0.796826123445487
1539131058777039,-0.06939803158617552,0.25299458304722666,0.6682841229877168
1539131058793020,-0.15301747158007162,0.35004196231021556,0.5733119707026777
1539131058809002,-0.2112458991378654,0.39423208972304913,0.5349813076981764
1539131058824983,-0.21100175478751826,0.3847104600595106,0.54023041123064
1539131058840964,-0.19586480506599546,0.34503700312809915,0.5873502708476384
1539131058856945,-0.17816433966582723,0.2915693904020751,0.6559548332951861
1539131058872926,-0.17376974135957868,0.23456168459601745,0.7291981383993287
1539131058888908,-0.1404440375371938,0.18109407186999338,0.7956054016937513
1539131058904889,-0.13556115053025097,0.14972152285038565,0.8438239108873118
1539131058920870,-0.1249408712901503,0.12335393301289344,0.8922865644312203
1539131058936851,-0.12225528343633174,0.11725032425421489,0.9397726405737394
1539131058952832,-0.12921339742122528,0.11737239642938846,0.9650415808346686
1539131058968814,-0.12567330434119173,0.1251850156404979,0.98628213931487
1539131058984795,-0.14605935759517807,0.13665980010681356,0.9978789959563592
1539131059000763,-0.13934538796063167,0.15802243076218847,1.0039826047150378
1539131059016743,-0.1257953765163653,0.1620508125429163,1.013015945677882
1539131059032724,-0.12433051041428245,0.18084992751964624,1.0086213473716334
1539131059048705,-0.12530708781567101,0.19977111467154973,0.98457312886244
1539131059064685,-0.13397421225299455,0.20794995040817899,0.9651636530098422
1539131059080666,-0.12945754177157243,0.2167391470206761,0.9595483329518579
1539131059096647,-0.1115129320210575,0.21197833218890683,0.9588158999008165
1539131059112628,-0.10138094148165111,0.20892652780956755,0.9489280537117573
1539131059128608,-0.09527733272297256,0.20941481651026184,0.9455100328068973
1539131059144589,-0.0888075074387733,0.22772564278629748,0.945021744106203
1539131059160570,-0.06744487678339839,0.2318760967421989,0.9511253528648815
1539131059176550,-0.06805523765926624,0.24762340733958954,0.9550316624704358
1539131059192531,-0.0733043411917298,0.24872205691615168,0.9519798580910965
1539131059208512,-0.07415884641794479,0.25519188220035094,0.9436789501792937
1539131059224493,-0.07354848554207694,0.2465247577630274,0.9411154345006487
1539131059240473,-0.06598001068131554,0.23639276722362101,0.9409933623254751
1539131059256454,-0.06182955672541368,0.2258945601586939,0.9259784847791259
1539131059272435,-0.07672236209658978,0.20782787823300541,0.9142595559624631
1539131059288416,-0.06646829938200982,0.1940337224383919,0.9074235141527431
1539131059304396,-0.05877775234607441,0.1785305561913484,0.9098649576562146
1539131059320373,-0.0499885557335773,0.16998550392919842,0.8972915236133368
1539131059336354,-0.05621423666742942,0.16388189517051988,0.8780041199359125
1539131059352335,-0.06207370107576082,0.16278324559395774,0.8651865415426867
1539131059368315,-0.05889982452124798,0.16034180209048632,0.8592050049591817
1539131059384296,-0.06292820630197626,0.1742580300602734,0.9590600442511636
1539131059400277,-0.07086289768825837,0.19855039291981402,1.1165331502250702
1539131059416257,-0.08734264133669045,0.2305333028152896,1.21699855039292
1539131059432238,-0.08953994048981473,0.26605630579079875,1.1215381094071866
1539131059448219,-0.09442282749675757,0.2797283894102387,0.9757839322499429
1539131059464200,-0.0812390325780119,0.26825360494392303,0.869947356374456
1539131059480180,-0.06756694895857196,0.2280918593118182,0.8231937132829783
1539131059496161,-0.07403677424277122,0.18036163881895195,0.8487067978942546
1539131059512142,-0.0686655985351341,0.14215304798962425,0.9289082169832916
1539131059528123,-0.06195162890058725,0.13238727397573857,1.0261997405966277
1539131059544103,-0.06146334019989297,0.15472648203250206,1.0529335469596397
1539131059560084,-0.05645838101777656,0.18805218585488692,0.9795681696803236
1539131059576065,-0.062317845426107965,0.202822919050889,0.9027847714961474
1539131059592045,-0.05816739147020655,0.1961089494163426,0.8632333867399096
1539131059608026,-0.059876401922636546,0.18402380407415908,0.8772716868848711
1539131059624007,-0.054627298390172996,0.17438010223544698,0.9247577630273902
1539131059640014,-0.05902189669642155,0.17755397878995982,0.9694361791409172
1539131059655995,-0.059754329747462975,0.1943999389639126,0.9719996948195622
1539131059671977,-0.055725947966735134,0.21686121919584966,0.9411154345006487
1539131059687958,-0.06073090714885154,0.23004501411459533,0.9184100099183645
1539131059703939,-0.057312886243991557,0.22870222018768604,0.9228046082246131
1539131059719920,-0.057312886243991557,0.2200350957503625,0.9473411154345008
1539131059735901,-0.062195773250934394,0.20025940337224402,0.9688258182650493
1539131059751883,-0.06671244373235696,0.18793011367971335,0.9718776226443886
1539131059767864,-0.06829938200961339,0.17486839093614126,0.9590600442511636
1539131059783845,-0.0774547951476312,0.166689555199512,0.9444113832303351
1539131059799826,-0.08062867170214405,0.16314946211947845,0.9422140840772109
1539131059815807,-0.07562371252002764,0.16192874036774274,0.9459983215075916
1539131059831789,-0.07525749599450693,0.167544060425727,0.9524681467917908
1539131059847770,-0.07428091859311836,0.17657740138857125,0.9516136415655758
1539131059863751,-0.07208361943999408,0.18634317540245693,0.9519798580910965
1539131059879732,-0.06720073243305125,0.19012741283283763,0.9389181353475244
1539131059895713,-0.06353856717784412,0.19378957808804476,0.9309834439612423
1539131059911695,-0.05658045319295013,0.19842832074464045,0.9326924544136723
1539131059927676,-0.0575570305943387,0.19977111467154973,0.9357442587930116
1539131059943657,-0.055725947966735134,0.19708552681773117,0.9389181353475244
1539131059959625,-0.05413900968947871,0.19220263981078833,0.9379415579461359
1539131059975606,-0.049378194857709445,0.18829633020523406,0.9346456092164495
1539131059991586,-0.052918287937743,0.1885404745555812,0.9408712901503016
1539131060007567,-0.05023270008392444,0.18780804150453978,0.9500267032883194
1539131060023548,-0.05011062790875087,0.18670939192797764,0.9593041886015108
1539131060039528,-0.05804531929503298,0.18451209277485336,0.953566796368353
1539131060055509,-0.053772793163958,0.1826810101472498,0.9490501258869308
1539131060071490,-0.053406576638437286,0.1868314641031512,0.9372091248950944
1539131060087471,-0.05413900968947871,0.1965972381170369,0.9264667734798202
1539131060103451,-0.059632257572289404,0.19720759899290474,0.9320820935378045
1539131060119432,-0.062439917601281536,0.19427786678873904,0.9427023727779051
1539131060135413,-0.05645838101777656,0.18805218585488692,0.9483176928358894
1539131060151394,-0.05609216449225585,0.18829633020523406,0.9451438162813766
1539131060167374,-0.055725947966735134,0.19098191805905262,0.9411154345006487
1539131060183355,-0.04876783398184159,0.1957427328908219,0.9397726405737394
1539131060199336,-0.0499885557335773,0.19671931029221046,0.9446555275806823
1539131060215316,-0.04364080262455161,0.19964904249637616,0.9500267032883194
1539131060231297,-0.037537193865873064,0.20733958953231113,0.948439765011063
1539131060247278,-0.04083314259555948,0.2171053635461968,0.9456321049820708
1539131060263259,-0.037659266041046635,0.22223239490348679,0.9425803006027316
1539131060279205,-0.04046692607003877,0.21905851834897394,0.935622186617838
1539131060295186,-0.0470588235294116,0.2066071564812697,0.9319600213626309
1539131060311166,-0.04632639047837017,0.1923247119859619,0.9363546196688795
1539131060327147,-0.04486152437628732,0.18158236057068766,0.9435568780041201
1539131060343128,-0.04644846265354374,0.18585488670176264,0.9408712901503016
1539131060359109,-0.04193179217212162,0.19684138246738403,0.9439230945296408
1539131060375089,-0.0365606164644845,0.20880445563439398,0.9430685893034259
1539131060391070,-0.033630884260318794,0.21490806439307253,0.9380636301213094
1539131060407051,-0.03314259555962451,0.21356527046616325,0.9311055161364159
1539131060423031,-0.03411917296101308,0.20965896086060898,0.9289082169832916
1539131060439012,-0.03546196688792236,0.2033112077515833,0.9362325474937059
1539131060454993,-0.03814755474174092,0.2003814755474176,0.9384298466468302
1539131060470974,-0.04058899824521234,0.1965972381170369,0.9430685893034259
1539131060486954,-0.053040360112916574,0.19256885633630905,0.9427023727779051
1539131060502935,-0.05535973144121442,0.18695353627832478,0.9418478675516901
1539131060518916,-0.06280613412680269,0.1809719996948198,0.9376974135957887
1539131060534896,-0.059632257572289404,0.18084992751964624,0.9346456092164495
1539131060550877,-0.05902189669642155,0.1823147936217291,0.9329365987640195
1539131060566858,-0.058533607995727266,0.18915083543144906,0.9336690318150609
1539131060582839,-0.05218585488670158,0.19598687724116903,0.9422140840772109
1539131060598846,-0.042786297398336615,0.19806210421911974,0.9414816510261694
1539131060614827,-0.04058899824521234,0.20025940337224402,0.9435568780041201
1539131060630808,-0.032410162508583085,0.19830624856946688,0.9519798580910965
1539131060646788,-0.03155565728236809,0.20184634164950044,0.9560082398718244
1539131060662769,-0.033875028610665936,0.19977111467154973,0.9511253528648815
1539131060678750,-0.038879987792782345,0.19671931029221046,0.9440451667048144
1539131060694730,-0.04095521477073305,0.18548867017624193,0.941603723201343
1539131060710711,-0.04119935912108019,0.17755397878995982,0.939894712748913
1539131060726692,-0.04254215304798947,0.1734035248340584,0.942458228427558
1539131060742673,-0.04229800869764233,0.17987335011825767,0.9395284962233923
1539131060758653,-0.049378194857709445,0.18500038147554765,0.9456321049820708
1539131060774634,-0.04351873044937804,0.19513237201495404,0.9409933623254751
1539131060790615,-0.04510566872663446,0.2016021972991533,0.942458228427558
1539131060806595,-0.04449530785076661,0.203677424277104,0.9461203936827651
1539131060822576,-0.046814679179064456,0.19769588769359903,0.9500267032883194
1539131060838557,-0.0470588235294116,0.1893949797817962,0.9473411154345008
1539131060854538,-0.04962233920805659,0.1839017318989855,0.942458228427558
1539131060870518,-0.04974441138323016,0.17987335011825767,0.9395284962233923
1539131060886499,-0.04498359655146089,0.17950713359273696,0.9446555275806823
1539131060902480,-0.04376287479972518,0.18280308232242337,0.9431906614785994
1539131060918457,-0.04510566872663446,0.18597695887693622,0.9370870527199209
1539131060934437,-0.048157473105973736,0.18487830930037408,0.9362325474937059
1539131060950418,-0.04608224612802303,0.1835355153734648,0.9397726405737394
1539131060966399,-0.03936827649347663,0.1818265049210348,0.9423361562523844
1539131060982380,-0.03961242084382377,0.18329137102311766,0.9461203936827651
1539131060998360,-0.038879987792782345,0.1830472266727705,0.9478294041351951
1539131061014341,-0.037537193865873064,0.18805218585488692,0.9495384145876251
1539131061030322,-0.036438544289310926,0.19159227893492048,0.9521019302662701
1539131061046302,-0.036194399938963784,0.1931792172121769,0.950148775463493
1539131061062283,-0.04254215304798947,0.18695353627832478,0.9488059815365837
1539131061078264,-0.04498359655146089,0.171816586556802,0.9385519188220037
1539131061094245,-0.03546196688792236,0.15680170901045276,0.935622186617838
1539131061110225,-0.029602502479590953,0.1582665751125356,0.930495155260548
1539131061126206,-0.030823224231326662,0.16864271000228914,0.9276874952315559
1539131061142187,-0.033875028610665936,0.1843900205996798,0.9300068665598538
1539131061158167,-0.03314259555962451,0.19269092851148262,0.9365987640192266
1539131061174148,-0.0289921416037231,0.19769588769359903,0.9425803006027316
1539131061190129,-0.016662851911192433,0.19842832074464045,0.9466086823834594
1539131061206110,-0.011169604028381741,0.20599679560540185,0.9439230945296408
1539131061222090,-0.016662851911192433,0.2153963530937668,0.9423361562523844
1539131061238067,-0.03265430685893023,0.21905851834897394,0.9491721980621044
1539131061254048,-0.047913328755626594,0.21100175478751826,0.9540550850690472
1539131061270029,-0.06060883497367797,0.19891660944533474,0.9566186007476922
1539131061286009,-0.06146334019989297,0.18463416495002694,0.9636987869077593
1539131061301990,-0.0631723506523234,0.1696192874036777,0.9634546425574122
1539131061317971,-0.05938811322194226,0.16144045166704846,0.9573510337987337
1539131061333952,-0.056946669718470844,0.170107576104372,0.9556420233463037
1539131061349932,-0.05560387579156156,0.19012741283283763,0.9571068894483865
1539131061365913,-0.05914396887159512,0.2066071564812697,0.9578393224994279
1539131061381894,-0.06256198977645555,0.20978103303578255,0.9483176928358894
1539131061397874,-0.05474937056534657,0.2003814755474176,0.9386739909971773
1539131061413855,-0.048157473105973736,0.18207064927138195,0.9324483100633252
1539131061429836,-0.044129091325245895,0.16351567864499916,0.9301289387350273
1539131061445817,-0.03533989471274879,0.15655756466010562,0.9378194857709623
1539131061461797,-0.029968719005111666,0.16192874036774274,0.9448996719310294
1539131061477778,-0.0327763790341038,0.17669947356374482,0.9472190432593273
1539131061493759,-0.03533989471274879,0.18878461890592835,0.9505149919890137
1539131061509740,-0.04193179217212162,0.19354543373769761,0.9496604867627987
