Timestamp (microseconds),Gyro X (°/s),Gyro Y (°/s),Gyro Z (°/s)
1539131036626709,-9.124895094224485,13.397421225299468,-3.3264667734797513
1539131036642705,-7.17174029144735,9.85732814526591,0.03051804379333589
1539131036658702,2.5940337224383256,5.462729839017356,4.303044174868319
1539131036674698,17.42580300602731,1.4343480582895154,7.965209430075447
1539131036690694,30.36545357442583,-1.2512397955290453,9.979400320439481
1539131036706691,35.73662928206295,-3.692683299000464,9.85732814526591
1539131036722687,31.158922713053926,-6.683451590753066,8.087281605249018
1539131036738684,21.45418478675515,-9.430075532158298,6.012054627298312
1539131036754680,11.688410772869474,-11.566338597695903,3.936827649347606
1539131036770677,1.1291676203554744,-12.909132524605184,1.8616006713969
1539131036786673,-10.772869459067579,-12.848096437018285,-0.2746623941404778
1539131036802670,-23.163195239185143,-12.176699473563758,-3.0212863355459376
1539131036818666,-34.63797970550104,-10.406652933546866,-5.523765926604028
1539131036834663,-43.305104142824575,-7.049668116273779,-7.598992904554734
1539131036850659,-50.20218204013122,-2.9602502479590385,-9.796292057679011
1539131036866655,-51.97222858014811,1.4953841458761872,-11.993591210803288
1539131036882652,-45.807583733882666,5.096513313496644,-12.909132524605184
1539131036898648,-31.280994888227724,7.660028992141633,-12.359807736324
1539131036914645,-14.862287327382319,8.33142595559616,-10.528725108720437
1539131036930641,-2.8381780727854675,8.51453421835663,-7.598992904554734
1539131036946594,3.2043945983061803,9.491111619745197,-4.60822461280236
1539131036962590,2.8992141603723667,10.040436408026153,-1.4953841458761872
1539131036978586,-1.0681315327688026,10.101472495613052,0.9460593575952316
1539131036994582,-1.8005645838102282,9.430075532158298,3.2654306858930795
1539131037010578,4.303044174868319,8.392462043183059,6.073090714885211
1539131037026574,15.838864728770886,7.537956816968062,7.965209430075447
1539131037042570,24.07873655298681,6.805523765926637,7.537956816968062
1539131037058566,22.186617837796575,5.523765926604028,4.852368963149502
1539131037074562,8.33142595559616,3.2043945983061803,0.8239871824216607
1539131037090558,-7.049668116273779,2.288853284504512,-2.8381780727854675
1539131037106554,-16.815442130159454,2.7771419851987957,-5.2185854886702145
1539131037122550,-23.346303501945386,3.0212863355459376,-6.073090714885211
1539131037138546,-24.13977264057371,3.5095750362402214,-5.2185854886702145
1539131037154542,-20.294499122606112,4.60822461280236,-4.119935912108076
1539131037170538,-19.80621042191183,5.279621576256886,-3.7537193865873633
1539131037186534,-23.163195239185143,6.073090714885211,-3.570611123826893
1539131037202530,-25.543602655069662,6.622415503166167,-3.5095750362402214
1539131037218526,-25.29945830472252,6.683451590753066,-3.3264667734797513
1539131037234521,-22.064545662623004,6.012054627298312,-2.532997634851654
1539131037250517,-15.716792553597315,4.9134050507361735,-1.0070954451819034
1539131037266479,-9.979400320439481,3.692683299000464,0.45777065690094787
1539131037282475,-7.17174029144735,1.983672846570471,1.3122758831159445
1539131037298471,-7.17174029144735,-0.3967345693140487,2.288853284504512
1539131037314467,-8.6366063935302,-2.7771419851987957,3.570611123826893
1539131037330463,-10.406652933546866,-4.974441138323073,4.486152437628789
1539131037346459,-10.833905546654478,-7.049668116273779,4.730296787975931
1539131037362455,-7.4158846417944915,-9.185931181811156,4.60822461280236
1539131037378451,-1.8005645838102282,-11.20012207217519,4.058899824521177
1539131037394447,1.4953841458761872,-12.359807736324,3.2043945983061803
1539131037410443,5.3406576638437855,-12.298771648737329,2.3498893720911838
1539131037426439,7.843137254901876,-10.955977721828049,1.0681315327688026
1539131037442435,10.223544670786623,-9.185931181811156,-0.45777065690094787
1539131037458431,11.505302510109004,-7.843137254901876,-1.739528496223329
1539131037474427,12.115663385976859,-6.9886320286868795,-2.288853284504512
1539131037490423,11.993591210803288,-6.500343327992596,-2.410925459678083
1539131037506419,15.350576028076603,-5.828946364538069,-2.4719615472647547
1539131037522415,18.036163881895163,-5.096513313496644,-2.532997634851654
1539131037538411,17.914091706721592,-4.547188525215461,-2.410925459678083
1539131037554407,15.533684290836845,-3.7537193865873633,-1.8616006713969
1539131037570403,10.406652933546866,-2.8992141603723667,-1.1902037079423735
1539131037586151,7.354848554207592,-1.6784924086366573,-0.7019150072480898
1539131037602146,8.148317692835917,-0.3967345693140487,-0.33569848172737693
1539131037618141,9.85732814526591,0.8850232700083325,-0.2746623941404778
1539131037634136,11.810482948043045,2.3498893720911838,-0.6408789196611906
1539131037650131,9.613183794918768,3.6316472114137923,-1.3733119707026162
1539131037666126,3.7537193865873633,4.119935912108076,-2.532997634851654
1539131037682121,-3.875791561760934,3.997863736934505,-3.875791561760934
1539131037698116,-9.918364232852582,3.570611123826893,-4.791332875562603
1539131037714111,-14.740215152208748,3.570611123826893,-5.401693751430457
1539131037730106,-16.937514305333025,2.655069810025225,-4.9134050507361735
1539131037746101,-10.528725108720437,-0.2746623941404778,-2.7771419851987957
1539131037762096,6.073090714885211,-4.60822461280236,0.8239871824216607
1539131037778091,22.247653925383247,-6.195162890058782,4.42511635004189
1539131037794086,27.74090180819394,-5.157549401083315,5.645838101777599
1539131037810081,22.919050888838,-3.3875028610666504,4.180971999694748
1539131037826076,11.932555123216616,-1.1902037079423735,1.9226367589837992
1539131037842071,2.8992141603723667,-0.213626306553806,0.03051804379333589
1539131037858066,-2.532997634851654,-0.5798428320745188,-0.2746623941404778
1539131037874061,-6.622415503166167,-2.410925459678083,0.5188067444876197
1539131037890056,-11.07804989700162,-4.486152437628789,1.3733119707026162
1539131037905761,-16.754406042572555,-6.622415503166167,1.9226367589837992
1539131037921755,-19.867246509498727,-8.575570305943302,2.410925459678083
1539131037937749,-14.373998626688035,-9.73525597009234,3.4485389486533222
1539131037953744,-5.706874189364498,-10.528725108720437,4.852368963149502
1539131037969738,2.288853284504512,-10.833905546654478,5.279621576256886
1539131037985732,5.279621576256886,-11.01701380941472,4.486152437628789
1539131038001726,4.9134050507361735,-10.955977721828049,2.532997634851654
1539131038017720,4.486152437628789,-10.89494163424115,0.213626306553806
1539131038033714,4.60822461280236,-10.955977721828049,-1.739528496223329
1539131038049708,4.60822461280236,-11.810482948043045,-3.570611123826893
1539131038065702,3.7537193865873633,-12.787060349431613,-5.401693751430457
1539131038081696,2.4719615472647547,-13.397421225299468,-7.11070420386045
1539131038097690,1.4343480582895154,-13.031204699778755,-8.575570305943302
1539131038113684,1.739528496223329,-11.444266422522333,-9.979400320439481
1539131038129678,1.6174563210497581,-8.6366063935302,-11.383230334935433
1539131038145672,-1.4953841458761872,-5.096513313496644,-12.542915999084471
1539131038161666,-6.195162890058782,-0.9460593575952316,-13.58052948805971
1539131038177661,-11.566338597695903,3.4485389486533222,-13.946746013580423
1539131038193655,-13.64156557564661,8.392462043183059,-13.946746013580423
1539131038209649,-7.843137254901876,13.824673838406852,-13.336385137712568
1539131038225402,2.655069810025225,18.58548867017612,-11.993591210803288
1539131038241396,11.322194247348762,22.369726100556818,-10.833905546654478
1539131038257389,9.246967269398056,24.26184481574728,-10.345616845960194
1539131038273382,-0.03051804379333589,24.322880903333953,-10.589761196307336
1539131038289375,-8.270389868009488,23.102159151598244,-10.711833371480907
1539131038305368,-11.261158159761862,21.14900434882111,-10.040436408026153
1539131038321361,-8.941786831464015,18.524452582589447,-8.819714656290444
1539131038337354,-4.730296787975931,15.350576028076603,-7.537956816968062
1539131038353347,1.6174563210497581,11.871519035629717,-6.500343327992596
1539131038369341,7.232776379034021,8.270389868009488,-6.012054627298312
1539131038385334,10.345616845960194,5.3406576638437855,-5.76791027695117
1539131038401327,10.162508583199724,3.3875028610666504,-5.584802014190927
1539131038417320,6.683451590753066,1.9226367589837992,-5.157549401083315
1539131038433313,0.7019150072480898,0.8239871824216607,-4.669260700389032
1539131038449306,-3.692683299000464,0.6408789196611906,-3.814755474174035
1539131038465299,-6.622415503166167,1.1902037079423735,-2.532997634851654
1539131038481292,-11.139085984588291,2.105745021744042,-0.8850232700083325
1539131038497285,-15.655756466010416,2.8992141603723667,0.9460593575952316
1539131038513279,-17.48683909361398,4.119935912108076,2.7771419851987957
1539131038529272,-16.388189517051842,4.9134050507361735,4.364080262455218
1539131038545044,-15.655756466010416,4.974441138323073,5.401693751430457
1539131038561036,-16.510261692225413,3.997863736934505,5.523765926604028
1539131038577028,-18.036163881895163,2.105745021744042,5.523765926604028
1539131038593020,-19.867246509498727,-0.5188067444876197,5.401693751430457
1539131038609012,-19.317921721217544,-3.997863736934505,5.279621576256886
1539131038625004,-14.373998626688035,-7.17174029144735,5.462729839017356
1539131038640997,-9.246967269398056,-9.55214770733187,5.645838101777599
1539131038656989,-7.904173342488775,-11.566338597695903,5.157549401083315
1539131038672981,-7.354848554207592,-12.481879911497572,4.486152437628789
1539131038688973,-6.805523765926637,-12.481879911497572,4.119935912108076
1539131038704965,-5.462729839017356,-11.627374685282575,3.692683299000464
1539131038720957,-3.6316472114137923,-10.284580758373295,3.0823224231326094
1539131038736950,-0.7629510948347615,-8.880750743877343,2.655069810025225
1539131038752942,1.6784924086366573,-7.2938124666209205,2.5940337224383256
1539131038768934,3.0212863355459376,-5.889982452124741,2.4719615472647547
1539131038784926,4.42511635004189,-4.058899824521177,2.7771419851987957
1539131038800918,5.523765926604028,-1.739528496223329,3.2043945983061803
1539131038816910,6.805523765926637,0.45777065690094787,3.2654306858930795
1539131038832903,8.758678568703772,2.227817196917613,3.2043945983061803
1539131038848895,10.284580758373295,3.6316472114137923,3.0823224231326094
1539131038864654,9.918364232852582,4.180971999694748,2.227817196917613
1539131038880645,4.547188525215461,3.692683299000464,1.0070954451819034
1539131038896637,0.03051804379333589,3.0212863355459376,-0.6408789196611906
1539131038912628,-2.9602502479590385,1.739528496223329,-2.105745021744042
1539131038928619,-4.9134050507361735,-0.2746623941404778,-2.9602502479590385
1539131038944610,-5.279621576256886,-2.532997634851654,-3.3264667734797513
1539131038960601,-3.4485389486533222,-4.242008087281647,-3.1433585107195086
1539131038976593,-1.739528496223329,-5.462729839017356,-3.0212863355459376
1539131038992584,-1.4343480582895154,-6.378271152819025,-3.3264667734797513
1539131039008575,-1.6784924086366573,-6.622415503166167,-3.3875028610666504
1539131039024566,-0.8850232700083325,-6.256198977645454,-3.1433585107195086
1539131039040557,-1.2512397955290453,-5.76791027695117,-2.410925459678083
1539131039056549,-0.5188067444876197,-5.3406576638437855,-1.4343480582895154
1539131039072540,-0.09155413138023505,-4.669260700389032,-0.5798428320745188
1539131039088531,0.6408789196611906,-3.692683299000464,0.03051804379333589
1539131039104522,0.8239871824216607,-2.288853284504512,0.5188067444876197
1539131039120514,1.0070954451819034,-0.6408789196611906,0.8239871824216607
1539131039136505,-0.8239871824216607,0.2746623941404778,1.1291676203554744
1539131039152496,-1.3122758831159445,0.45777065690094787,1.0681315327688026
1539131039168487,0.9460593575952316,0.5188067444876197,1.0681315327688026
1539131039184295,3.1433585107195086,0.7629510948347615,0.7019150072480898
1539131039200286,3.570611123826893,0.7019150072480898,0.15259021896690683
1539131039216276,2.655069810025225,0.5188067444876197,-0.213626306553806
1539131039232266,0.8850232700083325,0.5798428320745188,-0.5188067444876197
1539131039248256,-0.5798428320745188,0.33569848172737693,-0.6408789196611906
1539131039264247,0.7019150072480898,0.09155413138023505,-0.3967345693140487
1539131039280237,2.288853284504512,0.09155413138023505,-0.213626306553806
1539131039296227,1.3733119707026162,0.5188067444876197,-0.45777065690094787
1539131039312217,-3.2043945983061803,0.9460593575952316,-0.9460593575952316
1539131039328208,-7.598992904554734,1.0681315327688026,-0.8850232700083325
1539131039344198,-7.537956816968062,1.4953841458761872,0.03051804379333589
1539131039360188,-4.791332875562603,1.3733119707026162,1.6784924086366573
1539131039376178,-1.3733119707026162,-0.2746623941404778,2.166781109330941
1539131039392169,-13.58052948805971,-3.570611123826893,0.9460593575952316
1539131039408159,-38.42221713588174,-4.60822461280236,-1.3733119707026162
1539131039424149,-46.29587243457695,-2.7771419851987957,-2.227817196917613
1539131039440139,-27.191577019912984,1.739528496223329,0.33569848172737693
1539131039456130,9.796292057679011,4.730296787975931,2.7771419851987957
1539131039472120,32.562752727550105,4.547188525215461,5.462729839017356
1539131039488110,48.6152437628748,4.42511635004189,7.843137254901876
1539131039503906,57.89272907606619,4.974441138323073,9.308003356984727
1539131039519896,53.498130769817635,6.073090714885211,9.491111619745197
1539131039535885,39.88708323796436,7.232776379034021,8.6366063935302
1539131039551875,25.543602655069662,7.11070420386045,6.9886320286868795
1539131039567865,12.909132524605184,6.744487678339738,4.791332875562603
1539131039583855,-0.7019150072480898,6.195162890058782,2.3498893720911838
1539131039599845,-18.280308232242305,5.096513313496644,0.33569848172737693
1539131039615834,-32.50171663996343,4.058899824521177,-1.0681315327688026
1539131039631824,-28.16815442130155,3.0823224231326094,-1.4953841458761872
1539131039647814,-19.745174334325156,1.6784924086366573,-1.6784924086366573
1539131039663804,-7.354848554207592,0.8239871824216607,-2.166781109330941
1539131039679793,-1.1902037079423735,-0.03051804379333589,-2.655069810025225
1539131039695783,-2.227817196917613,-0.6408789196611906,-2.655069810025225
1539131039711773,-4.669260700389032,-1.4953841458761872,-2.3498893720911838
1539131039727763,-5.523765926604028,-2.410925459678083,-1.8005645838102282
1539131039743753,-6.256198977645454,-2.8992141603723667,-1.4343480582895154
1539131039759742,-5.645838101777599,-3.2043945983061803,-0.7019150072480898
1539131039775732,-2.5940337224383256,-3.2043945983061803,0.09155413138023505
1539131039791722,1.0070954451819034,-2.5940337224383256,0.3967345693140487
1539131039807712,4.180971999694748,-1.4343480582895154,0.7019150072480898
1539131039823547,5.279621576256886,-0.3967345693140487,0.7629510948347615
1539131039839536,5.157549401083315,0.15259021896690683,0.213626306553806
1539131039855525,3.2654306858930795,0.7019150072480898,-0.45777065690094787
1539131039871513,-1.0070954451819034,1.1902037079423735,-0.8239871824216607
1539131039887502,-6.012054627298312,1.6784924086366573,-1.0681315327688026
1539131039903491,-8.51453421835663,2.04470893415737,-1.1291676203554744
1539131039919480,-9.002822919050914,1.983672846570471,-1.4343480582895154
1539131039935469,-5.76791027695117,1.9226367589837992,-1.1291676203554744
1539131039951458,-1.5564202334630863,1.8616006713969,-1.1291676203554744
1539131039967446,-2.105745021744042,1.5564202334630863,-1.6174563210497581
1539131039983435,-3.570611123826893,1.3122758831159445,-1.3733119707026162
1539131039999424,-1.1291676203554744,1.1291676203554744,-0.5798428320745188
1539131040015413,1.3733119707026162,0.6408789196611906,-0.213626306553806
1539131040031402,2.8381780727854675,0.2746623941404778,-0.3967345693140487
1539131040047391,4.42511635004189,0.2746623941404778,-0.5188067444876197
1539131040063379,4.303044174868319,0.2746623941404778,-0.7019150072480898
1539131040079368,3.692683299000464,0.03051804379333589,-0.8239871824216607
1539131040095357,3.692683299000464,-0.33569848172737693,-0.45777065690094787
1539131040111346,6.317235065232353,0.03051804379333589,0.45777065690094787
1539131040127335,9.613183794918768,0.5798428320745188,1.2512397955290453
1539131040143188,9.73525597009234,0.7629510948347615,1.8005645838102282
1539131040159176,6.683451590753066,0.6408789196611906,1.8616006713969
1539131040175165,2.410925459678083,0.15259021896690683,1.739528496223329
1539131040191153,0.45777065690094787,-0.15259021896690683,1.983672846570471
1539131040207142,0.5188067444876197,-0.45777065690094787,2.3498893720911838
1539131040223130,1.0070954451819034,-0.5188067444876197,2.7161058976118966
1539131040239118,-0.3967345693140487,-0.7019150072480898,2.655069810025225
1539131040255107,-3.7537193865873633,-0.8239871824216607,2.4719615472647547
1539131040271095,-4.303044174868319,-0.7019150072480898,2.3498893720911838
1539131040287083,-2.8992141603723667,-0.6408789196611906,2.227817196917613
1539131040303072,0.2746623941404778,-0.6408789196611906,2.227817196917613
1539131040319060,3.692683299000464,-0.45777065690094787,1.8005645838102282
1539131040335048,3.6316472114137923,-0.03051804379333589,0.5798428320745188
1539131040351037,-2.7161058976118966,-0.03051804379333589,-1.0681315327688026
1539131040367025,-7.904173342488775,0.33569848172737693,-1.983672846570471
1539131040383013,-7.598992904554734,0.6408789196611906,-2.288853284504512
1539131040399002,-5.096513313496644,0.9460593575952316,-1.9226367589837992
1539131040414990,-4.303044174868319,1.3122758831159445,-1.9226367589837992
1539131040430978,-2.4719615472647547,2.532997634851654,-2.288853284504512
1539131040446967,-0.5188067444876197,4.119935912108076,-2.4719615472647547
1539131040462799,-0.5188067444876197,5.401693751430457,-2.5940337224383256
1539131040478787,-0.5798428320745188,6.683451590753066,-2.7771419851987957
1539131040494774,-1.4343480582895154,7.721065079728305,-2.8381780727854675
1539131040510762,-3.692683299000464,8.51453421835663,-2.227817196917613
1539131040526750,-7.598992904554734,9.002822919050914,-1.4953841458761872
1539131040542738,-9.246967269398056,9.246967269398056,-1.0681315327688026
1539131040558726,-5.462729839017356,8.880750743877343,-0.15259021896690683
1539131040574714,2.04470893415737,7.843137254901876,0.8850232700083325
1539131040590702,11.01701380941472,6.805523765926637,1.6174563210497581
1539131040606690,13.275349050125897,5.95101853971164,1.983672846570471
1539131040622677,10.223544670786623,5.523765926604028,1.983672846570471
1539131040638665,5.76791027695117,5.95101853971164,1.739528496223329
1539131040654653,2.8381780727854675,6.012054627298312,1.3733119707026162
1539131040670641,3.0212863355459376,5.279621576256886,1.8616006713969
1539131040686629,5.2185854886702145,4.60822461280236,3.6316472114137923
1539131040702617,6.195162890058782,4.547188525215461,5.3406576638437855
1539131040718605,2.8992141603723667,5.279621576256886,5.706874189364498
1539131040734593,-2.8381780727854675,5.95101853971164,4.852368963149502
1539131040750580,-9.246967269398056,5.95101853971164,3.692683299000464
1539131040766568,-14.190890363927565,5.523765926604028,3.0212863355459376
1539131040782470,-14.679179064621849,4.60822461280236,2.4719615472647547
1539131040798458,-8.33142595559616,3.1433585107195086,2.04470893415737
1539131040814445,-2.166781109330941,1.0070954451819034,2.04470893415737
1539131040830433,3.814755474174035,-0.8850232700083325,1.739528496223329
1539131040846420,5.096513313496644,-2.227817196917613,1.4953841458761872
1539131040862407,3.5095750362402214,-2.532997634851654,1.1291676203554744
1539131040878395,0.33569848172737693,-2.532997634851654,1.1902037079423735
1539131040894382,-1.4343480582895154,-2.227817196917613,1.1291676203554744
1539131040910369,-3.997863736934505,-2.410925459678083,0.8239871824216607
1539131040926357,-5.889982452124741,-2.166781109330941,0.7019150072480898
1539131040942344,-9.308003356984727,-1.4343480582895154,0.7019150072480898
1539131040958332,-20.05035477225897,-0.33569848172737693,0.45777065690094787
1539131040974319,-39.58190280003055,1.1902037079423735,-0.8239871824216607
1539131040990306,-55.75646601052881,3.0212863355459376,-2.288853284504512
1539131041006294,-62.22629129472807,5.0354772259097444,-3.0212863355459376
1539131041022281,-62.9587243457695,7.2938124666209205,-3.570611123826893
1539131041038269,-53.43709468223096,9.796292057679011,-3.5095750362402214
1539131041054256,-37.38460364690627,11.993591210803288,-1.4953841458761872
1539131041070243,-17.120622568093268,13.092240787365427,1.4953841458761872
1539131041086231,-2.288853284504512,13.092240787365427,3.7537193865873633
1539131041102081,14.496070801861606,11.932555123216616,5.3406576638437855
1539131041118068,32.13550011444249,11.139085984588291,5.584802014190927
1539131041134055,39.154650186922936,9.246967269398056,4.486152437628789
1539131041150042,32.31860837720296,6.9886320286868795,3.0212863355459376
1539131041166029,21.33211261158158,4.9134050507361735,2.288853284504512
1539131041182016,11.505302510109004,2.8992141603723667,2.166781109330941
1539131041198002,6.134126802471883,1.8616006713969,2.288853284504512
1539131041213989,-3.7537193865873633,1.8616006713969,1.3122758831159445
1539131041229976,-13.336385137712568,1.6784924086366573,-0.09155413138023505
1539131041245963,-12.787060349431613,2.410925459678083,-0.5798428320745188
1539131041261950,-9.796292057679011,2.3498893720911838,-0.6408789196611906
1539131041277937,-5.401693751430457,2.04470893415737,-0.213626306553806
1539131041293924,3.875791561760934,1.9226367589837992,-0.5188067444876197
1539131041309911,5.3406576638437855,1.6174563210497581,-1.2512397955290453
1539131041325898,3.3264667734797513,1.9226367589837992,-2.288853284504512
1539131041341885,-1.739528496223329,3.7537193865873633,-3.570611123826893
1539131041357872,-10.711833371480907,4.242008087281647,-6.317235065232353
1539131041373859,-15.411612115663274,4.303044174868319,-8.45349813076973
1539131041389845,-28.717479209582507,4.669260700389032,-10.040436408026153
1539131041405832,-56.061646448462625,3.814755474174035,-10.345616845960194
1539131041421692,-85.84725719081393,5.76791027695117,-10.711833371480907
1539131041437678,-93.84298466468317,9.55214770733187,-11.871519035629717
1539131041453664,-88.77698939497964,11.261158159761862,-11.749446860456146
1539131041469651,-76.50873579003587,9.613183794918768,-10.101472495613052
1539131041485637,-65.27809567406734,6.378271152819025,-7.660028992141633
1539131041501624,-35.85870145723675,3.7537193865873633,-5.645838101777599
1539131041517610,2.410925459678083,3.1433585107195086,-4.242008087281647
1539131041533597,37.628747997253186,3.2654306858930795,-1.3733119707026162
1539131041549583,73.5790035858704,3.0823224231326094,2.5940337224383256
1539131041565570,112.03173876554501,2.227817196917613,6.256198977645454
1539131041581556,148.71442740520342,2.4719615472647547,9.796292057679011
1539131041597542,167.02525368123906,3.2043945983061803,11.261158159761862
1539131041613529,158.7853818570229,0.213626306553806,10.162508583199724
1539131041629515,188.0827038986804,-0.3967345693140487,7.11070420386045
1539131041645502,173.31197070267763,2.105745021744042,4.058899824521177
1539131041661488,117.28084229800879,0.213626306553806,3.0212863355459376
1539131041677475,85.60311284046702,-0.6408789196611906,1.5564202334630863
1539131041693461,55.817502098115256,-3.2043945983061803,-0.5188067444876197
1539131041709447,24.628061341267994,-7.049668116273779,-1.983672846570471
1539131041725434,7.782101167315204,-8.087281605249018,-1.6174563210497581
1539131041741333,20.843823910887295,-3.814755474174035,-0.5188067444876197
1539131041757319,40.9857328145265,-0.7019150072480898,1.8616006713969
1539131041773305,80.96437018387132,-0.03051804379333589,3.875791561760934
1539131041789291,114.59525444419023,0.15259021896690683,5.462729839017356
1539131041805276,144.74708171206203,2.3498893720911838,7.843137254901876
1539131041821262,146.88334477759963,4.730296787975931,9.308003356984727
1539131041837248,130.5867093919278,6.805523765926637,8.270389868009488
1539131041853234,115.14457923247119,7.721065079728305,6.378271152819025
1539131041869220,66.62088960097662,5.401693751430457,4.60822461280236
1539131041885206,4.058899824521177,2.04470893415737,1.6784924086366573
1539131041901192,-36.10284580758389,0.33569848172737693,-2.227817196917613
1539131041917178,-57.587548638132375,-0.2746623941404778,-5.279621576256886
1539131041933164,-61.92111085679403,0.7019150072480898,-6.073090714885211
1539131041949150,-47.88281071183337,1.0681315327688026,-1.983672846570471
1539131041965136,-24.689097428854666,0.3967345693140487,3.2654306858930795
1539131041981122,-10.223544670786623,-0.09155413138023505,6.500343327992596
1539131041997108,7.354848554207592,1.1291676203554744,7.843137254901876
1539131042013094,10.406652933546866,1.4343480582895154,9.185931181811156
1539131042029080,7.598992904554734,1.739528496223329,9.369039444571627
1539131042045066,3.5095750362402214,1.0070954451819034,8.758678568703772
1539131042060943,1.1902037079423735,-1.0681315327688026,8.880750743877343
1539131042076929,-5.3406576638437855,-2.410925459678083,8.392462043183059
1539131042092914,-13.64156557564661,-2.532997634851654,5.95101853971164
1539131042108900,-18.036163881895163,-1.5564202334630863,2.655069810025225
1539131042124885,-19.623102159151586,0.09155413138023505,-0.33569848172737693
1539131042140871,-21.210040436408008,1.4343480582895154,-2.5940337224383256
1539131042156856,-8.270389868009488,1.3733119707026162,-1.1291676203554744
1539131042172842,17.42580300602731,1.4343480582895154,3.3875028610666504
1539131042188827,37.01838712138533,1.3122758831159445,6.927595941100208
1539131042204813,45.01411459525434,0.213626306553806,7.598992904554734
1539131042220798,32.684824902723676,-1.9226367589837992,6.073090714885211
1539131042236784,14.98435950255589,-2.5940337224383256,2.7161058976118966
1539131042252769,-1.0681315327688026,-2.4719615472647547,-0.3967345693140487
1539131042268755,-9.918364232852582,-1.8005645838102282,-1.739528496223329
1539131042284740,-4.852368963149502,-1.0681315327688026,-0.6408789196611906
1539131042300726,4.486152437628789,-0.45777065690094787,1.8005645838102282
1539131042316711,7.965209430075447,0.213626306553806,3.2654306858930795
1539131042332697,9.85732814526591,1.0070954451819034,2.410925459678083
1539131042348682,7.354848554207592,0.7629510948347615,0.6408789196611906
1539131042364668,3.6316472114137923,-0.03051804379333589,-0.8239871824216607
1539131042380554,2.4719615472647547,-1.0070954451819034,-1.983672846570471
1539131042396539,1.4953841458761872,-2.227817196917613,-2.4719615472647547
1539131042412524,1.3733119707026162,-3.0823224231326094,-1.9226367589837992
1539131042428509,2.7771419851987957,-3.3264667734797513,-1.3733119707026162
1539131042444494,3.3875028610666504,-3.3264667734797513,-1.0681315327688026
1539131042460479,3.1433585107195086,-3.1433585107195086,-1.0070954451819034
1539131042476464,4.791332875562603,-2.7771419851987957,-0.9460593575952316
1539131042492449,4.9134050507361735,-2.166781109330941,-1.1902037079423735
1539131042508434,3.6316472114137923,-1.1902037079423735,-1.4343480582895154
1539131042524419,0.09155413138023505,-0.3967345693140487,-1.3733119707026162
1539131042540404,-0.8850232700083325,0.213626306553806,-1.1291676203554744
1539131042556389,2.532997634851654,0.7019150072480898,-1.2512397955290453
1539131042572374,6.8665598535133086,1.0681315327688026,-1.3122758831159445
1539131042588359,7.782101167315204,1.3122758831159445,-1.2512397955290453
1539131042604344,7.4158846417944915,1.3122758831159445,-0.7629510948347615
1539131042620329,6.9886320286868795,0.7019150072480898,-0.09155413138023505
1539131042636314,6.134126802471883,0.03051804379333589,0.5188067444876197
1539131042652299,6.622415503166167,-0.213626306553806,0.8850232700083325
1539131042668284,7.476920729381163,-0.5188067444876197,0.5798428320745188
1539131042684269,6.805523765926637,-0.33569848172737693,0.213626306553806
1539131042700164,1.1902037079423735,-0.213626306553806,-0.2746623941404778
1539131042716149,0.15259021896690683,0.2746623941404778,-0.5188067444876197
1539131042732133,4.119935912108076,0.9460593575952316,-0.2746623941404778
1539131042748118,4.303044174868319,1.3122758831159445,-0.03051804379333589
1539131042764103,2.9602502479590385,2.105745021744042,0.213626306553806
1539131042780087,0.213626306553806,2.4719615472647547,0.45777065690094787
1539131042796072,-1.1902037079423735,2.288853284504512,0.5188067444876197
1539131042812056,0.09155413138023505,1.739528496223329,0.8850232700083325
1539131042828041,-1.0681315327688026,1.0681315327688026,0.7019150072480898
1539131042844025,-3.3875028610666504,0.15259021896690683,-0.5798428320745188
1539131042860010,-7.232776379034021,-0.6408789196611906,-1.6784924086366573
1539131042875994,-8.087281605249018,-1.1902037079423735,-1.8616006713969
1539131042891979,-5.645838101777599,-1.1902037079423735,-1.1902037079423735
1539131042907963,-0.7019150072480898,-1.2512397955290453,-0.03051804379333589
1539131042923948,4.486152437628789,-1.5564202334630863,1.0070954451819034
1539131042939932,6.8665598535133086,-1.8005645838102282,1.6784924086366573
1539131042955917,6.561379415579495,-1.4343480582895154,1.8616006713969
1539131042971902,4.42511635004189,-1.1291676203554744,1.4953841458761872
1539131042987886,2.166781109330941,-1.0070954451819034,0.7629510948347615
1539131043003871,1.0681315327688026,-0.8850232700083325,0.213626306553806
1539131043019806,0.8239871824216607,-0.6408789196611906,-0.15259021896690683
1539131043035790,-0.03051804379333589,-1.1902037079423735,-1.3122758831159445
1539131043051775,-0.45777065690094787,-2.288853284504512,-2.166781109330941
1539131043067759,-0.15259021896690683,-3.0823224231326094,-2.4719615472647547
1539131043083744,0.6408789196611906,-3.1433585107195086,-2.410925459678083
1539131043099728,1.4953841458761872,-3.0823224231326094,-2.105745021744042
1539131043115713,3.0823224231326094,-3.0823224231326094,-1.4343480582895154
1539131043131697,6.195162890058782,-2.7161058976118966,-0.2746623941404778
1539131043147682,6.378271152819025,-1.9226367589837992,0.15259021896690683
1539131043163666,3.692683299000464,-1.3122758831159445,-0.213626306553806
1539131043179651,0.5188067444876197,-1.1291676203554744,-0.6408789196611906
1539131043195635,0.6408789196611906,-0.9460593575952316,-0.33569848172737693
1539131043211620,1.9226367589837992,-0.5188067444876197,0.09155413138023505
1539131043227604,1.1291676203554744,-0.15259021896690683,0.09155413138023505
1539131043243589,-0.03051804379333589,0.33569848172737693,-0.09155413138023505
1539131043259574,-0.7019150072480898,0.6408789196611906,-0.09155413138023505
1539131043275558,-0.8850232700083325,0.8239871824216607,-0.09155413138023505
1539131043291543,-0.2746623941404778,1.1902037079423735,0.03051804379333589
1539131043307527,1.739528496223329,1.3733119707026162,0.5188067444876197
1539131043323512,1.6174563210497581,1.6784924086366573,1.1291676203554744
1539131043339447,0.6408789196611906,2.04470893415737,1.2512397955290453
1539131043355431,-0.2746623941404778,2.288853284504512,1.2512397955290453
1539131043371415,-1.1291676203554744,2.288853284504512,1.4343480582895154
1539131043387399,-0.8850232700083325,2.227817196917613,1.5564202334630863
1539131043403383,0.6408789196611906,1.9226367589837992,1.8616006713969
1539131043419367,1.739528496223329,1.739528496223329,2.105745021744042
1539131043435351,2.532997634851654,1.4953841458761872,2.227817196917613
1539131043451335,2.532997634851654,1.1902037079423735,1.9226367589837992
1539131043467319,1.0070954451819034,0.9460593575952316,1.4343480582895154
1539131043483303,0.2746623941404778,0.8850232700083325,1.0681315327688026
1539131043499287,-1.4953841458761872,0.5798428320745188,0.8239871824216607
1539131043515271,-2.4719615472647547,0.09155413138023505,0.7019150072480898
1539131043531255,-1.1291676203554744,-0.5188067444876197,0.8239871824216607
1539131043547239,0.9460593575952316,-0.5188067444876197,0.7019150072480898
1539131043563223,-0.33569848172737693,-0.3967345693140487,0.09155413138023505
1539131043579208,-1.3733119707026162,0.15259021896690683,-0.3967345693140487
1539131043595192,-1.1902037079423735,0.7629510948347615,-0.45777065690094787
1539131043611176,-0.03051804379333589,1.5564202334630863,-0.3967345693140487
1539131043627160,0.09155413138023505,2.5940337224383256,-0.5798428320745188
1539131043643144,-1.6174563210497581,3.570611123826893,-0.7629510948347615
1539131043659057,-3.6316472114137923,4.364080262455218,-0.7019150072480898
1539131043675041,-3.2654306858930795,5.2185854886702145,-0.3967345693140487
1539131043691025,-3.997863736934505,5.157549401083315,-0.45777065690094787
1539131043707009,-3.814755474174035,4.9134050507361735,-0.5798428320745188
1539131043722993,-1.983672846570471,4.547188525215461,-0.5188067444876197
1539131043738978,-2.7161058976118966,3.875791561760934,-0.8850232700083325
1539131043754962,-3.692683299000464,3.2654306858930795,-1.2512397955290453
1539131043770946,-3.2654306858930795,2.655069810025225,-1.3122758831159445
1539131043786930,-2.410925459678083,2.04470893415737,-1.1291676203554744
1539131043802914,-1.983672846570471,1.2512397955290453,-0.8850232700083325
1539131043818898,-1.8005645838102282,0.5188067444876197,-0.7629510948347615
1539131043834882,-0.45777065690094787,0.213626306553806,-0.5188067444876197
1539131043850866,-0.3967345693140487,-0.213626306553806,-0.45777065690094787
1539131043866850,-0.7019150072480898,-0.5188067444876197,-0.15259021896690683
1539131043882834,0.45777065690094787,-0.5188067444876197,0.33569848172737693
1539131043898818,0.8850232700083325,-0.5798428320745188,0.7019150072480898
1539131043914802,0.5188067444876197,-0.5188067444876197,0.8850232700083325
1539131043930786,-0.7019150072480898,-0.2746623941404778,0.6408789196611906
1539131043946770,-1.9226367589837992,-0.45777065690094787,0.213626306553806
1539131043962754,-0.9460593575952316,-0.8850232700083325,0.09155413138023505
1539131043978698,-0.3967345693140487,-0.9460593575952316,0.15259021896690683
1539131043994682,0.3967345693140487,-0.6408789196611906,0.33569848172737693
1539131044010666,1.3733119707026162,-0.5798428320745188,0.8239871824216607
1539131044026649,1.3122758831159445,-0.5798428320745188,0.8239871824216607
1539131044042633,1.1291676203554744,-0.5798428320745188,0.5798428320745188
1539131044058616,1.0070954451819034,-0.9460593575952316,-0.213626306553806
1539131044074600,-0.2746623941404778,-1.2512397955290453,-1.0681315327688026
1539131044090583,-1.8005645838102282,-0.6408789196611906,-1.2512397955290453
1539131044106567,-1.8616006713969,0.45777065690094787,-0.8850232700083325
1539131044122551,4.119935912108076,1.9226367589837992,-0.33569848172737693
1539131044138534,14.373998626688035,3.3264667734797513,1.0070954451819034
1539131044154518,20.782787823300396,3.7537193865873633,2.8381780727854675
1539131044170501,17.54787518120088,2.7161058976118966,3.0212863355459376
1539131044186485,6.378271152819025,1.4343480582895154,0.8850232700083325
1539131044202468,-5.76791027695117,0.9460593575952316,-1.4343480582895154
1539131044218452,-9.73525597009234,0.5188067444876197,-2.288853284504512
1539131044234436,-6.439307240405924,0.15259021896690683,-1.4953841458761872
1539131044250419,-0.45777065690094787,0.03051804379333589,-0.2746623941404778
1539131044266403,4.180971999694748,-0.15259021896690683,0.5798428320745188
1539131044282386,4.852368963149502,-0.15259021896690683,0.3967345693140487
1539131044298309,0.45777065690094787,0.33569848172737693,-0.3967345693140487
1539131044314293,-4.974441138323073,1.1902037079423735,-0.7629510948347615
1539131044330276,-7.354848554207592,1.739528496223329,-0.2746623941404778
1539131044346260,-2.7161058976118966,1.8005645838102282,1.0681315327688026
1539131044362243,3.570611123826893,1.4953841458761872,1.8616006713969
1539131044378227,2.3498893720911838,0.9460593575952316,1.1291676203554744
1539131044394210,-1.3733119707026162,1.1291676203554744,0.15259021896690683
1539131044410194,-3.1433585107195086,1.3733119707026162,-0.03051804379333589
1539131044426178,-2.04470893415737,1.4953841458761872,0.5188067444876197
1539131044442161,1.1902037079423735,1.1902037079423735,1.1902037079423735
1539131044458145,1.739528496223329,0.8850232700083325,1.1291676203554744
1539131044474128,-2.288853284504512,1.1902037079423735,-0.09155413138023505
1539131044490112,-9.918364232852582,0.8850232700083325,-1.2512397955290453
1539131044506096,-13.702601663233281,0.6408789196611906,-1.6174563210497581
1539131044522079,-11.810482948043045,0.7629510948347615,-1.2512397955290453
1539131044538063,-7.660028992141633,0.9460593575952316,-0.7019150072480898
1539131044554046,-5.76791027695117,0.8239871824216607,-0.5798428320745188
1539131044570030,-7.598992904554734,1.1902037079423735,-1.0681315327688026
1539131044586013,-9.979400320439481,1.983672846570471,-2.105745021744042
1539131044601997,-8.880750743877343,2.7161058976118966,-2.5940337224383256
1539131044617920,-4.058899824521177,2.7771419851987957,-2.227817196917613
1539131044633903,0.15259021896690683,2.532997634851654,-1.739528496223329
1539131044649886,1.0681315327688026,2.288853284504512,-1.4343480582895154
1539131044665869,0.2746623941404778,2.4719615472647547,-1.3122758831159445
1539131044681852,-0.5798428320745188,2.4719615472647547,-1.1902037079423735
1539131044697835,0.213626306553806,2.105745021744042,-1.0681315327688026
1539131044713818,1.3122758831159445,1.739528496223329,-0.8239871824216607
1539131044729801,1.739528496223329,1.6174563210497581,-1.0070954451819034
1539131044745784,0.7019150072480898,1.3733119707026162,-1.4953841458761872
1539131044761767,-0.09155413138023505,1.3122758831159445,-1.6174563210497581
1539131044777751,0.213626306553806,1.4953841458761872,-1.4343480582895154
1539131044793734,-0.213626306553806,1.2512397955290453,-1.1291676203554744
1539131044809717,-0.09155413138023505,0.7629510948347615,-0.5188067444876197
1539131044825700,1.3122758831159445,0.5798428320745188,0.15259021896690683
1539131044841683,0.5798428320745188,0.15259021896690683,0.45777065690094787
1539131044857666,-0.6408789196611906,0.33569848172737693,0.45777065690094787
1539131044873649,-3.0823224231326094,0.09155413138023505,0.5188067444876197
1539131044889632,-5.279621576256886,-0.6408789196611906,0.8850232700083325
1539131044905615,-5.523765926604028,-0.5188067444876197,1.3122758831159445
1539131044921599,-8.148317692835917,-0.3967345693140487,1.0681315327688026
1539131044937561,-9.185931181811156,0.03051804379333589,0.5188067444876197
1539131044953544,-8.209353780422589,0.15259021896690683,0.5188067444876197
1539131044969527,-5.523765926604028,0.2746623941404778,1.0070954451819034
1539131044985510,-2.3498893720911838,0.7019150072480898,1.4953841458761872
1539131045001493,-0.3967345693140487,1.0070954451819034,1.6174563210497581
1539131045017476,0.09155413138023505,1.0681315327688026,0.8239871824216607
1539131045033459,-0.6408789196611906,1.3733119707026162,0.03051804379333589
1539131045049442,-2.288853284504512,1.4953841458761872,-0.5798428320745188
1539131045065425,-2.655069810025225,1.8616006713969,-0.6408789196611906
1539131045081409,-1.1291676203554744,2.04470893415737,-0.5188067444876197
1539131045097392,1.4953841458761872,1.983672846570471,-0.213626306553806
1539131045113375,2.8992141603723667,2.3498893720911838,-0.03051804379333589
1539131045129358,1.983672846570471,2.4719615472647547,-0.3967345693140487
1539131045145341,0.45777065690094787,1.9226367589837992,-1.0070954451819034
1539131045161324,0.5188067444876197,1.6784924086366573,-1.0681315327688026
1539131045177307,1.1291676203554744,1.6784924086366573,-0.7019150072480898
1539131045193290,-2.410925459678083,1.6784924086366573,-0.8850232700083325
1539131045209273,-6.012054627298312,1.8616006713969,-1.6784924086366573
1539131045225257,-7.476920729381163,2.105745021744042,-2.04470893415737
1539131045241240,-6.012054627298312,2.7771419851987957,-1.8005645838102282
1539131045257141,-4.42511635004189,3.0212863355459376,-1.2512397955290453
1539131045273124,-5.3406576638437855,2.532997634851654,-0.9460593575952316
1539131045289107,-5.76791027695117,1.8616006713969,-1.8005645838102282
1539131045305090,-7.049668116273779,1.3733119707026162,-2.9602502479590385
1539131045321073,-5.0354772259097444,1.2512397955290453,-3.0212863355459376
1539131045337056,-1.739528496223329,1.0681315327688026,-2.3498893720911838
1539131045353039,0.3967345693140487,0.7629510948347615,-1.5564202334630863
1539131045369022,2.5940337224383256,0.33569848172737693,-0.6408789196611906
1539131045385006,5.462729839017356,0.09155413138023505,-0.15259021896690683
1539131045400989,6.744487678339738,-0.03051804379333589,-0.2746623941404778
1539131045416972,4.791332875562603,-0.3967345693140487,-0.3967345693140487
1539131045432955,1.0681315327688026,-0.5798428320745188,-0.2746623941404778
1539131045448938,-0.213626306553806,-0.3967345693140487,0.213626306553806
1539131045464921,0.8850232700083325,-0.45777065690094787,0.8850232700083325
1539131045480904,4.058899824521177,-0.7019150072480898,1.6174563210497581
1539131045496887,6.256198977645454,-0.8850232700083325,1.8616006713969
1539131045512870,5.0354772259097444,-1.1291676203554744,1.5564202334630863
1539131045528854,3.570611123826893,-1.1902037079423735,1.4953841458761872
1539131045544837,2.410925459678083,-0.7019150072480898,1.739528496223329
1539131045560820,1.8005645838102282,-0.09155413138023505,2.04470893415737
1539131045576782,1.983672846570471,0.5798428320745188,2.655069810025225
1539131045592764,2.8992141603723667,0.9460593575952316,2.8381780727854675
1539131045608747,2.04470893415737,1.0681315327688026,2.3498893720911838
1539131045624730,0.5798428320745188,1.2512397955290453,1.739528496223329
1539131045640712,-0.2746623941404778,1.3733119707026162,1.4343480582895154
1539131045656695,-0.2746623941404778,1.4953841458761872,1.3733119707026162
1539131045672678,1.8616006713969,1.8005645838102282,1.5564202334630863
1539131045688660,1.0070954451819034,1.8005645838102282,1.1902037079423735
1539131045704643,-1.6174563210497581,1.6174563210497581,0.5188067444876197
1539131045720626,-16.26611734187827,0.6408789196611906,-2.4719615472647547
1539131045736608,-22.67490653849086,-0.2746623941404778,3.3264667734797513
1539131045752591,1.9226367589837992,-0.7019150072480898,1.6784924086366573
1539131045768573,-17.54787518120088,-2.105745021744042,-1.2512397955290453
1539131045784556,-23.346303501945386,-0.7629510948347615,-0.6408789196611906
1539131045800539,-3.570611123826893,-0.6408789196611906,-0.3967345693140487
1539131045816521,-1.3733119707026162,-1.6174563210497581,1.0681315327688026
1539131045832504,6.378271152819025,-2.105745021744042,2.8381780727854675
1539131045848487,11.871519035629717,-2.4719615472647547,4.303044174868319
1539131045864469,13.153276874952326,-2.7161058976118966,4.60822461280236
1539131045880452,10.528725108720437,-3.3875028610666504,3.936827649347606
1539131045896423,7.2938124666209205,-4.364080262455218,3.2654306858930795
1539131045912406,4.791332875562603,-4.852368963149502,2.8992141603723667
1539131045928388,4.60822461280236,-3.936827649347606,3.3875028610666504
1539131045944371,2.7771419851987957,-3.2654306858930795,4.180971999694748
1539131045960353,2.8381780727854675,-2.532997634851654,4.669260700389032
1539131045976336,0.33569848172737693,-2.04470893415737,4.730296787975931
1539131045992319,-3.814755474174035,-1.739528496223329,3.7537193865873633
1539131046008301,-6.9886320286868795,-0.5798428320745188,2.8381780727854675
1539131046024284,-10.89494163424115,-0.15259021896690683,2.410925459678083
1539131046040267,-9.73525597009234,0.15259021896690683,3.0212863355459376
1539131046056249,2.105745021744042,0.7019150072480898,4.60822461280236
1539131046072232,15.350576028076603,1.5564202334630863,6.9886320286868795
1539131046088214,24.07873655298681,2.166781109330941,6.927595941100208
1539131046104197,18.70756084534969,2.04470893415737,5.401693751430457
1539131046120180,12.848096437018285,1.1902037079423735,3.3875028610666504
1539131046136162,4.303044174868319,1.8005645838102282,2.288853284504512
1539131046152145,0.7019150072480898,3.1433585107195086,1.3733119707026162
1539131046168128,-6.378271152819025,3.6316472114137923,-0.03051804379333589
1539131046184110,-11.261158159761862,4.058899824521177,-1.6174563210497581
1539131046200093,-12.909132524605184,4.119935912108076,-2.288853284504512
1539131046216034,-13.092240787365427,3.3875028610666504,-1.9226367589837992
1539131046232016,-10.406652933546866,3.692683299000464,-2.04470893415737
1539131046247999,-8.819714656290444,4.119935912108076,-3.0823224231326094
1539131046263981,-11.322194247348762,4.852368963149502,-4.547188525215461
1539131046279964,-14.80125123979542,5.523765926604028,-5.523765926604028
1539131046295947,-12.542915999084471,6.073090714885211,-5.584802014190927
1539131046311929,-10.833905546654478,6.073090714885211,-5.462729839017356
1539131046327912,-9.369039444571627,5.889982452124741,-5.76791027695117
1539131046343895,-8.209353780422589,5.828946364538069,-6.8665598535133086
1539131046359877,-9.491111619745197,6.744487678339738,-7.965209430075447
1539131046375860,-4.303044174868319,8.148317692835917,-7.843137254901876
1539131046391842,0.5188067444876197,8.51453421835663,-6.805523765926637
1539131046407825,5.096513313496644,8.51453421835663,-5.76791027695117
1539131046423808,4.180971999694748,9.185931181811156,-5.889982452124741
1539131046439790,-3.997863736934505,10.589761196307336,-8.209353780422589
1539131046455773,-17.730983443961122,11.566338597695903,-9.55214770733187
1539131046471756,-22.003509575036105,11.444266422522333,-9.67421988250544
1539131046487738,-10.772869459067579,9.918364232852582,-7.782101167315204
1539131046503721,0.8850232700083325,6.8665598535133086,-5.279621576256886
1539131046519703,9.918364232852582,4.303044174868319,-3.3875028610666504
1539131046535644,7.660028992141633,2.7771419851987957,-3.2043945983061803
1539131046551626,4.852368963149502,1.4953841458761872,-3.3264667734797513
1539131046567608,3.936827649347606,-0.15259021896690683,-2.9602502479590385
1539131046583591,6.256198977645454,-2.227817196917613,-2.288853284504512
1539131046599573,9.308003356984727,-3.2654306858930795,-1.4953841458761872
1539131046615555,7.2938124666209205,-2.9602502479590385,-1.3122758831159445
1539131046631537,4.242008087281647,-2.655069810025225,-0.8850232700083325
1539131046647519,3.2654306858930795,-3.2043945983061803,0.15259021896690683
1539131046663501,4.974441138323073,-3.5095750362402214,0.8239871824216607
1539131046679484,5.828946364538069,-3.2654306858930795,0.7019150072480898
1539131046695466,3.6316472114137923,-2.5940337224383256,0.33569848172737693
1539131046711448,1.0681315327688026,-2.105745021744042,0.45777065690094787
1539131046727430,-0.3967345693140487,-2.288853284504512,1.3733119707026162
1539131046743412,1.3733119707026162,-2.4719615472647547,2.532997634851654
1539131046759394,4.180971999694748,-2.4719615472647547,3.3264667734797513
1539131046775376,3.814755474174035,-2.4719615472647547,3.5095750362402214
1539131046791359,2.8381780727854675,-2.410925459678083,3.4485389486533222
1539131046807341,0.6408789196611906,-1.9226367589837992,3.1433585107195086
1539131046823323,-2.227817196917613,-1.9226367589837992,3.0212863355459376
1539131046839305,-2.7161058976118966,-2.166781109330941,3.1433585107195086
1539131046855285,-0.3967345693140487,-2.166781109330941,3.692683299000464
1539131046871267,2.655069810025225,-1.8005645838102282,4.242008087281647
1539131046887250,3.570611123826893,-1.2512397955290453,3.936827649347606
1539131046903232,1.4953841458761872,-1.0681315327688026,3.0823224231326094
1539131046919214,-0.45777065690094787,-0.8239871824216607,2.5940337224383256
1539131046935196,0.213626306553806,-0.2746623941404778,2.5940337224383256
1539131046951178,2.4719615472647547,0.15259021896690683,3.0212863355459376
1539131046967160,2.655069810025225,0.3967345693140487,3.2043945983061803
1539131046983142,1.3733119707026162,0.6408789196611906,2.532997634851654
1539131046999125,-1.4343480582895154,0.8850232700083325,1.8616006713969
1539131047015107,-2.8992141603723667,1.2512397955290453,1.9226367589837992
1539131047031089,-1.3122758831159445,1.3733119707026162,2.655069810025225
1539131047047071,3.3875028610666504,1.3733119707026162,3.3875028610666504
1539131047063053,3.0823224231326094,0.9460593575952316,3.0823224231326094
1539131047079035,1.0681315327688026,0.7629510948347615,1.983672846570471
1539131047095018,-0.7019150072480898,0.8850232700083325,1.3122758831159445
1539131047111000,-1.9226367589837992,0.7629510948347615,1.1902037079423735
1539131047126982,0.7019150072480898,0.15259021896690683,1.6784924086366573
1539131047142964,2.532997634851654,-0.5798428320745188,1.6784924086366573
1539131047158946,3.2654306858930795,-0.6408789196611906,1.0681315327688026
1539131047174896,3.2043945983061803,-0.33569848172737693,0.7019150072480898
1539131047190878,2.532997634851654,-0.2746623941404778,0.5188067444876197
1539131047206860,4.058899824521177,-0.33569848172737693,0.7019150072480898
1539131047222842,5.889982452124741,-0.45777065690094787,0.7019150072480898
1539131047238824,10.89494163424115,-0.213626306553806,0.9460593575952316
1539131047254807,16.02197299153113,0.03051804379333589,1.4343480582895154
1539131047270789,16.2050812542916,-0.15259021896690683,2.105745021744042
1539131047286771,14.679179064621849,0.213626306553806,2.7771419851987957
1539131047302753,12.176699473563758,0.5188067444876197,2.9602502479590385
1539131047318735,11.07804989700162,0.5798428320745188,2.8381780727854675
1539131047334717,7.843137254901876,0.3967345693140487,2.227817196917613
1539131047350700,3.875791561760934,0.5188067444876197,1.1902037079423735
1539131047366682,1.6784924086366573,0.45777065690094787,0.5798428320745188
1539131047382664,0.9460593575952316,0.45777065690094787,0.8239871824216607
1539131047398646,3.0212863355459376,1.1902037079423735,1.739528496223329
1539131047414628,4.303044174868319,2.166781109330941,2.410925459678083
1539131047430610,4.791332875562603,2.288853284504512,2.105745021744042
1539131047446592,4.852368963149502,1.2512397955290453,1.5564202334630863
1539131047462575,3.875791561760934,-1.1291676203554744,0.8239871824216607
1539131047478557,4.303044174868319,-2.7771419851987957,0.5798428320745188
1539131047494506,6.8665598535133086,-3.875791561760934,0.8239871824216607
1539131047510489,7.17174029144735,-5.401693751430457,0.8239871824216607
1539131047526471,7.11070420386045,-7.049668116273779,0.8239871824216607
1539131047542453,7.904173342488775,-7.965209430075447,0.9460593575952316
1539131047558435,7.843137254901876,-9.002822919050914,1.0070954451819034
1539131047574417,9.063859006637585,-9.430075532158298,1.2512397955290453
1539131047590399,8.941786831464015,-9.67421988250544,0.7019150072480898
1539131047606382,12.664988174258042,-10.162508583199724,-0.33569848172737693
1539131047622364,17.120622568093268,-11.810482948043045,-0.9460593575952316
1539131047638346,12.115663385976859,-11.383230334935433,-0.3967345693140487
1539131047654328,48.85938811322194,0.33569848172737693,-4.791332875562603
1539131047670310,27.435721370260126,13.519493400473038,-8.026245517662346
1539131047686292,15.10643167772946,29.08369573510322,-9.246967269398056
1539131047702274,11.688410772869474,45.68551155870887,-6.012054627298312
1539131047718257,1.3733119707026162,64.05737392233186,1.2512397955290453
1539131047734239,6.317235065232353,86.0914015411613,10.589761196307336
1539131047750221,13.336385137712568,105.31776913099884,18.76859693293659
1539131047766203,17.24269474326684,116.97566186007498,25.36049439230942
1539131047782185,25.970855268177274,126.37521934843971,32.31860837720296
1539131047798167,36.04180971999676,136.69031815060634,37.1404592965589
1539131047814148,39.33775844968318,141.32906080720204,37.1404592965589
1539131047830130,27.80193789578084,136.4461738002592,36.89631494621176
1539131047846112,27.679865720607268,128.9997711146716,36.591134508277946
1539131047862094,32.379644464789635,119.05088883802546,36.285954070343905
1539131047878076,26.7032883192187,105.31776913099884,34.88212405584795
1539131047894058,14.373998626688035,89.38735027084795,32.86793316548392
1539131047910040,10.040436408026153,73.15175097276278,30.243381399252257
1539131047926023,14.007782101167322,57.46547646295858,27.92401007095441
1539131047942005,32.379644464789635,38.727397573815324,25.36049439230942
1539131047957987,42.99992370489031,17.730983443961122,21.637293049515392
1539131047973969,39.21568627450961,-6.317235065232353,11.139085984588291
1539131047989951,15.594720378423744,-33.35622186617843,-1.4343480582895154
1539131048005933,3.997863736934505,-66.07156481269544,-12.054627298390187
1539131048021916,-15.045395590142562,-110.01754787518121,-15.228503852903032
1539131048037898,-32.31860837720319,-173.9833676661326,-28.290226596475122
1539131048053880,-85.05378805218584,-258.2742046234837,-56.183718623636196
1539131048069862,-98.05447470817126,-351.1100938429847,-88.89906157015321
1539131048085844,-140.7186999313344,-338.65873197528026,-82.00198367284656
1539131048101826,-50.934615091172645,-59.35759517814904,24.444953078507524
1539131048117808,260.41046768902106,78.33981841763944,25.543602655069662
1539131048133728,-31.158922713053926,42.32852674143578,19.684138246738257
1539131048149709,113.4355687800412,28.778515297169406,-3.570611123826893
1539131048165691,89.57045853360796,22.8580148012511,-3.1433585107195086
1539131048181673,109.22407873655311,32.379644464789635,-1.8005645838102282
1539131048197654,102.26596475165934,43.36614023041102,1.1902037079423735
1539131048213636,86.57969024185559,56.36682688639621,3.0212863355459376
1539131048229618,57.58754863813192,64.11841000991853,2.166781109330941
1539131048245599,37.811856260013656,60.27313649195048,-0.8239871824216607
1539131048261581,22.61387045090396,47.943846799420044,-4.119935912108076
1539131048277563,21.33211261158158,30.670634012359642,-8.392462043183059
1539131048293544,6.073090714885211,11.322194247348762,-12.176699473563758
1539131048309526,-13.64156557564661,-7.843137254901876,-14.251926451514464
1539131048325508,-22.79697871366443,-23.7125200274661,-13.702601663233281
1539131048341489,-23.590447852292527,-34.45487144274057,-11.688410772869474
1539131048357471,-8.209353780422589,-38.66636148622888,-10.040436408026153
1539131048373453,-6.805523765926637,-39.64293888761745,-8.45349813076973
1539131048389434,-14.862287327382319,-38.54428931105531,-7.4158846417944915
1539131048405416,-16.571297779812312,-33.90554665445961,-7.17174029144735
1539131048421398,-18.158236057068734,-28.900587472342977,-6.622415503166167
1539131048437379,-9.063859006637585,-25.116350041962278,-5.3406576638437855
1539131048453338,-3.2654306858930795,-21.637293049515392,-3.936827649347606
1539131048469320,-6.012054627298312,-18.82963302052326,-3.4485389486533222
1539131048485302,-13.397421225299468,-17.24269474326684,-4.119935912108076
1539131048501283,-16.388189517051842,-15.411612115663274,-4.180971999694748
1539131048517265,-6.622415503166167,-10.955977721828049,-2.9602502479590385
1539131048533247,-0.8850232700083325,-5.889982452124741,-1.1902037079423735
1539131048549228,-4.669260700389032,-1.4953841458761872,0.213626306553806
1539131048565210,-9.002822919050914,2.105745021744042,1.3733119707026162
1539131048581192,-8.33142595559616,4.242008087281647,2.105745021744042
1539131048597173,-3.1433585107195086,4.486152437628789,2.288853284504512
1539131048613155,2.227817196917613,3.3264667734797513,2.4719615472647547
1539131048629137,0.45777065690094787,1.6784924086366573,1.6174563210497581
1539131048645118,-6.073090714885211,-0.5188067444876197,0.3967345693140487
1539131048661100,-7.598992904554734,-2.288853284504512,0.15259021896690683
1539131048677082,-0.2746623941404778,-3.3264667734797513,0.9460593575952316
1539131048693063,5.95101853971164,-4.242008087281647,1.739528496223329
1539131048709045,6.012054627298312,-5.645838101777599,0.8850232700083325
1539131048725027,-3.692683299000464,-7.11070420386045,-0.2746623941404778
1539131048741008,-7.17174029144735,-8.026245517662346,-0.6408789196611906
1539131048756990,-2.227817196917613,-10.101472495613052,1.0070954451819034
1539131048772979,8.758678568703772,-12.054627298390187,3.2043945983061803
1539131048788961,12.054627298390187,-12.603952086671143,4.42511635004189
1539131048804943,8.270389868009488,-9.430075532158298,4.42511635004189
1539131048820924,1.2512397955290453,-2.4719615472647547,3.692683299000464
1539131048836906,-2.655069810025225,5.462729839017356,2.5940337224383256
1539131048852888,-1.6784924086366573,10.406652933546866,1.8005645838102282
1539131048868869,4.242008087281647,11.322194247348762,2.105745021744042
1539131048884851,3.0823224231326094,9.185931181811156,1.9226367589837992
1539131048900833,-0.03051804379333589,4.669260700389032,1.3733119707026162
1539131048916814,-3.0212863355459376,-1.0070954451819034,0.8239871824216607
1539131048932796,-4.242008087281647,-3.997863736934505,1.4343480582895154
1539131048948778,0.33569848172737693,-2.166781109330941,2.655069810025225
1539131048964759,6.378271152819025,1.739528496223329,3.7537193865873633
1539131048980741,8.6366063935302,4.42511635004189,3.875791561760934
1539131048996723,5.584802014190927,5.0354772259097444,3.2654306858930795
1539131049012704,2.5940337224383256,3.692683299000464,2.655069810025225
1539131049028686,3.3875028610666504,0.7019150072480898,2.288853284504512
1539131049044668,3.0823224231326094,-1.6784924086366573,2.288853284504512
1539131049060649,0.7629510948347615,-2.410925459678083,2.105745021744042
1539131049076631,-0.7629510948347615,-1.0070954451819034,2.04470893415737
1539131049092590,-1.0070954451819034,0.8850232700083325,2.288853284504512
1539131049108572,-1.0070954451819034,1.4343480582895154,2.166781109330941
1539131049124553,0.213626306553806,0.213626306553806,1.739528496223329
1539131049140535,-0.45777065690094787,-1.4953841458761872,1.0070954451819034
1539131049156517,-1.4343480582895154,-2.105745021744042,0.6408789196611906
1539131049172498,-1.1291676203554744,-1.6174563210497581,0.8850232700083325
1539131049188480,-2.166781109330941,-0.7629510948347615,0.9460593575952316
1539131049204462,-1.8616006713969,0.15259021896690683,0.8239871824216607
1539131049220443,0.2746623941404778,0.09155413138023505,0.7629510948347615
1539131049236425,2.288853284504512,-0.7019150072480898,0.8850232700083325
1539131049252407,1.1291676203554744,-1.1902037079423735,0.7019150072480898
1539131049268388,1.0681315327688026,-0.15259021896690683,0.5798428320745188
1539131049284370,0.5188067444876197,1.0681315327688026,0.45777065690094787
1539131049300352,-3.3264667734797513,1.3733119707026162,-0.09155413138023505
1539131049316333,-5.401693751430457,0.8850232700083325,-0.7019150072480898
1539131049332315,-2.166781109330941,0.7629510948347615,-0.5798428320745188
1539131049348297,-0.2746623941404778,0.8850232700083325,-0.3967345693140487
1539131049364278,-0.7629510948347615,1.1291676203554744,-0.2746623941404778
1539131049380260,-0.03051804379333589,1.4953841458761872,-0.15259021896690683
1539131049396242,-0.15259021896690683,1.983672846570471,0.213626306553806
1539131049412201,-0.5188067444876197,1.983672846570471,0.5188067444876197
1539131049428182,-1.1902037079423735,1.6784924086366573,0.6408789196611906
1539131049444164,-0.5188067444876197,1.2512397955290453,0.6408789196611906
1539131049460146,0.5798428320745188,1.1291676203554744,0.5798428320745188
1539131049476127,0.45777065690094787,0.6408789196611906,0.5798428320745188
1539131049492109,0.8239871824216607,0.5798428320745188,0.5798428320745188
1539131049508091,1.0681315327688026,0.9460593575952316,0.8850232700083325
1539131049524072,-0.33569848172737693,1.0681315327688026,0.7019150072480898
1539131049540054,-2.532997634851654,0.8239871824216607,0.15259021896690683
1539131049556036,-2.04470893415737,0.5798428320745188,0.09155413138023505
1539131049572017,-0.5798428320745188,0.45777065690094787,0.213626306553806
1539131049587999,0.7019150072480898,0.3967345693140487,0.2746623941404778
1539131049603981,1.0070954451819034,0.3967345693140487,0.45777065690094787
1539131049619962,1.0681315327688026,0.5188067444876197,0.3967345693140487
1539131049635944,0.7019150072480898,0.5188067444876197,0.33569848172737693
1539131049651926,1.9226367589837992,0.3967345693140487,0.3967345693140487
1539131049667907,1.8616006713969,0.2746623941404778,0.03051804379333589
1539131049683889,0.8239871824216607,0.3967345693140487,-0.213626306553806
1539131049699871,-0.33569848172737693,1.0681315327688026,-0.3967345693140487
1539131049715852,-0.5798428320745188,1.4953841458761872,-0.33569848172737693
1539131049731842,0.2746623941404778,1.5564202334630863,-0.2746623941404778
1539131049747823,1.3122758831159445,1.739528496223329,-0.15259021896690683
1539131049763805,1.5564202334630863,1.9226367589837992,-0.09155413138023505
1539131049779787,0.6408789196611906,1.9226367589837992,-0.213626306553806
1539131049795768,-0.3967345693140487,2.04470893415737,-0.45777065690094787
1539131049811750,-0.33569848172737693,2.105745021744042,-0.45777065690094787
1539131049827732,0.33569848172737693,1.739528496223329,-0.09155413138023505
1539131049843713,1.8616006713969,1.4343480582895154,0.33569848172737693
1539131049859695,2.3498893720911838,1.1291676203554744,0.8850232700083325
1539131049875677,1.739528496223329,1.1902037079423735,1.1291676203554744
1539131049891658,-0.03051804379333589,1.0070954451819034,0.7019150072480898
1539131049907640,-1.1902037079423735,0.3967345693140487,0.45777065690094787
1539131049923622,-0.7019150072480898,-0.213626306553806,0.7019150072480898
1539131049939603,0.45777065690094787,-0.3967345693140487,1.1902037079423735
1539131049955585,2.5940337224383256,-0.2746623941404778,1.6784924086366573
1539131049971567,2.3498893720911838,0.213626306553806,1.739528496223329
1539131049987548,-0.5798428320745188,0.15259021896690683,1.0681315327688026
1539131050003530,-1.6784924086366573,-0.213626306553806,0.45777065690094787
1539131050019512,-1.0681315327688026,-0.6408789196611906,0.7019150072480898
1539131050035493,0.7629510948347615,-0.5798428320745188,1.2512397955290453
1539131050051452,2.7771419851987957,-0.213626306553806,1.6784924086366573
1539131050067434,1.739528496223329,-0.2746623941404778,1.4343480582895154
1539131050083416,1.3733119707026162,-0.3967345693140487,1.0070954451819034
1539131050099397,1.8005645838102282,-0.2746623941404778,0.8239871824216607
1539131050115379,1.2512397955290453,0.03051804379333589,0.7019150072480898
1539131050131361,2.8992141603723667,0.3967345693140487,1.0681315327688026
1539131050147342,3.0823224231326094,0.7019150072480898,1.1291676203554744
1539131050163324,3.1433585107195086,1.0070954451819034,1.0681315327688026
1539131050179306,3.2654306858930795,1.0070954451819034,0.8850232700083325
1539131050195287,4.119935912108076,0.8239871824216607,0.7019150072480898
1539131050211269,3.3875028610666504,0.33569848172737693,0.3967345693140487
1539131050227251,2.04470893415737,0.213626306553806,0.09155413138023505
1539131050243232,1.4953841458761872,0.33569848172737693,-0.213626306553806
1539131050259214,0.7019150072480898,0.7629510948347615,-0.03051804379333589
1539131050275196,2.105745021744042,1.1902037079423735,0.33569848172737693
1539131050291177,2.7161058976118966,1.1291676203554744,0.5188067444876197
1539131050307159,1.2512397955290453,0.5188067444876197,-0.03051804379333589
1539131050323141,0.03051804379333589,-0.15259021896690683,-0.5188067444876197
1539131050339122,-0.9460593575952316,-0.15259021896690683,-0.9460593575952316
1539131050355104,-1.8616006713969,0.5188067444876197,-1.1291676203554744
1539131050371063,-0.7019150072480898,1.1291676203554744,-0.7019150072480898
1539131050387045,1.4953841458761872,1.3122758831159445,-0.2746623941404778
1539131050403026,2.410925459678083,1.1902037079423735,-0.03051804379333589
1539131050419008,1.4343480582895154,0.8850232700083325,-0.213626306553806
1539131050434990,-0.6408789196611906,0.9460593575952316,-0.6408789196611906
1539131050450971,-3.5095750362402214,0.8239871824216607,-1.3122758831159445
1539131050466953,-4.42511635004189,0.6408789196611906,-1.1291676203554744
1539131050482935,-2.227817196917613,0.5798428320745188,-0.213626306553806
1539131050498916,1.5564202334630863,0.7629510948347615,0.8850232700083325
1539131050514898,3.997863736934505,0.8850232700083325,1.4953841458761872
1539131050530880,3.875791561760934,0.8850232700083325,1.3733119707026162
1539131050546861,1.9226367589837992,0.7019150072480898,0.8239871824216607
1539131050562843,-1.0070954451819034,0.213626306553806,0.33569848172737693
1539131050578825,-1.1291676203554744,0.09155413138023505,0.15259021896690683
1539131050594806,0.7019150072480898,-0.03051804379333589,0.7019150072480898
1539131050610788,2.410925459678083,-0.33569848172737693,1.3733119707026162
1539131050626770,2.7161058976118966,-0.7019150072480898,1.8005645838102282
1539131050642751,2.7161058976118966,-0.7629510948347615,1.6174563210497581
1539131050658733,2.410925459678083,-0.7019150072480898,1.3122758831159445
1539131050674715,1.739528496223329,-0.6408789196611906,0.9460593575952316
1539131050690673,1.983672846570471,-0.45777065690094787,0.7629510948347615
1539131050706655,1.6174563210497581,-0.3967345693140487,0.3967345693140487
1539131050722636,0.5188067444876197,0.03051804379333589,0.09155413138023505
1539131050738617,0.03051804379333589,0.33569848172737693,-0.2746623941404778
1539131050754598,-0.45777065690094787,0.5188067444876197,-0.3967345693140487
1539131050770579,-1.0681315327688026,0.3967345693140487,-0.5188067444876197
1539131050786561,-1.2512397955290453,0.3967345693140487,-0.5188067444876197
1539131050802542,-1.3733119707026162,0.45777065690094787,-0.15259021896690683
1539131050818523,-1.6784924086366573,0.5798428320745188,0.213626306553806
1539131050834504,-1.6174563210497581,0.5798428320745188,0.33569848172737693
1539131050850485,-1.0070954451819034,0.45777065690094787,0.2746623941404778
1539131050866467,-0.5188067444876197,0.45777065690094787,0.213626306553806
1539131050882448,-1.3733119707026162,0.33569848172737693,0.33569848172737693
1539131050898429,-1.8005645838102282,0.2746623941404778,0.3967345693140487
1539131050914410,0.03051804379333589,0.03051804379333589,0.3967345693140487
1539131050930391,0.5188067444876197,-0.33569848172737693,0.3967345693140487
1539131050946373,0.213626306553806,-0.15259021896690683,0.45777065690094787
1539131050962354,-0.9460593575952316,0.15259021896690683,0.213626306553806
1539131050978335,-1.4343480582895154,0.33569848172737693,0.09155413138023505
1539131050994316,-1.1291676203554744,0.3967345693140487,-0.15259021896690683
1539131051010315,-2.04470893415737,0.8239871824216607,-0.7019150072480898
1539131051026296,-6.073090714885211,1.5564202334630863,-1.8005645838102282
1539131051042277,-9.796292057679011,1.983672846570471,-2.532997634851654
1539131051058258,-8.697642481116873,2.288853284504512,-2.227817196917613
1539131051074239,-3.4485389486533222,2.166781109330941,-1.0070954451819034
1539131051090221,0.5798428320745188,1.739528496223329,0.03051804379333589
1539131051106202,2.227817196917613,1.4953841458761872,0.3967345693140487
1539131051122183,2.5940337224383256,1.6174563210497581,0.2746623941404778
1539131051138164,1.3122758831159445,1.3733119707026162,0.213626306553806
1539131051154145,0.5798428320745188,1.1902037079423735,0.03051804379333589
1539131051170127,1.2512397955290453,1.4953841458761872,-0.213626306553806
1539131051186108,1.3122758831159445,1.6174563210497581,-0.45777065690094787
1539131051202089,0.03051804379333589,1.4953841458761872,-0.45777065690094787
1539131051218070,-0.15259021896690683,1.9226367589837992,-0.15259021896690683
1539131051234051,0.6408789196611906,2.288853284504512,0.15259021896690683
1539131051250033,0.5188067444876197,1.983672846570471,0.15259021896690683
1539131051266014,0.5798428320745188,1.6784924086366573,0.2746623941404778
1539131051281995,1.8005645838102282,1.6174563210497581,0.8239871824216607
1539131051297976,1.1291676203554744,1.0070954451819034,1.4343480582895154
1539131051313957,1.3122758831159445,0.15259021896690683,1.739528496223329
1539131051329925,2.410925459678083,-0.8850232700083325,1.983672846570471
1539131051345906,4.852368963149502,-1.8005645838102282,2.288853284504512
1539131051361888,6.622415503166167,-2.7771419851987957,2.532997634851654
1539131051377869,5.645838101777599,-3.7537193865873633,2.9602502479590385
1539131051393850,3.1433585107195086,-3.936827649347606,3.2654306858930795
1539131051409831,2.7771419851987957,-3.7537193865873633,3.570611123826893
1539131051425812,1.9226367589837992,-3.7537193865873633,3.997863736934505
1539131051441794,1.6174563210497581,-3.4485389486533222,4.303044174868319
1539131051457775,2.105745021744042,-3.5095750362402214,4.242008087281647
1539131051473756,1.983672846570471,-3.2654306858930795,3.6316472114137923
1539131051489737,-0.45777065690094787,-3.1433585107195086,2.8381780727854675
1539131051505718,-1.4343480582895154,-3.1433585107195086,2.105745021744042
1539131051521700,-0.03051804379333589,-2.8381780727854675,1.739528496223329
1539131051537681,3.1433585107195086,-2.166781109330941,1.6174563210497581
1539131051553662,5.096513313496644,-1.2512397955290453,1.5564202334630863
1539131051569643,3.875791561760934,-0.5798428320745188,0.8239871824216607
1539131051585624,0.8850232700083325,0.33569848172737693,-0.213626306553806
1539131051601606,-1.8005645838102282,1.1902037079423735,-0.8239871824216607
1539131051617587,-3.0823224231326094,1.5564202334630863,-1.0070954451819034
1539131051633568,-1.2512397955290453,1.4953841458761872,-0.3967345693140487
1539131051649536,1.8005645838102282,1.1902037079423735,0.5798428320745188
1539131051665517,3.2654306858930795,1.1291676203554744,1.1291676203554744
1539131051681498,1.0681315327688026,0.8239871824216607,1.1291676203554744
1539131051697479,-0.9460593575952316,0.45777065690094787,1.1291676203554744
1539131051713461,-0.2746623941404778,0.2746623941404778,1.4343480582895154
1539131051729442,1.3733119707026162,0.33569848172737693,1.739528496223329
1539131051745423,1.3122758831159445,0.09155413138023505,2.04470893415737
1539131051761404,-0.09155413138023505,-0.15259021896690683,2.105745021744042
1539131051777385,-0.7629510948347615,-0.15259021896690683,1.9226367589837992
1539131051793367,-1.983672846570471,-0.6408789196611906,1.3122758831159445
1539131051809348,-1.739528496223329,-1.0070954451819034,1.1902037079423735
1539131051825329,1.8616006713969,-0.8239871824216607,1.4953841458761872
1539131051841310,3.7537193865873633,-0.8239871824216607,1.4343480582895154
1539131051857291,2.410925459678083,-1.1902037079423735,0.9460593575952316
1539131051873273,0.15259021896690683,-1.3122758831159445,0.33569848172737693
1539131051889254,-0.8850232700083325,-0.8850232700083325,0.2746623941404778
1539131051905235,0.15259021896690683,-0.33569848172737693,0.45777065690094787
1539131051921216,0.8239871824216607,-0.15259021896690683,0.5188067444876197
1539131051937197,0.8850232700083325,-0.15259021896690683,0.7629510948347615
1539131051953179,0.2746623941404778,-0.213626306553806,1.0070954451819034
1539131051969177,-0.45777065690094787,-0.03051804379333589,0.8850232700083325
1539131051985158,-0.8239871824216607,-0.2746623941404778,0.8239871824216607
1539131052001139,-0.45777065690094787,-0.5188067444876197,0.45777065690094787
1539131052017120,1.0070954451819034,-0.8850232700083325,0.33569848172737693
1539131052033102,2.04470893415737,-1.1902037079423735,0.5798428320745188
1539131052049083,1.983672846570471,-1.1291676203554744,0.7629510948347615
1539131052065064,0.03051804379333589,-0.8850232700083325,0.33569848172737693
1539131052081045,-1.3122758831159445,-0.6408789196611906,-0.09155413138023505
1539131052097026,0.15259021896690683,0.09155413138023505,-0.15259021896690683
1539131052113008,1.3733119707026162,0.8850232700083325,-0.03051804379333589
1539131052128989,1.0070954451819034,1.8005645838102282,0.15259021896690683
1539131052144970,-0.15259021896690683,2.7161058976118966,-0.03051804379333589
1539131052160951,-1.4953841458761872,3.2654306858930795,-0.6408789196611906
1539131052176932,-1.5564202334630863,3.3875028610666504,-0.8239871824216607
1539131052192914,0.5188067444876197,3.5095750362402214,-0.3967345693140487
1539131052208895,1.739528496223329,3.875791561760934,0.09155413138023505
1539131052224876,0.3967345693140487,4.119935912108076,0.15259021896690683
1539131052240857,-1.1902037079423735,4.119935912108076,-0.213626306553806
1539131052256838,-2.227817196917613,3.814755474174035,-0.5188067444876197
1539131052272820,-1.5564202334630863,3.5095750362402214,-0.6408789196611906
1539131052288787,-1.6174563210497581,3.1433585107195086,-0.7019150072480898
1539131052304769,-1.0681315327688026,2.8992141603723667,-0.45777065690094787
1539131052320750,0.45777065690094787,2.5940337224383256,-0.15259021896690683
1539131052336731,0.8850232700083325,2.166781109330941,-0.03051804379333589
1539131052352712,-0.2746623941404778,1.983672846570471,0.09155413138023505
1539131052368693,-0.8850232700083325,1.8005645838102282,0.15259021896690683
1539131052384675,-0.8850232700083325,1.8005645838102282,0.09155413138023505
1539131052400656,-0.5188067444876197,1.8616006713969,0.213626306553806
1539131052416637,-1.0681315327688026,1.9226367589837992,0.2746623941404778
1539131052432618,-1.739528496223329,2.166781109330941,0.09155413138023505
1539131052448599,-1.5564202334630863,2.4719615472647547,0.03051804379333589
1539131052464581,-0.8239871824216607,2.5940337224383256,0.213626306553806
1539131052480562,0.9460593575952316,2.655069810025225,0.213626306553806
1539131052496543,0.7629510948347615,2.655069810025225,0.3967345693140487
1539131052512524,1.3122758831159445,2.5940337224383256,0.2746623941404778
1539131052528505,0.33569848172737693,2.3498893720911838,-0.213626306553806
1539131052544487,-0.33569848172737693,2.227817196917613,-0.45777065690094787
1539131052560468,-0.7629510948347615,1.8005645838102282,-0.3967345693140487
1539131052576449,-1.2512397955290453,1.3733119707026162,-0.03051804379333589
1539131052592430,-0.7019150072480898,1.1902037079423735,0.7019150072480898
1539131052608398,-0.15259021896690683,0.8850232700083325,1.5564202334630863
1539131052624379,0.2746623941404778,0.5188067444876197,2.410925459678083
1539131052640360,1.0681315327688026,0.5188067444876197,2.8381780727854675
1539131052656342,1.739528496223329,0.45777065690094787,3.1433585107195086
1539131052672323,1.3733119707026162,0.09155413138023505,3.3875028610666504
1539131052688304,1.4343480582895154,-0.33569848172737693,3.570611123826893
1539131052704285,1.3733119707026162,-0.33569848172737693,3.814755474174035
1539131052720266,0.8239871824216607,-0.33569848172737693,3.997863736934505
1539131052736248,1.8616006713969,-0.213626306553806,4.486152437628789
1539131052752229,4.730296787975931,-0.213626306553806,5.096513313496644
1539131052768210,7.049668116273779,-0.213626306553806,5.279621576256886
1539131052784191,8.087281605249018,-0.15259021896690683,4.9134050507361735
1539131052800172,6.561379415579495,-0.33569848172737693,3.936827649347606
1539131052816154,4.547188525215461,-0.09155413138023505,2.8381780727854675
1539131052832135,2.105745021744042,0.09155413138023505,1.8616006713969
1539131052848116,0.45777065690094787,0.15259021896690683,1.0681315327688026
1539131052864097,1.0681315327688026,0.33569848172737693,0.2746623941404778
1539131052880078,2.655069810025225,0.7019150072480898,-0.15259021896690683
1539131052896060,2.9602502479590385,1.1902037079423735,-0.45777065690094787
1539131052912041,2.04470893415737,1.3733119707026162,-0.9460593575952316
1539131052928039,1.3733119707026162,1.3122758831159445,-1.3122758831159445
1539131052944020,1.0681315327688026,1.1902037079423735,-1.5564202334630863
1539131052960002,1.0681315327688026,1.1902037079423735,-1.739528496223329
1539131052975983,1.2512397955290453,1.1291676203554744,-1.8005645838102282
1539131052991964,1.983672846570471,1.4343480582895154,-1.8616006713969
1539131053007945,1.983672846570471,1.3122758831159445,-2.04470893415737
1539131053023926,1.2512397955290453,0.9460593575952316,-2.410925459678083
1539131053039908,1.4953841458761872,0.6408789196611906,-2.410925459678083
1539131053055889,1.983672846570471,0.6408789196611906,-1.9226367589837992
1539131053071870,1.5564202334630863,0.2746623941404778,-1.5564202334630863
1539131053087851,-0.5188067444876197,-0.3967345693140487,-1.1902037079423735
1539131053103832,-0.33569848172737693,-0.7629510948347615,-0.45777065690094787
1539131053119814,2.166781109330941,-1.2512397955290453,0.45777065690094787
1539131053135795,4.058899824521177,-1.5564202334630863,0.9460593575952316
1539131053151776,4.547188525215461,-1.8616006713969,1.1291676203554744
1539131053167757,3.3875028610666504,-1.9226367589837992,0.9460593575952316
1539131053183738,1.6174563210497581,-1.9226367589837992,0.7629510948347615
1539131053199720,0.8850232700083325,-1.8005645838102282,0.8239871824216607
1539131053215701,1.3733119707026162,-1.6784924086366573,1.1291676203554744
1539131053231682,1.739528496223329,-1.4953841458761872,1.4953841458761872
1539131053247650,1.5564202334630863,-0.8850232700083325,1.5564202334630863
1539131053263631,1.4343480582895154,-0.5798428320745188,1.4953841458761872
1539131053279612,1.6174563210497581,-0.15259021896690683,1.4343480582895154
1539131053295593,3.2043945983061803,0.33569848172737693,1.4343480582895154
1539131053311575,4.791332875562603,0.5798428320745188,1.4953841458761872
1539131053327556,4.242008087281647,0.8850232700083325,1.0070954451819034
1539131053343537,1.9226367589837992,0.5798428320745188,0.15259021896690683
1539131053359518,0.8850232700083325,0.2746623941404778,-0.5798428320745188
1539131053375499,1.8005645838102282,0.15259021896690683,-0.7629510948347615
1539131053391481,2.04470893415737,0.09155413138023505,-0.2746623941404778
1539131053407462,0.8239871824216607,-0.33569848172737693,0.33569848172737693
1539131053423443,0.8239871824216607,-0.6408789196611906,0.9460593575952316
1539131053439424,-0.15259021896690683,-1.4953841458761872,1.6174563210497581
1539131053455405,1.739528496223329,-2.8381780727854675,2.410925459678083
1539131053471387,2.3498893720911838,-4.180971999694748,3.1433585107195086
1539131053487368,2.410925459678083,-5.157549401083315,3.3264667734797513
1539131053503349,-0.45777065690094787,-5.584802014190927,3.4485389486533222
1539131053519330,-2.105745021744042,-5.523765926604028,3.4485389486533222
1539131053535311,-0.7019150072480898,-5.462729839017356,3.4485389486533222
1539131053551293,2.105745021744042,-5.76791027695117,3.4485389486533222
1539131053567260,4.669260700389032,-6.378271152819025,3.0823224231326094
1539131053583242,4.60822461280236,-6.8665598535133086,2.3498893720911838
1539131053599223,2.7771419851987957,-7.11070420386045,1.1291676203554744
1539131053615204,0.15259021896690683,-7.2938124666209205,0.2746623941404778
1539131053631185,-2.166781109330941,-6.683451590753066,0.33569848172737693
1539131053647166,-2.655069810025225,-5.889982452124741,0.9460593575952316
1539131053663148,-1.1902037079423735,-5.279621576256886,1.4953841458761872
1539131053679129,3.0212863355459376,-4.486152437628789,1.8005645838102282
1539131053695110,4.60822461280236,-3.6316472114137923,1.2512397955290453
1539131053711091,3.2654306858930795,-2.7161058976118966,-0.15259021896690683
1539131053727072,1.3733119707026162,-1.8005645838102282,-1.4953841458761872
1539131053743054,1.0070954451819034,-0.8850232700083325,-2.288853284504512
1539131053759035,1.6174563210497581,-0.6408789196611906,-2.410925459678083
1539131053775016,2.04470893415737,-1.0070954451819034,-1.983672846570471
1539131053790997,2.105745021744042,-1.3122758831159445,-1.5564202334630863
1539131053806978,1.9226367589837992,-1.4953841458761872,-1.1902037079423735
1539131053822960,1.6174563210497581,-2.410925459678083,-0.8850232700083325
1539131053838941,1.6174563210497581,-3.570611123826893,-0.2746623941404778
1539131053854922,4.364080262455218,-4.180971999694748,0.9460593575952316
1539131053870903,5.096513313496644,-4.42511635004189,1.983672846570471
1539131053886901,3.570611123826893,-4.180971999694748,2.3498893720911838
1539131053902883,1.8005645838102282,-3.570611123826893,2.4719615472647547
1539131053918864,-0.7019150072480898,-2.8381780727854675,2.288853284504512
1539131053934845,-2.655069810025225,-1.983672846570471,2.105745021744042
1539131053950826,-1.983672846570471,-1.3733119707026162,2.288853284504512
1539131053966807,0.213626306553806,-0.7629510948347615,2.4719615472647547
1539131053982789,1.3733119707026162,-0.09155413138023505,2.288853284504512
1539131053998770,1.0070954451819034,0.5188067444876197,1.5564202334630863
1539131054014751,0.5798428320745188,1.0070954451819034,0.7019150072480898
1539131054030732,-0.03051804379333589,1.1902037079423735,-0.2746623941404778
1539131054046713,-1.4343480582895154,1.6174563210497581,-1.2512397955290453
1539131054062695,-1.983672846570471,2.3498893720911838,-1.9226367589837992
1539131054078676,-2.166781109330941,2.8992141603723667,-2.4719615472647547
1539131054094657,-1.0681315327688026,3.6316472114137923,-2.532997634851654
1539131054110638,-1.0070954451819034,4.364080262455218,-2.410925459678083
1539131054126619,-1.4953841458761872,5.3406576638437855,-2.410925459678083
1539131054142601,-2.288853284504512,5.76791027695117,-2.5940337224383256
1539131054158582,-2.04470893415737,5.645838101777599,-2.5940337224383256
1539131054174563,-1.3733119707026162,5.157549401083315,-2.3498893720911838
1539131054190544,-1.2512397955290453,4.42511635004189,-2.227817196917613
1539131054206482,-0.7629510948347615,4.058899824521177,-1.9226367589837992
1539131054222463,0.2746623941404778,3.814755474174035,-1.6784924086366573
1539131054238444,0.33569848172737693,3.2654306858930795,-1.6174563210497581
1539131054254425,1.1291676203554744,2.8992141603723667,-1.3122758831159445
1539131054270406,2.8992141603723667,2.532997634851654,-0.8239871824216607
1539131054286388,3.936827649347606,2.3498893720911838,-0.5798428320745188
1539131054302369,3.692683299000464,2.105745021744042,-0.3967345693140487
1539131054318350,2.7161058976118966,2.105745021744042,-0.5188067444876197
1539131054334331,1.3122758831159445,2.04470893415737,-0.8239871824216607
1539131054350312,0.09155413138023505,1.983672846570471,-0.9460593575952316
1539131054366294,1.1902037079423735,1.8616006713969,-0.8850232700083325
1539131054382275,2.410925459678083,1.6784924086366573,-0.7629510948347615
1539131054398256,2.4719615472647547,1.6174563210497581,-0.33569848172737693
1539131054414237,1.8005645838102282,1.4953841458761872,0.09155413138023505
1539131054430218,1.2512397955290453,1.3122758831159445,0.5798428320745188
1539131054446200,-0.03051804379333589,1.3733119707026162,0.45777065690094787
1539131054462181,-1.3733119707026162,1.1291676203554744,0.33569848172737693
1539131054478162,-0.8239871824216607,0.8239871824216607,0.33569848172737693
1539131054494143,0.3967345693140487,0.5188067444876197,0.3967345693140487
1539131054510124,1.5564202334630863,0.45777065690094787,0.5188067444876197
1539131054526092,2.166781109330941,0.6408789196611906,0.7019150072480898
1539131054542073,1.0681315327688026,0.5798428320745188,0.45777065690094787
1539131054558055,-0.03051804379333589,0.8239871824216607,0.3967345693140487
1539131054574036,0.33569848172737693,1.1902037079423735,0.45777065690094787
1539131054590017,-0.03051804379333589,1.0681315327688026,0.6408789196611906
1539131054605998,-0.33569848172737693,0.9460593575952316,0.3967345693140487
1539131054621979,-0.3967345693140487,0.7019150072480898,0.03051804379333589
1539131054637961,0.09155413138023505,0.2746623941404778,-0.15259021896690683
1539131054653942,0.45777065690094787,-0.2746623941404778,-0.213626306553806
1539131054669923,0.8850232700083325,-0.5188067444876197,-0.03051804379333589
1539131054685904,1.0681315327688026,-0.7019150072480898,0.03051804379333589
1539131054701885,1.1291676203554744,-0.7019150072480898,0.09155413138023505
1539131054717867,1.4953841458761872,-0.45777065690094787,0.03051804379333589
1539131054733848,0.7629510948347615,-0.09155413138023505,-0.15259021896690683
1539131054749829,-0.09155413138023505,0.33569848172737693,-0.213626306553806
1539131054765810,-0.5188067444876197,0.5188067444876197,-0.3967345693140487
1539131054781791,0.45777065690094787,0.7019150072480898,-0.3967345693140487
1539131054797773,1.4953841458761872,0.9460593575952316,-0.5798428320745188
1539131054813754,1.1902037079423735,1.2512397955290453,-0.6408789196611906
1539131054829735,0.09155413138023505,1.5564202334630863,-0.7629510948347615
1539131054845733,-0.7019150072480898,1.5564202334630863,-0.8239871824216607
1539131054861714,-0.15259021896690683,1.6784924086366573,-0.7019150072480898
1539131054877696,1.1291676203554744,1.8005645838102282,-0.5798428320745188
1539131054893677,0.3967345693140487,1.739528496223329,-0.6408789196611906
1539131054909658,-0.5188067444876197,1.3122758831159445,-0.5188067444876197
1539131054925639,1.1291676203554744,1.3122758831159445,0.03051804379333589
1539131054941620,1.2512397955290453,1.2512397955290453,0.2746623941404778
1539131054957602,0.03051804379333589,1.0070954451819034,0.09155413138023505
1539131054973583,0.33569848172737693,0.5188067444876197,-0.03051804379333589
1539131054989564,0.3967345693140487,0.09155413138023505,0.15259021896690683
1539131055005545,0.6408789196611906,-0.213626306553806,0.3967345693140487
1539131055021526,1.4953841458761872,-0.45777065690094787,0.7629510948347615
1539131055037508,2.166781109330941,-0.6408789196611906,0.8850232700083325
1539131055053489,2.3498893720911838,-0.7629510948347615,0.7019150072480898
1539131055069470,0.8850232700083325,-1.0070954451819034,0.2746623941404778
1539131055085451,0.03051804379333589,-1.1291676203554744,-0.03051804379333589
1539131055101432,0.03051804379333589,-0.9460593575952316,0.03051804379333589
1539131055117414,-0.8850232700083325,-0.6408789196611906,-0.03051804379333589
1539131055133395,-1.6784924086366573,-0.33569848172737693,-0.03051804379333589
1539131055149376,-1.8005645838102282,-0.15259021896690683,0.03051804379333589
1539131055165344,-0.7019150072480898,0.3967345693140487,0.213626306553806
1539131055181325,-0.7019150072480898,0.8850232700083325,0.15259021896690683
1539131055197306,-0.9460593575952316,1.4953841458761872,0.33569848172737693
1539131055213287,-0.5188067444876197,1.6784924086366573,0.2746623941404778
1539131055229269,-0.5188067444876197,1.6174563210497581,0.09155413138023505
1539131055245250,-0.03051804379333589,1.8005645838102282,-0.15259021896690683
1539131055261231,-0.7629510948347615,1.9226367589837992,-0.3967345693140487
1539131055277212,-2.655069810025225,1.8005645838102282,-0.7019150072480898
1539131055293193,-3.2654306858930795,1.6784924086366573,-0.7629510948347615
1539131055309175,-1.6174563210497581,1.6784924086366573,-0.3967345693140487
1539131055325156,-0.5188067444876197,1.4953841458761872,-0.03051804379333589
1539131055341137,-1.739528496223329,1.0681315327688026,-0.09155413138023505
1539131055357118,-3.814755474174035,0.7629510948347615,-0.45777065690094787
1539131055373099,-4.119935912108076,0.8850232700083325,-0.7629510948347615
1539131055389081,-5.3406576638437855,1.3733119707026162,-0.7019150072480898
1539131055405062,-3.1433585107195086,2.166781109330941,-0.213626306553806
1539131055421043,-1.983672846570471,2.532997634851654,-0.09155413138023505
1539131055437024,-2.4719615472647547,2.8381780727854675,-0.2746623941404778
1539131055453005,-2.7161058976118966,3.2654306858930795,-0.45777065690094787
1539131055468987,-2.9602502479590385,3.2043945983061803,-0.5798428320745188
1539131055484954,-2.9602502479590385,3.1433585107195086,-0.7019150072480898
1539131055500936,-2.8381780727854675,2.9602502479590385,-0.5798428320745188
1539131055516917,-2.04470893415737,2.8992141603723667,-0.2746623941404778
1539131055532898,-0.9460593575952316,3.0212863355459376,0.03051804379333589
1539131055548879,-0.3967345693140487,2.8992141603723667,0.213626306553806
1539131055564860,0.5188067444876197,2.8381780727854675,0.213626306553806
1539131055580842,0.3967345693140487,2.532997634851654,0.09155413138023505
1539131055596823,0.33569848172737693,2.4719615472647547,-0.03051804379333589
1539131055612804,0.03051804379333589,2.532997634851654,-0.213626306553806
1539131055628785,-0.7629510948347615,2.410925459678083,-0.33569848172737693
1539131055644766,-0.7629510948347615,2.166781109330941,-0.5188067444876197
1539131055660748,-0.2746623941404778,1.6174563210497581,-0.2746623941404778
1539131055676729,0.33569848172737693,0.8239871824216607,0.33569848172737693
1539131055692710,0.3967345693140487,0.213626306553806,0.7629510948347615
1539131055708691,1.0070954451819034,-0.45777065690094787,0.9460593575952316
1539131055724672,2.655069810025225,-0.9460593575952316,1.1902037079423735
1539131055740654,3.2654306858930795,-1.1902037079423735,1.1291676203554744
1539131055756635,2.4719615472647547,-1.0070954451819034,0.7629510948347615
1539131055772616,0.8239871824216607,-0.7629510948347615,0.33569848172737693
1539131055788597,-1.1291676203554744,-0.8239871824216607,0.213626306553806
1539131055804596,-1.739528496223329,-0.7629510948347615,0.45777065690094787
1539131055820577,-0.5798428320745188,-0.45777065690094787,0.8850232700083325
1539131055836558,0.15259021896690683,-0.45777065690094787,1.0070954451819034
1539131055852539,1.2512397955290453,-0.3967345693140487,1.0070954451819034
1539131055868520,1.6784924086366573,-0.45777065690094787,0.9460593575952316
1539131055884502,0.8239871824216607,-0.3967345693140487,0.7019150072480898
1539131055900483,0.213626306553806,0.03051804379333589,0.3967345693140487
1539131055916464,-0.2746623941404778,0.6408789196611906,0.2746623941404778
1539131055932445,-0.33569848172737693,0.8850232700083325,0.2746623941404778
1539131055948426,0.15259021896690683,0.8850232700083325,0.5188067444876197
1539131055964408,1.0070954451819034,0.7019150072480898,0.7629510948347615
1539131055980389,1.2512397955290453,0.03051804379333589,0.8239871824216607
1539131055996370,0.7629510948347615,-0.7629510948347615,0.8239871824216607
1539131056012351,0.2746623941404778,-1.2512397955290453,1.0070954451819034
1539131056028332,1.4953841458761872,-1.4343480582895154,1.5564202334630863
1539131056044314,2.3498893720911838,-1.6174563210497581,2.04470893415737
1539131056060295,2.9602502479590385,-1.6174563210497581,2.3498893720911838
1539131056076276,3.875791561760934,-1.6174563210497581,2.3498893720911838
1539131056092257,2.8992141603723667,-1.6784924086366573,1.983672846570471
1539131056108238,0.7019150072480898,-1.6784924086366573,1.2512397955290453
1539131056124206,0.3967345693140487,-1.5564202334630863,0.8239871824216607
1539131056140187,1.5564202334630863,-1.1902037079423735,0.7629510948347615
1539131056156169,1.6784924086366573,-0.7629510948347615,0.7019150072480898
1539131056172150,0.6408789196611906,-0.5188067444876197,0.6408789196611906
1539131056188131,0.213626306553806,-0.5188067444876197,0.5188067444876197
1539131056204112,0.7019150072480898,-0.5798428320745188,0.3967345693140487
1539131056220093,1.1291676203554744,-0.5798428320745188,0.2746623941404778
1539131056236075,1.3733119707026162,-0.45777065690094787,0.45777065690094787
1539131056252056,1.4953841458761872,-0.213626306553806,0.5798428320745188
1539131056268037,1.2512397955290453,-0.15259021896690683,0.7019150072480898
1539131056284018,1.1291676203554744,-0.33569848172737693,0.7019150072480898
1539131056299999,1.8005645838102282,-0.5798428320745188,0.6408789196611906
1539131056315981,1.6784924086366573,-0.5798428320745188,0.5188067444876197
1539131056331962,1.739528496223329,-0.3967345693140487,0.33569848172737693
1539131056347943,1.1902037079423735,-0.03051804379333589,0.33569848172737693
1539131056363924,-0.09155413138023505,0.2746623941404778,0.2746623941404778
1539131056379905,-0.5188067444876197,0.5798428320745188,0.33569848172737693
1539131056395887,0.15259021896690683,0.8239871824216607,0.3967345693140487
1539131056411868,0.09155413138023505,1.0070954451819034,0.3967345693140487
1539131056427849,0.09155413138023505,1.1291676203554744,0.09155413138023505
1539131056443817,-0.7019150072480898,1.0070954451819034,-0.2746623941404778
1539131056459798,-0.7019150072480898,0.7629510948347615,-0.3967345693140487
1539131056475779,1.1902037079423735,0.8850232700083325,0.15259021896690683
1539131056491760,3.0823224231326094,1.0681315327688026,0.3967345693140487
1539131056507742,1.983672846570471,1.2512397955290453,0.15259021896690683
1539131056523723,-0.6408789196611906,1.5564202334630863,-0.3967345693140487
1539131056539704,-2.105745021744042,1.739528496223329,-0.8239871824216607
1539131056555685,-2.04470893415737,1.739528496223329,-0.9460593575952316
1539131056571666,-0.45777065690094787,1.8005645838102282,-0.8239871824216607
1539131056587648,1.6174563210497581,1.8005645838102282,-0.7629510948347615
1539131056603629,2.227817196917613,1.6174563210497581,-0.7019150072480898
1539131056619610,1.8616006713969,1.4953841458761872,-0.8239871824216607
1539131056635591,1.1291676203554744,1.6784924086366573,-1.0681315327688026
1539131056651572,0.7629510948347615,1.739528496223329,-1.0681315327688026
1539131056667554,1.6784924086366573,1.9226367589837992,-1.1291676203554744
1539131056683535,1.8616006713969,1.8616006713969,-1.0681315327688026
1539131056699516,1.4953841458761872,2.105745021744042,-1.1902037079423735
1539131056715497,1.1902037079423735,2.105745021744042,-1.1902037079423735
1539131056731478,0.8850232700083325,2.04470893415737,-1.1291676203554744
1539131056747460,0.45777065690094787,2.04470893415737,-1.0681315327688026
1539131056763458,-0.213626306553806,1.983672846570471,-1.0681315327688026
1539131056779439,-0.5188067444876197,1.8616006713969,-1.0070954451819034
1539131056795420,0.2746623941404778,1.4953841458761872,-0.7629510948347615
1539131056811401,1.6784924086366573,1.2512397955290453,-0.3967345693140487
1539131056827383,2.105745021744042,1.2512397955290453,-0.213626306553806
1539131056843364,1.0070954451819034,1.3733119707026162,-0.213626306553806
1539131056859345,-0.2746623941404778,1.3122758831159445,-0.15259021896690683
1539131056875326,-0.8239871824216607,1.2512397955290453,-0.2746623941404778
1539131056891307,-1.0070954451819034,1.1902037079423735,-0.3967345693140487
1539131056907289,-0.213626306553806,1.0681315327688026,-0.2746623941404778
1539131056923270,0.6408789196611906,0.7629510948347615,-0.09155413138023505
1539131056939251,1.2512397955290453,0.8239871824216607,0.2746623941404778
1539131056955232,1.3733119707026162,1.0070954451819034,0.45777065690094787
1539131056971213,1.2512397955290453,1.1291676203554744,0.3967345693140487
1539131056987195,1.3733119707026162,1.3733119707026162,0.2746623941404778
1539131057003176,0.6408789196611906,1.4343480582895154,-0.03051804379333589
1539131057019157,-0.15259021896690683,1.6784924086366573,-0.09155413138023505
1539131057035138,0.03051804379333589,1.8005645838102282,-0.09155413138023505
1539131057051119,0.5188067444876197,1.9226367589837992,-0.213626306553806
1539131057067101,0.5188067444876197,2.04470893415737,-0.45777065690094787
1539131057083068,-0.3967345693140487,2.105745021744042,-0.7629510948347615
1539131057099050,0.33569848172737693,2.3498893720911838,-0.6408789196611906
1539131057115031,-0.15259021896690683,2.227817196917613,-0.213626306553806
1539131057131012,-3.936827649347606,1.8616006713969,0.15259021896690683
1539131057146993,-9.918364232852582,1.9226367589837992,-1.3733119707026162
1539131057162974,-14.068818188753994,2.105745021744042,-2.7161058976118966
1539131057178956,-12.542915999084471,2.7161058976118966,-2.7771419851987957
1539131057194937,-11.20012207217519,3.2043945983061803,-2.7161058976118966
1539131057210918,-7.4158846417944915,3.3875028610666504,-2.3498893720911838
1539131057226899,-0.33569848172737693,4.119935912108076,-1.6784924086366573
1539131057242880,3.814755474174035,4.242008087281647,-1.0681315327688026
1539131057258862,5.401693751430457,3.997863736934505,-1.2512397955290453
1539131057274843,2.166781109330941,3.814755474174035,-2.166781109330941
1539131057290824,-1.6784924086366573,3.570611123826893,-3.0823224231326094
1539131057306805,-1.2512397955290453,3.1433585107195086,-3.570611123826893
1539131057322786,-0.03051804379333589,2.655069810025225,-2.8381780727854675
1539131057338768,2.288853284504512,2.532997634851654,-1.739528496223329
1539131057354749,0.9460593575952316,2.5940337224383256,-1.739528496223329
1539131057370730,-2.655069810025225,3.2654306858930795,-2.288853284504512
1539131057386711,-6.317235065232353,4.119935912108076,-2.4719615472647547
1539131057402649,-8.45349813076973,4.60822461280236,-1.6784924086366573
1539131057418629,-5.828946364538069,4.852368963149502,-0.7019150072480898
1539131057434610,-1.8005645838102282,4.364080262455218,-0.33569848172737693
1539131057450591,0.03051804379333589,3.814755474174035,-0.6408789196611906
1539131057466571,-0.3967345693140487,3.4485389486533222,-1.0681315327688026
1539131057482552,-0.9460593575952316,2.9602502479590385,-1.4953841458761872
1539131057498533,-2.04470893415737,2.532997634851654,-1.6174563210497581
1539131057514514,-1.6784924086366573,2.532997634851654,-1.4343480582895154
1539131057530494,-0.2746623941404778,2.3498893720911838,-0.5798428320745188
1539131057546475,0.45777065690094787,1.983672846570471,0.213626306553806
1539131057562456,0.8239871824216607,2.532997634851654,0.7629510948347615
1539131057578436,0.15259021896690683,2.8381780727854675,1.1291676203554744
1539131057594417,-1.0070954451819034,2.8992141603723667,1.5564202334630863
1539131057610398,-1.5564202334630863,3.1433585107195086,1.739528496223329
1539131057626379,-2.105745021744042,3.1433585107195086,1.983672846570471
1539131057642359,-2.3498893720911838,2.8381780727854675,2.105745021744042
1539131057658340,-2.288853284504512,3.0212863355459376,2.105745021744042
1539131057674321,-1.5564202334630863,2.8992141603723667,2.227817196917613
1539131057690302,-1.6174563210497581,2.166781109330941,2.227817196917613
1539131057706282,-0.213626306553806,1.9226367589837992,1.983672846570471
1539131057722290,1.0070954451819034,1.739528496223329,1.4343480582895154
1539131057738271,0.9460593575952316,1.3733119707026162,0.8850232700083325
1539131057754252,1.5564202334630863,0.8239871824216607,0.6408789196611906
1539131057770233,3.3264667734797513,0.5188067444876197,0.7629510948347615
1539131057786214,4.486152437628789,0.5798428320745188,0.45777065690094787
1539131057802196,2.8381780727854675,0.8239871824216607,-0.33569848172737693
1539131057818177,-0.5188067444876197,1.1902037079423735,-0.8850232700083325
1539131057834158,-1.6784924086366573,1.8616006713969,-0.8850232700083325
1539131057850139,0.15259021896690683,2.8992141603723667,-0.33569848172737693
1539131057866120,2.9602502479590385,3.6316472114137923,0.45777065690094787
1539131057882102,4.486152437628789,3.936827649347606,0.7629510948347615
1539131057898083,3.3264667734797513,4.119935912108076,0.3967345693140487
1539131057914064,-0.6408789196611906,3.7537193865873633,-0.7629510948347615
1539131057930045,-4.119935912108076,3.4485389486533222,-1.6784924086366573
1539131057946026,-3.0823224231326094,3.3875028610666504,-1.8005645838102282
1539131057962008,-0.15259021896690683,3.0212863355459376,-1.3122758831159445
1539131057977989,2.8381780727854675,2.9602502479590385,-0.7019150072480898
1539131057993970,4.242008087281647,2.8992141603723667,-0.45777065690094787
1539131058009951,2.166781109330941,2.288853284504512,-0.5188067444876197
1539131058025932,1.8005645838102282,1.6784924086366573,-0.3967345693140487
1539131058041900,1.3733119707026162,0.7019150072480898,-0.33569848172737693
1539131058057881,0.03051804379333589,-0.8850232700083325,-0.3967345693140487
1539131058073862,1.2512397955290453,-2.7161058976118966,-0.03051804379333589
1539131058089842,4.730296787975931,-4.303044174868319,0.45777065690094787
1539131058105823,5.889982452124741,-6.073090714885211,0.45777065690094787
1539131058121804,4.974441138323073,-8.575570305943302,0.33569848172737693
1539131058137785,1.8616006713969,-11.810482948043045,-0.213626306553806
1539131058153765,6.134126802471883,-13.824673838406852,-0.8850232700083325
1539131058169746,3.875791561760934,-14.251926451514464,-0.15259021896690683
1539131058185727,12.359807736324,-8.941786831464015,-1.6784924086366573
1539131058201707,59.17448691538857,4.9134050507361735,-9.918364232852582
1539131058217688,34.2717631799801,18.95170519569683,-17.36476691844041
1539131058233669,-17.853055619134693,38.11703669794747,-21.759365224688963
1539131058249650,-21.14900434882111,63.38597695887711,-21.39314869916825
1539131058265630,-20.538643472953254,89.9366750591289,-18.097199969481835
1539131058281611,-26.459143968871558,114.96147096971072,-14.007782101167322
1539131058297592,-29.877164873731545,139.986266880293,-9.369039444571627
1539131058313573,-34.88212405584818,161.4099336232548,-3.0212863355459376
1539131058329553,-39.093614099336264,177.7676050965133,5.0354772259097444
1539131058345534,-21.45418478675515,189.60860608834992,13.64156557564661
1539131058361511,5.3406576638437855,194.06424048218514,18.402380407415876
1539131058377492,17.975127794308264,187.65545128557278,18.95170519569683
1539131058393472,10.040436408026153,171.9081406881819,16.754406042572555
1539131058409453,-1.3122758831159445,150.7896543831539,11.749446860456146
1539131058425434,-16.510261692225413,124.11688410772877,8.697642481116873
1539131058441414,-26.214999618524416,94.51438162813793,5.584802014190927
1539131058457395,-19.562066071564686,64.48462653543947,0.9460593575952316
1539131058473376,-22.125581750209676,35.91973754482319,-0.8239871824216607
1539131058489357,-14.557106889448278,8.45349813076973,-0.6408789196611906
1539131058505337,-1.1902037079423735,-23.041123064011572,-3.3264667734797513
1539131058521318,-9.918364232852582,-60.151064316777365,-2.8992141603723667
1539131058537299,-5.157549401083315,-95.4299229419396,1.9226367589837992
1539131058553280,-1.8616006713969,-133.08918898298612,9.67421988250544
1539131058569260,21.210040436408008,-177.34035248340592,15.10643167772946
1539131058585241,54.596780346379546,-244.11383230334945,1.983672846570471
1539131058601222,-2.04470893415737,-341.71053635461953,-29.938200961318216
1539131058617202,-42.084382391088866,-445.4108491645686,-59.78484779125665
1539131058633183,-163.4851606012055,-331.27336537727933,-42.93888761730386
1539131058649164,-90.85221637293034,-28.351262684061794,15.899900816357558
1539131058665145,243.86968795300209,58.56412603952049,-11.07804989700162
1539131058681152,8.45349813076973,42.938887617303635,-12.054627298390187
1539131058697133,49.95803768978385,36.53009842069105,-22.064545662623004
1539131058713114,53.92538338292479,34.76005188067438,-18.280308232242305
1539131058729096,33.3562218661782,40.43640802624532,-2.8992141603723667
1539131058745077,46.967269398031476,50.446326390478134,12.542915999084471
1539131058761058,63.63012130922425,60.761425192644765,24.811169604028237
1539131058777039,78.70603494316038,67.41435873960518,28.473334859235365
1539131058793020,76.44769970244943,62.77561608300948,22.49179827573039
1539131058809002,56.183718623636196,48.004882887006715,11.261158159761862
1539131058824983,27.679865720607268,27.191577019912984,0.6408789196611906
1539131058840964,4.119935912108076,5.95101853971164,-6.9886320286868795
1539131058856945,-5.523765926604028,-10.528725108720437,-11.932555123216616
1539131058872926,-10.223544670786623,-22.003509575036105,-15.838864728770886
1539131058888908,-14.190890363927565,-28.473334859235365,-17.48683909361398
1539131058904889,-14.496070801861606,-31.219958800640825,-16.1440451667047
1539131058920870,-15.350576028076603,-32.99000534065772,-12.481879911497572
1539131058936851,-10.528725108720437,-32.745860990310575,-8.575570305943302
1539131058952832,-3.3875028610666504,-30.60959792477297,-4.486152437628789
1539131058968814,2.7771419851987957,-26.092927443350845,-1.4343480582895154
1539131058984795,5.828946364538069,-21.759365224688963,0.8850232700083325
1539131059000763,1.0681315327688026,-19.562066071564686,2.5940337224383256
1539131059016743,-6.012054627298312,-16.693369954985883,4.42511635004189
1539131059032724,0.2746623941404778,-11.749446860456146,5.096513313496644
1539131059048705,7.11070420386045,-7.4158846417944915,5.76791027695117
1539131059064685,7.537956816968062,-5.401693751430457,5.3406576638437855
1539131059080666,4.303044174868319,-5.828946364538069,3.936827649347606
1539131059096647,-1.3122758831159445,-6.622415503166167,3.814755474174035
1539131059112628,-2.8992141603723667,-6.073090714885211,3.936827649347606
1539131059128608,0.213626306553806,-4.974441138323073,4.242008087281647
1539131059144589,2.410925459678083,-5.462729839017356,4.547188525215461
1539131059160570,1.4343480582895154,-5.828946364538069,4.852368963149502
1539131059176550,2.8992141603723667,-4.42511635004189,4.058899824521177
1539131059192531,2.7771419851987957,-3.1433585107195086,3.0823224231326094
1539131059208512,3.6316472114137923,-2.288853284504512,1.5564202334630863
1539131059224493,0.03051804379333589,-2.7161058976118966,-0.15259021896690683
1539131059240473,-1.739528496223329,-3.2043945983061803,-1.2512397955290453
1539131059256454,-2.288853284504512,-2.4719615472647547,-1.8616006713969
1539131059272435,-3.2043945983061803,-2.227817196917613,-2.04470893415737
1539131059288416,-5.645838101777599,-4.119935912108076,-2.105745021744042
1539131059304396,-7.17174029144735,-5.76791027695117,-1.6174563210497581
1539131059320373,-3.2043945983061803,-6.256198977645454,-0.5188067444876197
1539131059336354,-0.8239871824216607,-6.561379415579495,0.7019150072480898
1539131059352335,-1.5564202334630863,-8.33142595559616,1.8616006713969
1539131059368315,-3.7537193865873633,-10.833905546654478,2.9602502479590385
1539131059384296,-4.058899824521177,-11.01701380941472,3.5095750362402214
1539131059400277,-1.739528496223329,-6.744487678339738,4.058899824521177
1539131059416257,1.983672846570471,2.227817196917613,4.42511635004189
1539131059432238,6.927595941100208,11.505302510109004,4.42511635004189
1539131059448219,3.7537193865873633,15.777828641183987,3.0823224231326094
1539131059464200,-4.669260700389032,13.153276874952326,0.9460593575952316
1539131059480180,-11.01701380941472,7.354848554207592,-0.8850232700083325
1539131059496161,-11.810482948043045,1.5564202334630863,-1.8616006713969
1539131059512142,-10.040436408026153,-3.6316472114137923,-1.3122758831159445
1539131059528123,-5.523765926604028,-4.791332875562603,0.15259021896690683
1539131059544103,2.3498893720911838,-1.8005645838102282,1.983672846570471
1539131059560084,8.697642481116873,2.227817196917613,2.8992141603723667
1539131059576065,5.523765926604028,3.6316472114137923,1.6784924086366573
1539131059592045,-0.9460593575952316,1.8616006713969,0.6408789196611906
1539131059608026,-2.166781109330941,-1.0070954451819034,0.3967345693140487
1539131059624007,-1.739528496223329,-3.0823224231326094,1.0070954451819034
1539131059640014,-0.9460593575952316,-2.7771419851987957,1.6174563210497581
1539131059655995,4.058899824521177,-1.1291676203554744,2.3498893720911838
1539131059671977,8.941786831464015,0.213626306553806,2.8381780727854675
1539131059687958,8.392462043183059,-0.2746623941404778,2.5940337224383256
1539131059703939,3.936827649347606,-2.227817196917613,1.6174563210497581
1539131059719920,-0.3967345693140487,-3.2654306858930795,0.213626306553806
1539131059735901,-2.8992141603723667,-3.1433585107195086,-0.7629510948347615
1539131059751883,-3.3264667734797513,-2.655069810025225,-1.1902037079423735
1539131059767864,-3.570611123826893,-1.6174563210497581,-1.1902037079423735
1539131059783845,-3.2043945983061803,-0.45777065690094787,-1.0070954451819034
1539131059799826,-4.42511635004189,-0.09155413138023505,-0.8850232700083325
1539131059815807,-4.547188525215461,0.03051804379333589,-0.5188067444876197
1539131059831789,-1.0070954451819034,0.8239871824216607,0.2746623941404778
1539131059847770,1.8616006713969,1.4343480582895154,1.1291676203554744
1539131059863751,1.1291676203554744,1.739528496223329,1.3733119707026162
1539131059879732,1.0681315327688026,2.166781109330941,1.5564202334630863
1539131059895713,0.213626306553806,2.105745021744042,1.4953841458761872
1539131059911695,-1.8005645838102282,1.4953841458761872,1.2512397955290453
1539131059927676,-0.8239871824216607,1.1902037079423735,1.1291676203554744
1539131059943657,-1.1291676203554744,0.7629510948347615,1.1902037079423735
1539131059959625,-1.983672846570471,0.45777065690094787,1.3122758831159445
1539131059975606,-2.288853284504512,0.03051804379333589,1.4343480582895154
1539131059991586,-1.2512397955290453,-0.5798428320745188,1.5564202334630863
1539131060007567,-0.09155413138023505,-1.3733119707026162,1.9226367589837992
1539131060023548,1.0070954451819034,-1.6174563210497581,2.4719615472647547
1539131060039528,1.0070954451819034,-1.8616006713969,2.8381780727854675
1539131060055509,1.6784924086366573,-2.166781109330941,3.1433585107195086
1539131060071490,4.60822461280236,-2.04470893415737,3.4485389486533222
1539131060087471,5.462729839017356,-2.105745021744042,3.3264667734797513
1539131060103451,4.60822461280236,-2.410925459678083,3.2043945983061803
1539131060119432,4.60822461280236,-2.7771419851987957,2.8992141603723667
1539131060135413,3.3264667734797513,-3.0212863355459376,2.532997634851654
1539131060151394,3.875791561760934,-2.7161058976118966,2.5940337224383256
1539131060167374,5.95101853971164,-2.655069810025225,2.8381780727854675
1539131060183355,5.76791027695117,-2.5940337224383256,2.8992141603723667
1539131060199336,5.279621576256886,-2.04470893415737,2.8381780727854675
1539131060215316,5.3406576638437855,-1.739528496223329,2.8992141603723667
1539131060231297,5.584802014190927,-1.1291676203554744,3.0212863355459376
1539131060247278,5.3406576638437855,-0.45777065690094787,2.7161058976118966
1539131060263259,5.157549401083315,-0.2746623941404778,2.410925459678083
1539131060279205,4.180971999694748,0.33569848172737693,1.8005645838102282
1539131060295186,0.09155413138023505,0.8850232700083325,0.7019150072480898
1539131060311166,-4.974441138323073,0.7629510948347615,-0.213626306553806
1539131060327147,-5.0354772259097444,0.8850232700083325,-0.213626306553806
1539131060343128,-1.6784924086366573,1.0681315327688026,0.3967345693140487
1539131060359109,1.1902037079423735,1.1291676203554744,0.8239871824216607
1539131060375089,2.655069810025225,1.2512397955290453,0.7629510948347615
1539131060391070,1.983672846570471,1.4343480582895154,0.5188067444876197
1539131060407051,0.3967345693140487,1.3122758831159445,0.09155413138023505
1539131060423031,-1.0070954451819034,0.8239871824216607,-0.2746623941404778
1539131060439012,-2.288853284504512,0.5798428320745188,-0.45777065690094787
1539131060454993,-3.2654306858930795,0.5188067444876197,-0.8239871824216607
1539131060470974,-4.058899824521177,0.3967345693140487,-0.7629510948347615
1539131060486954,-3.2043945983061803,0.3967345693140487,-0.5188067444876197
1539131060502935,-1.8005645838102282,0.2746623941404778,-0.2746623941404778
1539131060518916,-1.6784924086366573,0.09155413138023505,-0.3967345693140487
1539131060534896,-3.814755474174035,-0.09155413138023505,-0.6408789196611906
1539131060550877,-3.875791561760934,0.5188067444876197,-0.8850232700083325
1539131060566858,-1.4343480582895154,1.0681315327688026,-0.7629510948347615
1539131060582839,-0.7019150072480898,1.4343480582895154,-0.9460593575952316
1539131060598846,-0.6408789196611906,1.9226367589837992,-1.1291676203554744
1539131060614827,-2.166781109330941,1.9226367589837992,-1.3122758831159445
1539131060630808,-3.1433585107195086,1.4343480582895154,-1.3733119707026162
1539131060646788,-1.1902037079423735,1.1291676203554744,-0.9460593575952316
1539131060662769,-0.213626306553806,0.8850232700083325,-0.6408789196611906
1539131060678750,-0.9460593575952316,0.6408789196611906,-0.8850232700083325
1539131060694730,-3.3264667734797513,-0.03051804379333589,-1.1291676203554744
1539131060710711,-3.3264667734797513,0.03051804379333589,-1.1902037079423735
1539131060726692,-1.739528496223329,0.45777065690094787,-0.8239871824216607
1539131060742673,-0.03051804379333589,0.6408789196611906,-0.3967345693140487
1539131060758653,0.9460593575952316,0.5188067444876197,-0.09155413138023505
1539131060774634,2.04470893415737,0.33569848172737693,0.03051804379333589
1539131060790615,2.227817196917613,0.33569848172737693,-0.09155413138023505
1539131060806595,1.3122758831159445,0.03051804379333589,-0.45777065690094787
1539131060822576,0.45777065690094787,-0.15259021896690683,-0.8239871824216607
1539131060838557,-0.213626306553806,-0.2746623941404778,-0.8239871824216607
1539131060854538,-0.45777065690094787,-0.2746623941404778,-0.6408789196611906
1539131060870518,0.45777065690094787,-0.2746623941404778,-0.3967345693140487
1539131060886499,0.7019150072480898,-0.33569848172737693,-0.33569848172737693
1539131060902480,1.739528496223329,-0.15259021896690683,0.03051804379333589
1539131060918457,1.983672846570471,0.03051804379333589,0.33569848172737693
1539131060934437,0.5188067444876197,-0.15259021896690683,0.15259021896690683
1539131060950418,-0.213626306553806,-0.33569848172737693,0.03051804379333589
1539131060966399,0.03051804379333589,-0.33569848172737693,0.2746623941404778
1539131060982380,0.09155413138023505,-0.33569848172737693,0.45777065690094787
1539131060998360,-0.33569848172737693,-0.213626306553806,0.6408789196611906
1539131061014341,0.7629510948347615,-0.15259021896690683,0.9460593575952316
1539131061030322,2.532997634851654,-0.213626306553806,1.1902037079423735
1539131061046302,2.4719615472647547,-0.15259021896690683,1.0681315327688026
1539131061062283,0.5188067444876197,0.213626306553806,0.5798428320745188
1539131061078264,-2.227817196917613,0.7019150072480898,-0.2746623941404778
1539131061094245,-4.180971999694748,1.0681315327688026,-0.6408789196611906
1539131061110225,-2.532997634851654,1.3733119707026162,-0.33569848172737693
1539131061126206,-0.03051804379333589,1.4343480582895154,0.213626306553806
1539131061142187,1.6174563210497581,1.5564202334630863,0.2746623941404778
1539131061158167,0.33569848172737693,1.3733119707026162,-0.213626306553806
1539131061174148,-0.6408789196611906,0.5798428320745188,-0.7019150072480898
1539131061190129,-0.45777065690094787,-0.5188067444876197,-0.6408789196611906
1539131061206110,2.288853284504512,-1.2512397955290453,-0.213626306553806
1539131061222090,4.058899824521177,-1.6174563210497581,0.03051804379333589
1539131061238067,3.6316472114137923,-1.8005645838102282,-0.15259021896690683
1539131061254048,1.0681315327688026,-1.6784924086366573,-0.7629510948347615
1539131061270029,-1.739528496223329,-1.0070954451819034,-1.4953841458761872
1539131061286009,-3.936827649347606,0.09155413138023505,-1.8616006713969
1539131061301990,-4.303044174868319,1.3733119707026162,-1.4343480582895154
1539131061317971,-2.7771419851987957,2.8992141603723667,-0.6408789196611906
1539131061333952,0.8239871824216607,4.180971999694748,-0.09155413138023505
1539131061349932,3.814755474174035,4.9134050507361735,0.213626306553806
1539131061365913,4.364080262455218,4.974441138323073,-0.03051804379333589
1539131061381894,2.7161058976118966,4.547188525215461,-0.8850232700083325
1539131061397874,0.213626306553806,3.6316472114137923,-1.8005645838102282
1539131061413855,-1.0681315327688026,3.1433585107195086,-2.227817196917613
1539131061429836,-1.983672846570471,2.655069810025225,-2.04470893415737
1539131061445817,-1.1291676203554744,2.105745021744042,-0.8239871824216607
1539131061461797,2.105745021744042,1.8005645838102282,0.8850232700083325
1539131061477778,4.9134050507361735,1.5564202334630863,2.166781109330941
1539131061493759,5.523765926604028,1.2512397955290453,2.5940337224383256
1539131061509740,3.5095750362402214,1.1902037079423735,2.288853284504512
1539131061525720,0.7629510948347615,1.4343480582895154,1.8616006713969
1539131061541701,-1.1291676203554744,1.6784924086366573,1.8616006713969
1539131061557708,-1.4343480582895154,2.04470893415737,2.227817196917613
1539131061573689,0.6408789196611906,2.4719615472647547,3.0212863355459376
1539131061589670,1.4953841458761872,2.655069810025225,3.4485389486533222
1539131061605651,1.2512397955290453,2.4719615472647547,3.0823224231326094
1539131061621631,-0.45777065690094787,1.6784924086366573,2.4719615472647547
1539131061637612,-4.180971999694748,0.7629510948347615,1.739528496223329
1539131061653593,-6.927595941100208,0.213626306553806,0.8239871824216607
1539131061669573,-5.462729839017356,0.33569848172737693,0.5188067444876197
1539131061685554,-0.5188067444876197,1.0681315327688026,0.5798428320745188
1539131061701535,2.7161058976118966,1.4953841458761872,0.6408789196611906
1539131061717516,4.42511635004189,1.739528496223329,0.3967345693140487
1539131061733496,3.2654306858930795,1.8616006713969,0.03051804379333589
1539131061749477,0.5798428320745188,1.983672846570471,-0.2746623941404778
1539131061765458,-0.2746623941404778,2.227817196917613,-0.213626306553806
1539131061781438,0.09155413138023505,2.532997634851654,0.33569848172737693
1539131061797419,-0.7629510948347615,2.4719615472647547,0.9460593575952316
1539131061813400,-1.4953841458761872,2.166781109330941,1.3733119707026162
1539131061829381,-0.8850232700083325,1.8616006713969,1.739528496223329
1539131061845361,0.7629510948347615,1.4953841458761872,1.8616006713969
1539131061861342,2.532997634851654,1.3733119707026162,1.8005645838102282
1539131061877319,3.0823224231326094,1.3122758831159445,1.4343480582895154
1539131061893300,1.6784924086366573,1.1291676203554744,0.9460593575952316
1539131061909280,0.213626306553806,1.3122758831159445,0.5188067444876197
1539131061925261,0.213626306553806,1.6174563210497581,0.33569848172737693
1539131061941242,2.166781109330941,2.532997634851654,0.33569848172737693
1539131061957223,2.5940337224383256,3.4485389486533222,-0.33569848172737693
1539131061973203,-0.5188067444876197,3.814755474174035,-1.1291676203554744
1539131061989184,-5.279621576256886,3.5095750362402214,-1.4343480582895154
1539131062005165,-7.721065079728305,2.8381780727854675,-1.3733119707026162
1539131062021145,-6.8665598535133086,2.227817196917613,-1.3122758831159445
1539131062037126,-3.7537193865873633,1.8616006713969,-1.4953841458761872
1539131062053107,-0.7629510948347615,1.3122758831159445,-2.288853284504512
1539131062069088,1.6784924086366573,0.8850232700083325,-3.4485389486533222
1539131062085068,3.4485389486533222,1.0681315327688026,-4.791332875562603
1539131062101049,2.655069810025225,1.6784924086366573,-6.195162890058782
1539131062117030,0.03051804379333589,2.3498893720911838,-7.4158846417944915
1539131062133010,-4.60822461280236,2.8992141603723667,-7.4158846417944915
1539131062148991,-9.246967269398056,3.3875028610666504,-6.317235065232353
1539131062164972,-10.650797283894008,3.2654306858930795,-4.242008087281647
1539131062180953,-6.9886320286868795,2.288853284504512,-1.3733119707026162
1539131062196930,1.4953841458761872,1.1291676203554744,1.4953841458761872
1539131062212910,9.430075532158298,-0.3967345693140487,3.2654306858930795
1539131062228891,14.679179064621849,-2.655069810025225,3.5095750362402214
1539131062244872,20.721751735713724,-4.119935912108076,3.2654306858930795
1539131062260852,24.872205691615136,-4.364080262455218,3.570611123826893
1539131062276833,22.247653925383247,-4.303044174868319,3.2043945983061803
1539131062292814,17.303730830853738,-4.180971999694748,2.105745021744042
1539131062308795,11.139085984588291,-3.4485389486533222,1.983672846570471
1539131062324775,10.467689021133765,-1.8005645838102282,2.5940337224383256
1539131062340756,3.1433585107195086,-1.5564202334630863,2.4719615472647547
1539131062356737,-3.875791561760934,-1.9226367589837992,1.6174563210497581
