Timestamp (microseconds),Accel X (g),Accel Y (g),Accel Z (g)
1539131634783569,-0.11163500419623107,0.971755550469215,0.21197833218890683
1539131634799571,-0.11090257114518964,0.9694361791409172,0.21149004348821254
1539131634815572,-0.10955977721828036,0.9711451895933472,0.2112458991378654
1539131634831574,-0.10589761196307323,0.9733424887464714,0.21026932173647683
1539131634847576,-0.1077286945906768,0.9729762722209507,0.20856031128404684
1539131634863577,-0.10516517891203181,0.9685816739147022,0.21100175478751826
1539131634879579,-0.10443274586099038,0.9682154573891815,0.21173418783855968
1539131634895581,-0.10504310673685824,0.9713893339436943,0.20990310521095612
1539131634911583,-0.10492103456168467,0.9712672617685207,0.207095445181964
1539131634927584,-0.10406652933546967,0.9704127565423057,0.20733958953231113
1539131634943586,-0.10345616845960182,0.9713893339436943,0.20782787823300541
1539131634959588,-0.10260166323338682,0.9722438391699093,0.20648508430609613
1539131634975589,-0.10077058060578326,0.9729762722209507,0.21149004348821254
1539131634991591,-0.10357824063477539,0.9721217669947357,0.20843823910887327
1539131635007593,-0.10272373540856039,0.9723659113450829,0.20807202258335256
1539131635023594,-0.10260166323338682,0.9710231174181736,0.20929274433508827
1539131635039596,-0.10199130235751896,0.9693141069657436,0.2103913939116504
1539131635055598,-0.10370031280994896,0.970046540016785,0.21185626001373326
1539131635071600,-0.10540932326237895,0.970901045243,0.20892652780956755
1539131635087601,-0.10638590066376752,0.9707789730678265,0.20843823910887327
1539131635103607,-0.1085831998168918,0.9728542000457772,0.21026932173647683
1539131635119609,-0.10931563286793322,0.9712672617685207,0.20758373388265827
1539131635135610,-0.11029221026932179,0.9705348287174793,0.20978103303578255
1539131635151612,-0.11053635461966893,0.9696803234912643,0.2100251773861297
1539131635167614,-0.11053635461966893,0.9689478904402229,0.20990310521095612
1539131635183615,-0.11090257114518964,0.9693141069657436,0.2100251773861297
1539131635199617,-0.10919356069275965,0.9690699626153965,0.21222247653925397
1539131635215619,-0.10943770504310679,0.9695582513160907,0.2100251773861297
1539131635231620,-0.10882734416723894,0.9706569008926529,0.2108796826123447
1539131635247622,-0.10699626153963537,0.9711451895933472,0.21234454871442754
1539131635263624,-0.11004806591897465,0.9707789730678265,0.20990310521095612
1539131635279626,-0.10846112764171822,0.9723659113450829,0.2083161669336997
1539131635295627,-0.10492103456168467,0.971755550469215,0.20892652780956755
1539131635311629,-0.10516517891203181,0.9728542000457772,0.20880445563439398
1539131635327631,-0.10699626153963537,0.9730983443961243,0.21197833218890683
1539131635343632,-0.10357824063477539,0.97261005569543,0.2108796826123447
1539131635359634,-0.10370031280994896,0.971755550469215,0.20965896086060898
1539131635375636,-0.10357824063477539,0.9719996948195622,0.20978103303578255
1539131635391637,-0.10296787975890753,0.9730983443961243,0.21051346608682397
1539131635407639,-0.1068741893644618,0.970046540016785,0.21173418783855968
1539131635423645,-0.10797283894102394,0.96919203479057,0.21393148699168396
1539131635439646,-0.10846112764171822,0.96748302433814,0.20856031128404684
1539131635455648,-0.10955977721828036,0.96748302433814,0.21185626001373326
1539131635471650,-0.10870527199206537,0.9696803234912643,0.21258869306477468
1539131635487651,-0.10638590066376752,0.9722438391699093,0.21234454871442754
1539131635503653,-0.10675211718928823,0.9732204165712979,0.21319905394064254
1539131635519655,-0.10797283894102394,0.9746852826733807,0.21319905394064254
1539131635535657,-0.10516517891203181,0.9732204165712979,0.21234454871442754
1539131635551658,-0.10455481803616395,0.9698023956664379,0.2121004043640804
1539131635567660,-0.1047989623865111,0.9676050965133136,0.20892652780956755
1539131635583662,-0.10443274586099038,0.9671168078126193,0.20904859998474112
1539131635599663,-0.10247959105821325,0.9684596017395286,0.21149004348821254
1539131635615665,-0.10357824063477539,0.9728542000457772,0.2103913939116504
1539131635631667,-0.10382238498512253,0.9738307774471657,0.20965896086060898
1539131635647668,-0.1039444571602961,0.9748073548485543,0.20929274433508827
1539131635663670,-0.1047989623865111,0.9750514991989014,0.20880445563439398
1539131635679672,-0.10528725108720538,0.9715114061188679,0.21100175478751826
1539131635695674,-0.10724040588998252,0.9710231174181736,0.207095445181964
1539131635711675,-0.10711833371480894,0.9693141069657436,0.20770580605783184
1539131635727677,-0.10797283894102394,0.9698023956664379,0.2074616617074847
1539131635743805,-0.10589761196307323,0.9699244678416115,0.2091706721599147
1539131635759807,-0.1068741893644618,0.97261005569543,0.2116121156633861
1539131635775809,-0.10516517891203181,0.9738307774471657,0.21149004348821254
1539131635791811,-0.10626382848859395,0.971755550469215,0.2103913939116504
1539131635807813,-0.10650797283894109,0.9716334782940415,0.21319905394064254
1539131635823815,-0.10760662241550323,0.9721217669947357,0.2129549095902954
1539131635839818,-0.10748455024032966,0.9735866330968186,0.21393148699168396
1539131635855820,-0.10724040588998252,0.9706569008926529,0.21405355916685753
1539131635871822,-0.10638590066376752,0.9695582513160907,0.20941481651026184
1539131635887824,-0.10382238498512253,0.9685816739147022,0.20733958953231113
1539131635903826,-0.10467689021133753,0.96919203479057,0.20929274433508827
1539131635919829,-0.10321202410925467,0.9728542000457772,0.21149004348821254
1539131635935831,-0.10540932326237895,0.9737087052719922,0.2138094148165104
1539131635951833,-0.1060196841382468,0.970901045243,0.21551842526894038
1539131635967835,-0.10663004501411466,0.9673609521629665,0.2138094148165104
1539131635983837,-0.10870527199206537,0.9663843747615779,0.21649500267032895
1539131635999839,-0.10846112764171822,0.9677271686884872,0.21185626001373326
1539131636015842,-0.10931563286793322,0.9711451895933472,0.21429770351720467
1539131636031844,-0.10760662241550323,0.9748073548485543,0.21490806439307253
1539131636047846,-0.10724040588998252,0.9770046540016786,0.21356527046616325
1539131636063934,-0.10736247806515609,0.9765163653009843,0.21283283741512182
1539131636079937,-0.10663004501411466,0.9733424887464714,0.21222247653925397
1539131636095939,-0.10577553978789966,0.9698023956664379,0.2103913939116504
1539131636111942,-0.10711833371480894,0.9660181582360572,0.20636301213092256
1539131636127945,-0.10492103456168467,0.9650415808346686,0.204531929503319
1539131636143947,-0.10455481803616395,0.9676050965133136,0.20636301213092256
1539131636159950,-0.10321202410925467,0.9685816739147022,0.20758373388265827
1539131636175953,-0.10370031280994896,0.9727321278706036,0.2086823834592204
1539131636191955,-0.10565346761272609,0.9719996948195622,0.2074616617074847
1539131636207958,-0.10711833371480894,0.9695582513160907,0.21014724956130326
1539131636223961,-0.10663004501411466,0.9696803234912643,0.2074616617074847
1539131636239963,-0.10699626153963537,0.971755550469215,0.20856031128404684
1539131636255966,-0.10833905546654465,0.970901045243,0.21149004348821254
1539131636271968,-0.1060196841382468,0.97261005569543,0.21112382696269183
1539131636287971,-0.1060196841382468,0.97431906614786,0.21271076523994825
1539131636303974,-0.10589761196307323,0.9752956435492486,0.2121004043640804
1539131636319976,-0.10675211718928823,0.9740749217975129,0.21112382696269183
1539131636335979,-0.10833905546654465,0.9724879835202564,0.21307698176546896
1539131636351982,-0.10711833371480894,0.9715114061188679,0.21478599221789896
1539131636367984,-0.10699626153963537,0.9698023956664379,0.21307698176546896
1539131636384124,-0.10748455024032966,0.9662623025864043,0.21356527046616325
1539131636400128,-0.10833905546654465,0.9669947356374458,0.21429770351720467
1539131636416131,-0.1060196841382468,0.9678492408636608,0.2153963530937668
1539131636432134,-0.10577553978789966,0.9694361791409172,0.2167391470206761
1539131636448137,-0.10589761196307323,0.9711451895933472,0.21844815747310609
1539131636464140,-0.10418860151064324,0.9722438391699093,0.21820401312275894
1539131636480143,-0.10760662241550323,0.9713893339436943,0.21979095140001537
1539131636496146,-0.10943770504310679,0.9706569008926529,0.21734950789654395
1539131636512149,-0.11029221026932179,0.9685816739147022,0.21661707484550252
1539131636528153,-0.10907148851758608,0.9685816739147022,0.21454184786755182
1539131636544156,-0.11029221026932179,0.9695582513160907,0.2133211261158161
1539131636560159,-0.10846112764171822,0.9724879835202564,0.21564049744411395
1539131636576162,-0.1077286945906768,0.9727321278706036,0.21271076523994825
1539131636592165,-0.1060196841382468,0.9737087052719922,0.21185626001373326
1539131636608168,-0.10455481803616395,0.97261005569543,0.2116121156633861
1539131636624171,-0.1039444571602961,0.9704127565423057,0.20819409475852613
1539131636640174,-0.10345616845960182,0.9694361791409172,0.20794995040817899
1539131636656178,-0.10370031280994896,0.9677271686884872,0.20880445563439398
1539131636672181,-0.10418860151064324,0.9687037460898758,0.2100251773861297
1539131636688184,-0.1030899519340811,0.970046540016785,0.206240939955749
1539131636704284,-0.10370031280994896,0.9699244678416115,0.20636301213092256
1539131636720288,-0.10370031280994896,0.9698023956664379,0.20526436255436042
1539131636736292,-0.1060196841382468,0.9713893339436943,0.20685130083161685
1539131636752295,-0.10492103456168467,0.9711451895933472,0.2086823834592204
1539131636768299,-0.10626382848859395,0.9713893339436943,0.21112382696269183
1539131636784302,-0.1060196841382468,0.9741969939726864,0.2112458991378654
1539131636800306,-0.1077286945906768,0.97261005569543,0.21356527046616325
1539131636816310,-0.10699626153963537,0.9716334782940415,0.2150301365682461
1539131636832313,-0.10736247806515609,0.970901045243,0.21441977569237824
1539131636848317,-0.10809491111619751,0.971755550469215,0.21564049744411395
1539131636864320,-0.11041428244449536,0.9712672617685207,0.21771572442206466
1539131636880324,-0.10943770504310679,0.9710231174181736,0.2162508583199818
1539131636896328,-0.11004806591897465,0.9707789730678265,0.21527428091859324
1539131636912331,-0.10797283894102394,0.96919203479057,0.21686121919584966
1539131636928335,-0.10638590066376752,0.9688258182650493,0.21612878614480824
1539131636944338,-0.10736247806515609,0.9693141069657436,0.21600671396963467
1539131636960342,-0.10614175631342038,0.9694361791409172,0.2153963530937668
1539131636976346,-0.10663004501411466,0.9679713130388343,0.2150301365682461
1539131636992349,-0.10675211718928823,0.9705348287174793,0.2167391470206761
1539131637008353,-0.10846112764171822,0.9702906843671322,0.2196688792248418
1539131637024475,-0.10711833371480894,0.970046540016785,0.21649500267032895
1539131637040479,-0.10894941634241251,0.9678492408636608,0.2171053635461968
1539131637056483,-0.10968184939345393,0.9705348287174793,0.21649500267032895
1539131637072487,-0.11078049897001607,0.9715114061188679,0.21857022964827966
1539131637088491,-0.11126878767071036,0.9727321278706036,0.21515220874341967
1539131637104495,-0.11053635461966893,0.9739528496223393,0.2158846417944611
1539131637120499,-0.1098039215686275,0.97431906614786,0.21612878614480824
1539131637136503,-0.1085831998168918,0.9732204165712979,0.21197833218890683
1539131637152507,-0.10675211718928823,0.973464560921645,0.21234454871442754
1539131637168511,-0.10345616845960182,0.9715114061188679,0.20611886778057542
1539131637184516,-0.1018692301823454,0.9696803234912643,0.20782787823300541
1539131637200520,-0.10040436408026254,0.9689478904402229,0.2103913939116504
1539131637216524,-0.10052643625543611,0.96919203479057,0.20672922865644328
1539131637232528,-0.10052643625543611,0.968337529564355,0.205386434729534
1539131637248532,-0.09967193102922112,0.9696803234912643,0.20697337300679042
1539131637264536,-0.10040436408026254,0.9680933852140079,0.20526436255436042
1539131637280540,-0.1022354467078661,0.9706569008926529,0.20819409475852613
1539131637296544,-0.10443274586099038,0.9693141069657436,0.20904859998474112
1539131637312548,-0.10650797283894109,0.9705348287174793,0.21197833218890683
1539131637328552,-0.10663004501411466,0.9712672617685207,0.2141756313420311
1539131637344635,-0.10833905546654465,0.9724879835202564,0.2158846417944611
1539131637360639,-0.11053635461966893,0.9723659113450829,0.21405355916685753
1539131637376644,-0.11090257114518964,0.9694361791409172,0.21686121919584966
1539131637392648,-0.11285572594796678,0.9662623025864043,0.21637293049515538
1539131637408653,-0.11407644769970249,0.9660181582360572,0.21344319829098968
1539131637424657,-0.11456473640039677,0.9705348287174793,0.2121004043640804
1539131637440662,-0.11248950942244607,0.9712672617685207,0.21478599221789896
1539131637456667,-0.10882734416723894,0.9741969939726864,0.21393148699168396
1539131637472671,-0.10650797283894109,0.9749294270237279,0.2133211261158161
1539131637488676,-0.10577553978789966,0.9772487983520257,0.21271076523994825
1539131637504680,-0.1030899519340811,0.9740749217975129,0.2121004043640804
1539131637520685,-0.10296787975890753,0.971755550469215,0.2108796826123447
1539131637536689,-0.10321202410925467,0.9699244678416115,0.20965896086060898
1539131637552694,-0.10492103456168467,0.9651636530098422,0.21100175478751826
1539131637568699,-0.10516517891203181,0.9630884260318915,0.21063553826199755
1539131637584703,-0.10626382848859395,0.9639429312581065,0.21271076523994825
1539131637600708,-0.10711833371480894,0.9689478904402229,0.21551842526894038
1539131637616712,-0.10809491111619751,0.9715114061188679,0.21454184786755182
1539131637632717,-0.10955977721828036,0.9732204165712979,0.2171053635461968
1539131637648721,-0.10797283894102394,0.9741969939726864,0.21600671396963467
1539131637664795,-0.10785076676585037,0.9748073548485543,0.21173418783855968
1539131637680799,-0.10833905546654465,0.9727321278706036,0.21173418783855968
1539131637696804,-0.10821698329137108,0.9715114061188679,0.20770580605783184
1539131637712808,-0.10724040588998252,0.9718776226443886,0.20758373388265827
1539131637728813,-0.1077286945906768,0.971755550469215,0.20611886778057542
1539131637744817,-0.10650797283894109,0.9730983443961243,0.20697337300679042
1539131637760822,-0.1039444571602961,0.9740749217975129,0.20526436255436042
1539131637776826,-0.10260166323338682,0.9744411383230336,0.20514229037918685
1539131637792831,-0.1022354467078661,0.975173571374075,0.20770580605783184
1539131637808836,-0.10150301365682468,0.9740749217975129,0.20563057907988114
1539131637824840,-0.10150301365682468,0.9707789730678265,0.20843823910887327
1539131637840845,-0.10357824063477539,0.9680933852140079,0.21100175478751826
1539131637856849,-0.10528725108720538,0.9676050965133136,0.2091706721599147
1539131637872854,-0.1060196841382468,0.9678492408636608,0.21051346608682397
1539131637888858,-0.10748455024032966,0.9695582513160907,0.21234454871442754
1539131637904863,-0.10736247806515609,0.9699244678416115,0.21515220874341967
1539131637920868,-0.1068741893644618,0.970046540016785,0.2150301365682461
1539131637936872,-0.11017013809414822,0.9729762722209507,0.21564049744411395
1539131637952877,-0.11041428244449536,0.9728542000457772,0.2158846417944611
1539131637968881,-0.11139085984588393,0.9723659113450829,0.21271076523994825
1539131637984985,-0.11248950942244607,0.970901045243,0.21075761043717112
1539131638000990,-0.11078049897001607,0.970901045243,0.2112458991378654
1539131638016995,-0.10943770504310679,0.9704127565423057,0.2091706721599147
1539131638033000,-0.1085831998168918,0.9735866330968186,0.21185626001373326
1539131638049005,-0.10650797283894109,0.9744411383230336,0.21026932173647683
1539131638065010,-0.10528725108720538,0.9757839322499429,0.20880445563439398
1539131638081015,-0.10455481803616395,0.9741969939726864,0.2116121156633861
1539131638097020,-0.10565346761272609,0.9705348287174793,0.21429770351720467
1539131638113025,-0.10589761196307323,0.9673609521629665,0.21551842526894038
1539131638129030,-0.10553139543755252,0.9665064469367515,0.21405355916685753
1539131638145035,-0.10748455024032966,0.96577401388571,0.21551842526894038
1539131638161040,-0.1047989623865111,0.9696803234912643,0.2133211261158161
1539131638177045,-0.10406652933546967,0.9715114061188679,0.21283283741512182
1539131638193050,-0.10406652933546967,0.973464560921645,0.2103913939116504
1539131638209056,-0.10443274586099038,0.973464560921645,0.2108796826123447
1539131638225061,-0.10418860151064324,0.9711451895933472,0.20990310521095612
1539131638241066,-0.10406652933546967,0.9705348287174793,0.20770580605783184
1539131638257071,-0.10174715800717182,0.9671168078126193,0.20428778515297186
1539131638273076,-0.10333409628442825,0.9689478904402229,0.20477607385366614
1539131638289081,-0.10821698329137108,0.970046540016785,0.201113908598459
1539131638305175,-0.11309987029831392,0.9729762722209507,0.19794003204394617
1539131638321181,-0.11773861295490962,0.9745632104982072,0.1952544441901276
1539131638337186,-0.1190814068818189,0.9737087052719922,0.19037155718318477
1539131638353192,-0.12384222171358816,0.9755397878995957,0.19000534065766406
1539131638369197,-0.12335393301289388,0.9735866330968186,0.19134813458457334
1539131638385203,-0.12262149996185245,0.9696803234912643,0.1952544441901276
1539131638401209,-0.11798275730525676,0.9699244678416115,0.1995269703212026
1539131638417214,-0.11663996337834748,0.9713893339436943,0.201968413824674
1539131638433220,-0.11700617990386819,0.9727321278706036,0.2048981460288397
1539131638449225,-0.11395437552452892,0.9735866330968186,0.20648508430609613
1539131638465231,-0.11078049897001607,0.9728542000457772,0.21014724956130326
1539131638481236,-0.10577553978789966,0.9733424887464714,0.21368734264133682
1539131638497242,-0.10492103456168467,0.9721217669947357,0.21527428091859324
1539131638513247,-0.10235751888303968,0.9716334782940415,0.2175936522468911
1539131638529253,-0.10040436408026254,0.968337529564355,0.21478599221789896
1539131638545258,-0.09600976577401399,0.9673609521629665,0.21771572442206466
1539131638561264,-0.09503318837262542,0.9671168078126193,0.22076752880140393
1539131638577269,-0.09466697184710471,0.96748302433814,0.2205233844510568
1539131638593275,-0.09491111619745185,0.9698023956664379,0.22162203402761893
1539131638609280,-0.09539940489814613,0.9716334782940415,0.22308690012970178
1539131638625335,-0.09906157015335326,0.9705348287174793,0.22162203402761893
1539131638641341,-0.09942778667887398,0.9688258182650493,0.2234531166552225
1539131638657346,-0.10125886930647754,0.96748302433814,0.22357518883039607
1539131638673352,-0.0993057145037004,0.9669947356374458,0.2217441062027925
1539131638689357,-0.10138094148165111,0.96919203479057,0.22015716792553608
1539131638705363,-0.10162508583199825,0.970046540016785,0.21905851834897394
1539131638721368,-0.10406652933546967,0.9740749217975129,0.21722743572137038
1539131638737374,-0.10577553978789966,0.9750514991989014,0.21197833218890683
1539131638753379,-0.10760662241550323,0.9746852826733807,0.21112382696269183
1539131638769385,-0.10821698329137108,0.9733424887464714,0.20819409475852613
1539131638785390,-0.10724040588998252,0.9680933852140079,0.2066071564812697
1539131638801396,-0.10736247806515609,0.9679713130388343,0.20209048599984758
1539131638817402,-0.10894941634241251,0.9673609521629665,0.20306706340123615
1539131638833407,-0.1106584267948425,0.970046540016785,0.20172426947432687
1539131638849413,-0.11102464332036321,0.971755550469215,0.20172426947432687
1539131638865418,-0.11334401464866106,0.9738307774471657,0.19928282597085545
1539131638881424,-0.11541924162661177,0.9746852826733807,0.1978179598687726
1539131638897429,-0.11810482948043033,0.97261005569543,0.19684138246738403
1539131638913435,-0.11859311818112461,0.9721217669947357,0.19745174334325188
1539131638929440,-0.11859311818112461,0.9715114061188679,0.20013733119707044
1539131638945495,-0.11847104600595104,0.9698023956664379,0.20148012512397973
1539131638961501,-0.11761654077973605,0.9701686121919586,0.1981841763942933
1539131638977507,-0.11627374685282676,0.9727321278706036,0.20148012512397973
1539131638993513,-0.11456473640039677,0.9752956435492486,0.20465400167849257
1539131639009519,-0.11334401464866106,0.97602807660029,0.20502021820401328
1539131639025525,-0.11261158159761964,0.9729762722209507,0.20563057907988114
1539131639041531,-0.11114671549553679,0.9718776226443886,0.2091706721599147
1539131639057537,-0.11041428244449536,0.9694361791409172,0.20904859998474112
1539131639073543,-0.10870527199206537,0.9694361791409172,0.20990310521095612
1539131639089549,-0.10797283894102394,0.970046540016785,0.21258869306477468
1539131639105555,-0.10540932326237895,0.9693141069657436,0.2121004043640804
1539131639121561,-0.10370031280994896,0.9688258182650493,0.21234454871442754
1539131639137567,-0.10333409628442825,0.9713893339436943,0.21698329137102323
1539131639153573,-0.1022354467078661,0.9723659113450829,0.21820401312275894
1539131639169579,-0.10150301365682468,0.97261005569543,0.21734950789654395
1539131639185585,-0.10382238498512253,0.9710231174181736,0.21783779659723823
1539131639201591,-0.10357824063477539,0.9689478904402229,0.2196688792248418
1539131639217597,-0.10345616845960182,0.9682154573891815,0.22284275577935464
1539131639233603,-0.10247959105821325,0.9694361791409172,0.2208896009765775
1539131639249609,-0.10199130235751896,0.9705348287174793,0.2213778896772718
1539131639265686,-0.10211337453269254,0.9710231174181736,0.22198825055313964
1539131639281692,-0.1018692301823454,0.9740749217975129,0.22064545662623036
1539131639297698,-0.1039444571602961,0.970901045243,0.22027924010070965
1539131639313704,-0.10406652933546967,0.9690699626153965,0.21844815747310609
1539131639329710,-0.10370031280994896,0.9682154573891815,0.21515220874341967
1539131639345716,-0.10296787975890753,0.9661402304112308,0.2129549095902954
1539131639361722,-0.10357824063477539,0.9665064469367515,0.20880445563439398
1539131639377728,-0.10431067368581681,0.9699244678416115,0.20685130083161685
1539131639393734,-0.1047989623865111,0.9713893339436943,0.20733958953231113
1539131639409740,-0.10150301365682468,0.9719996948195622,0.20343327992675686
1539131639425746,-0.10174715800717182,0.9740749217975129,0.20392156862745114
1539131639441752,-0.10296787975890753,0.9739528496223393,0.20428778515297186
1539131639457758,-0.10650797283894109,0.9739528496223393,0.20355535210193043
1539131639473764,-0.1060196841382468,0.9723659113450829,0.2057526512550547
1539131639489770,-0.10553139543755252,0.970046540016785,0.20428778515297186
1539131639505776,-0.10809491111619751,0.9698023956664379,0.20502021820401328
1539131639521782,-0.10882734416723894,0.9704127565423057,0.2057526512550547
1539131639537788,-0.11029221026932179,0.9721217669947357,0.20807202258335256
1539131639553794,-0.11114671549553679,0.9712672617685207,0.20929274433508827
1539131639569800,-0.11297779812314035,0.9710231174181736,0.21441977569237824
1539131639585846,-0.11322194247348749,0.9699244678416115,0.21307698176546896
1539131639601852,-0.11432059205004963,0.9704127565423057,0.21478599221789896
1539131639617859,-0.11419851987487606,0.9702906843671322,0.21637293049515538
1539131639633865,-0.11285572594796678,0.9705348287174793,0.21527428091859324
1539131639649871,-0.11261158159761964,0.9712672617685207,0.21686121919584966
1539131639665878,-0.11029221026932179,0.970901045243,0.2200350957503625
1539131639681884,-0.10833905546654465,0.9682154573891815,0.22040131227588322
1539131639697891,-0.10821698329137108,0.9676050965133136,0.21869230182345323
1539131639713897,-0.1077286945906768,0.96748302433814,0.21698329137102323
1539131639729904,-0.10663004501411466,0.9699244678416115,0.21991302357518894
1539131639745910,-0.10284580758373396,0.9698023956664379,0.2150301365682461
1539131639761917,-0.1030899519340811,0.9689478904402229,0.21478599221789896
1539131639777923,-0.10174715800717182,0.9713893339436943,0.2121004043640804
1539131639793930,-0.10235751888303968,0.9754177157244222,0.21429770351720467
1539131639809936,-0.1030899519340811,0.9782253757534143,0.2133211261158161
1539131639825943,-0.10406652933546967,0.9729762722209507,0.21271076523994825
1539131639841949,-0.10247959105821325,0.9663843747615779,0.21283283741512182
1539131639857956,-0.10382238498512253,0.9622339208056765,0.21100175478751826
1539131639873962,-0.10260166323338682,0.9656519417105365,0.20990310521095612
1539131639889968,-0.10467689021133753,0.971755550469215,0.21185626001373326
1539131639906036,-0.10431067368581681,0.9749294270237279,0.2083161669336997
1539131639922042,-0.10455481803616395,0.9773708705271993,0.2095368886854354
1539131639938049,-0.1047989623865111,0.9756618600747693,0.2108796826123447
1539131639954055,-0.10614175631342038,0.9723659113450829,0.21075761043717112
1539131639970062,-0.10760662241550323,0.9671168078126193,0.21136797131303897
1539131639986068,-0.10675211718928823,0.9630884260318915,0.20782787823300541
1539131640002075,-0.10370031280994896,0.9630884260318915,0.20721751735713756
1539131640018081,-0.10370031280994896,0.9671168078126193,0.20929274433508827
1539131640034088,-0.10650797283894109,0.9706569008926529,0.21026932173647683
1539131640050094,-0.10614175631342038,0.9779812314030671,0.21051346608682397
1539131640066101,-0.10736247806515609,0.9779812314030671,0.20733958953231113
1539131640082107,-0.11078049897001607,0.9740749217975129,0.2112458991378654
1539131640098114,-0.11029221026932179,0.9687037460898758,0.2150301365682461
1539131640114120,-0.11102464332036321,0.9652857251850158,0.21344319829098968
1539131640130127,-0.10943770504310679,0.9639429312581065,0.21405355916685753
1539131640146133,-0.1085831998168918,0.9654077973601893,0.2167391470206761
1539131640162140,-0.10833905546654465,0.9699244678416115,0.21783779659723823
1539131640178146,-0.10846112764171822,0.97261005569543,0.21637293049515538
1539131640194152,-0.10955977721828036,0.9738307774471657,0.21637293049515538
1539131640210159,-0.11114671549553679,0.9723659113450829,0.21551842526894038
1539131640226226,-0.11102464332036321,0.9713893339436943,0.2146639200427254
1539131640242233,-0.11090257114518964,0.9722438391699093,0.21698329137102323
1539131640258240,-0.11017013809414822,0.9716334782940415,0.21686121919584966
1539131640274247,-0.10431067368581681,0.97261005569543,0.2171053635461968
1539131640290254,-0.10418860151064324,0.9732204165712979,0.21771572442206466
1539131640306261,-0.10333409628442825,0.9732204165712979,0.21429770351720467
1539131640322268,-0.10174715800717182,0.9710231174181736,0.2158846417944611
1539131640338275,-0.10113679713130397,0.9679713130388343,0.21307698176546896
1539131640354282,-0.1001602197299154,0.9641870756084536,0.21258869306477468
1539131640370289,-0.10028229190508897,0.9656519417105365,0.21051346608682397
1539131640386296,-0.10199130235751896,0.9688258182650493,0.21222247653925397
1539131640402303,-0.10284580758373396,0.9728542000457772,0.21319905394064254
1539131640418310,-0.1060196841382468,0.97431906614786,0.2167391470206761
1539131640434317,-0.10748455024032966,0.9715114061188679,0.21844815747310609
1539131640450324,-0.10846112764171822,0.9694361791409172,0.2196688792248418
1539131640466331,-0.11053635461966893,0.96748302433814,0.22040131227588322
1539131640482338,-0.11126878767071036,0.9673609521629665,0.22149996185244536
1539131640498345,-0.11175707637140464,0.9680933852140079,0.22015716792553608
1539131640514351,-0.10943770504310679,0.9721217669947357,0.21857022964827966
1539131640530358,-0.11041428244449536,0.9745632104982072,0.2146639200427254
1539131640546386,-0.10907148851758608,0.9761501487754636,0.21283283741512182
1539131640562393,-0.1085831998168918,0.9739528496223393,0.21222247653925397
1539131640578400,-0.10699626153963537,0.9710231174181736,0.21026932173647683
1539131640594407,-0.10724040588998252,0.9705348287174793,0.20440985732814543
1539131640610414,-0.10675211718928823,0.9705348287174793,0.20733958953231113
1539131640626421,-0.10638590066376752,0.9690699626153965,0.20892652780956755
1539131640642428,-0.10614175631342038,0.971755550469215,0.20794995040817899
1539131640658435,-0.10540932326237895,0.9716334782940415,0.20770580605783184
1539131640674442,-0.1047989623865111,0.9718776226443886,0.20648508430609613
1539131640690449,-0.1047989623865111,0.9706569008926529,0.20843823910887327
1539131640706456,-0.10540932326237895,0.9694361791409172,0.21075761043717112
1539131640722463,-0.1060196841382468,0.9684596017395286,0.20843823910887327
1539131640738470,-0.1068741893644618,0.9704127565423057,0.2141756313420311
1539131640754477,-0.10724040588998252,0.970046540016785,0.2150301365682461
1539131640770484,-0.10797283894102394,0.9699244678416115,0.21893644617380037
1539131640786491,-0.10675211718928823,0.9696803234912643,0.21869230182345323
1539131640802497,-0.10431067368581681,0.9707789730678265,0.21832608529793252
1539131640818504,-0.10467689021133753,0.971755550469215,0.21771572442206466
1539131640834511,-0.10455481803616395,0.9701686121919586,0.21808194094758537
1539131640850518,-0.10540932326237895,0.9698023956664379,0.21905851834897394
1539131640866577,-0.10663004501411466,0.9688258182650493,0.21515220874341967
1539131640882584,-0.10760662241550323,0.970046540016785,0.21857022964827966
1539131640898591,-0.10724040588998252,0.9677271686884872,0.21722743572137038
1539131640914598,-0.10565346761272609,0.9669947356374458,0.21600671396963467
1539131640930605,-0.1039444571602961,0.9689478904402229,0.2162508583199818
1539131640946612,-0.10333409628442825,0.9718776226443886,0.2167391470206761
1539131640962618,-0.10443274586099038,0.9727321278706036,0.21686121919584966
1539131640978625,-0.10382238498512253,0.9735866330968186,0.21686121919584966
1539131640994632,-0.10455481803616395,0.9728542000457772,0.2167391470206761
1539131641010639,-0.10846112764171822,0.9685816739147022,0.2171053635461968
1539131641026646,-0.10907148851758608,0.9676050965133136,0.21454184786755182
1539131641042653,-0.10919356069275965,0.9678492408636608,0.2141756313420311
1539131641058660,-0.10943770504310679,0.9679713130388343,0.2124666208896011
1539131641074667,-0.11090257114518964,0.9710231174181736,0.21185626001373326
1539131641090674,-0.10882734416723894,0.9718776226443886,0.21063553826199755
1539131641106681,-0.10760662241550323,0.9723659113450829,0.21222247653925397
1539131641122688,-0.1060196841382468,0.9704127565423057,0.20965896086060898
1539131641138695,-0.10675211718928823,0.9689478904402229,0.20929274433508827
1539131641154702,-0.1060196841382468,0.9684596017395286,0.20770580605783184
1539131641170709,-0.10577553978789966,0.9668726634622722,0.2091706721599147
1539131641186767,-0.1077286945906768,0.968337529564355,0.2103913939116504
1539131641202775,-0.10553139543755252,0.9682154573891815,0.21112382696269183
1539131641218782,-0.10443274586099038,0.970046540016785,0.2091706721599147
1539131641234789,-0.10272373540856039,0.9738307774471657,0.2103913939116504
1539131641250797,-0.10284580758373396,0.9741969939726864,0.21197833218890683
1539131641266804,-0.10357824063477539,0.9754177157244222,0.21771572442206466
1539131641282812,-0.10345616845960182,0.9739528496223393,0.21490806439307253
1539131641298819,-0.10455481803616395,0.97261005569543,0.21149004348821254
1539131641314827,-0.10638590066376752,0.970046540016785,0.21905851834897394
1539131641330834,-0.10760662241550323,0.9695582513160907,0.21820401312275894
1539131641346841,-0.10797283894102394,0.968337529564355,0.21551842526894038
1539131641362849,-0.10785076676585037,0.9673609521629665,0.2196688792248418
1539131641378856,-0.1077286945906768,0.9685816739147022,0.21991302357518894
1539131641394864,-0.10736247806515609,0.9672388799877929,0.21930266269932108
1539131641410871,-0.10797283894102394,0.9694361791409172,0.22015716792553608
1539131641426879,-0.10565346761272609,0.9690699626153965,0.22027924010070965
1539131641442886,-0.10492103456168467,0.9687037460898758,0.21747158007171752
1539131641458893,-0.1039444571602961,0.9715114061188679,0.21551842526894038
1539131641474901,-0.1030899519340811,0.9707789730678265,0.21405355916685753
1539131641490908,-0.10077058060578326,0.9695582513160907,0.21149004348821254
1539131641506897,-0.10077058060578326,0.9706569008926529,0.2129549095902954
1539131641522904,-0.10077058060578326,0.9701686121919586,0.21344319829098968
1539131641538911,-0.10235751888303968,0.9707789730678265,0.21405355916685753
1539131641554919,-0.10321202410925467,0.9733424887464714,0.21429770351720467
1539131641570926,-0.1047989623865111,0.9727321278706036,0.21441977569237824
1539131641586934,-0.10699626153963537,0.9682154573891815,0.2158846417944611
1539131641602941,-0.10943770504310679,0.9667505912870986,0.21454184786755182
1539131641618949,-0.1106584267948425,0.9654077973601893,0.21515220874341967
1539131641634956,-0.1115129320210575,0.968337529564355,0.21454184786755182
1539131641650963,-0.11041428244449536,0.9702906843671322,0.21429770351720467
1539131641666971,-0.11004806591897465,0.973464560921645,0.21319905394064254
1539131641682978,-0.11078049897001607,0.975173571374075,0.2124666208896011
1539131641698986,-0.10785076676585037,0.97261005569543,0.21222247653925397
1539131641714993,-0.10565346761272609,0.9712672617685207,0.21173418783855968
1539131641731001,-0.10455481803616395,0.9672388799877929,0.21454184786755182
1539131641747008,-0.10528725108720538,0.96748302433814,0.21014724956130326
1539131641763015,-0.10382238498512253,0.9694361791409172,0.2133211261158161
1539131641779023,-0.10406652933546967,0.9712672617685207,0.21319905394064254
1539131641795030,-0.10370031280994896,0.9696803234912643,0.2133211261158161
1539131641811038,-0.10052643625543611,0.9715114061188679,0.2121004043640804
1539131641827087,-0.1022354467078661,0.9711451895933472,0.2133211261158161
1539131641843094,-0.10370031280994896,0.970901045243,0.21490806439307253
1539131641859102,-0.10333409628442825,0.9693141069657436,0.2150301365682461
1539131641875109,-0.10577553978789966,0.9689478904402229,0.21478599221789896
1539131641891117,-0.10589761196307323,0.9704127565423057,0.21478599221789896
1539131641907124,-0.10699626153963537,0.9694361791409172,0.2138094148165104
1539131641923132,-0.1060196841382468,0.9694361791409172,0.21527428091859324
1539131641939139,-0.10785076676585037,0.9706569008926529,0.2167391470206761
1539131641955146,-0.10614175631342038,0.9699244678416115,0.21869230182345323
1539131641971154,-0.10748455024032966,0.9702906843671322,0.21600671396963467
1539131641987161,-0.10577553978789966,0.9706569008926529,0.2205233844510568
1539131642003169,-0.10626382848859395,0.9693141069657436,0.21832608529793252
1539131642019176,-0.10626382848859395,0.970046540016785,0.21686121919584966
1539131642035184,-0.1060196841382468,0.968337529564355,0.21637293049515538
1539131642051191,-0.10650797283894109,0.970046540016785,0.2158846417944611
1539131642067198,-0.1060196841382468,0.970901045243,0.2158846417944611
1539131642083206,-0.10565346761272609,0.9710231174181736,0.21356527046616325
1539131642099213,-0.10455481803616395,0.9702906843671322,0.21564049744411395
1539131642115221,-0.10443274586099038,0.9704127565423057,0.21515220874341967
1539131642131228,-0.1047989623865111,0.9694361791409172,0.21075761043717112
1539131642147247,-0.10540932326237895,0.9710231174181736,0.21490806439307253
1539131642163254,-0.10406652933546967,0.9732204165712979,0.21393148699168396
1539131642179262,-0.10467689021133753,0.9733424887464714,0.21429770351720467
1539131642195269,-0.10626382848859395,0.9723659113450829,0.21564049744411395
1539131642211277,-0.10711833371480894,0.9712672617685207,0.2129549095902954
1539131642227284,-0.11004806591897465,0.9679713130388343,0.2141756313420311
1539131642243291,-0.11017013809414822,0.9673609521629665,0.21576256961928753
1539131642259299,-0.11041428244449536,0.9688258182650493,0.21747158007171752
1539131642275306,-0.10882734416723894,0.9689478904402229,0.21734950789654395
1539131642291314,-0.1077286945906768,0.9699244678416115,0.2162508583199818
1539131642307321,-0.10724040588998252,0.970901045243,0.21808194094758537
1539131642323329,-0.10785076676585037,0.970046540016785,0.21905851834897394
1539131642339336,-0.10589761196307323,0.9679713130388343,0.21734950789654395
1539131642355343,-0.1039444571602961,0.9679713130388343,0.2191805905241475
1539131642371351,-0.10492103456168467,0.9689478904402229,0.2167391470206761
1539131642387358,-0.10247959105821325,0.9694361791409172,0.2167391470206761
1539131642403366,-0.10113679713130397,0.9715114061188679,0.21283283741512182
1539131642419373,-0.10138094148165111,0.9723659113450829,0.21222247653925397
1539131642435381,-0.09918364232852683,0.9707789730678265,0.2129549095902954
1539131642451388,-0.10040436408026254,0.9719996948195622,0.2112458991378654
1539131642467437,-0.10345616845960182,0.9694361791409172,0.21063553826199755
1539131642483445,-0.1030899519340811,0.9677271686884872,0.2103913939116504
1539131642499452,-0.10431067368581681,0.9695582513160907,0.21344319829098968
1539131642515460,-0.1039444571602961,0.9711451895933472,0.21454184786755182
1539131642531467,-0.10565346761272609,0.9696803234912643,0.2167391470206761
1539131642547474,-0.10626382848859395,0.9684596017395286,0.21600671396963467
1539131642563482,-0.10675211718928823,0.9698023956664379,0.21576256961928753
1539131642579489,-0.10675211718928823,0.970901045243,0.21820401312275894
1539131642595497,-0.10748455024032966,0.9706569008926529,0.2171053635461968
1539131642611504,-0.10919356069275965,0.9716334782940415,0.2141756313420311
1539131642627512,-0.10931563286793322,0.9690699626153965,0.2191805905241475
1539131642643519,-0.11224536507209892,0.9680933852140079,0.2179598687724118
1539131642659526,-0.11017013809414822,0.9688258182650493,0.2153963530937668
1539131642675534,-0.10846112764171822,0.9698023956664379,0.2167391470206761
1539131642691541,-0.10833905546654465,0.9701686121919586,0.2158846417944611
1539131642707549,-0.10748455024032966,0.9715114061188679,0.21576256961928753
1539131642723556,-0.10699626153963537,0.9722438391699093,0.21551842526894038
1539131642739564,-0.1047989623865111,0.9715114061188679,0.21576256961928753
1539131642755571,-0.10370031280994896,0.9684596017395286,0.21344319829098968
1539131642771578,-0.10199130235751896,0.9684596017395286,0.2124666208896011
1539131642787628,-0.1030899519340811,0.9679713130388343,0.21222247653925397
1539131642803636,-0.1030899519340811,0.9724879835202564,0.21356527046616325
1539131642819644,-0.10211337453269254,0.9744411383230336,0.21319905394064254
1539131642835651,-0.1018692301823454,0.9738307774471657,0.21454184786755182
1539131642851659,-0.10284580758373396,0.9699244678416115,0.21393148699168396
1539131642867667,-0.1060196841382468,0.9673609521629665,0.21734950789654395
1539131642883675,-0.10650797283894109,0.9650415808346686,0.21551842526894038
1539131642899683,-0.1085831998168918,0.9673609521629665,0.21698329137102323
1539131642915691,-0.10614175631342038,0.9689478904402229,0.21661707484550252
1539131642931699,-0.10614175631342038,0.9719996948195622,0.2150301365682461
1539131642947707,-0.10626382848859395,0.9732204165712979,0.21490806439307253
1539131642963715,-0.10504310673685824,0.9729762722209507,0.21344319829098968
1539131642979723,-0.1039444571602961,0.9711451895933472,0.21222247653925397
1539131642995731,-0.10492103456168467,0.968337529564355,0.2162508583199818
1539131643011738,-0.10516517891203181,0.9663843747615779,0.2141756313420311
1539131643027746,-0.10492103456168467,0.9665064469367515,0.2150301365682461
1539131643043754,-0.10540932326237895,0.9678492408636608,0.21429770351720467
1539131643059762,-0.10504310673685824,0.970901045243,0.21222247653925397
1539131643075770,-0.10553139543755252,0.9723659113450829,0.21307698176546896
1539131643091778,-0.10614175631342038,0.9723659113450829,0.21283283741512182
1539131643107788,-0.1060196841382468,0.9716334782940415,0.21222247653925397
1539131643123796,-0.10809491111619751,0.9706569008926529,0.2138094148165104
1539131643139804,-0.1060196841382468,0.970901045243,0.21368734264133682
1539131643155811,-0.10565346761272609,0.9704127565423057,0.21600671396963467
1539131643171819,-0.10492103456168467,0.9698023956664379,0.21307698176546896
1539131643187827,-0.1022354467078661,0.9705348287174793,0.2141756313420311
1539131643203835,-0.1039444571602961,0.96919203479057,0.2171053635461968
1539131643219843,-0.10321202410925467,0.9715114061188679,0.21954680704966822
1539131643235851,-0.10321202410925467,0.9707789730678265,0.21832608529793252
1539131643251859,-0.10260166323338682,0.9707789730678265,0.21649500267032895
1539131643267867,-0.10418860151064324,0.9707789730678265,0.2171053635461968
1539131643283875,-0.10528725108720538,0.970046540016785,0.21649500267032895
1539131643299883,-0.10528725108720538,0.970046540016785,0.21893644617380037
1539131643315890,-0.10650797283894109,0.9710231174181736,0.2196688792248418
1539131643331898,-0.10467689021133753,0.9702906843671322,0.21576256961928753
1539131643347906,-0.10345616845960182,0.9679713130388343,0.21429770351720467
1539131643363914,-0.1030899519340811,0.9688258182650493,0.21551842526894038
1539131643379922,-0.10272373540856039,0.9688258182650493,0.2150301365682461
1539131643395930,-0.10406652933546967,0.97261005569543,0.21576256961928753
1539131643411938,-0.10589761196307323,0.9738307774471657,0.21515220874341967
1539131643427978,-0.1060196841382468,0.9739528496223393,0.21844815747310609
1539131643443986,-0.10870527199206537,0.9698023956664379,0.21698329137102323
1539131643459994,-0.10919356069275965,0.9682154573891815,0.2150301365682461
1539131643476002,-0.11004806591897465,0.9679713130388343,0.21637293049515538
1539131643492010,-0.10943770504310679,0.9699244678416115,0.21832608529793252
1539131643508018,-0.10919356069275965,0.9699244678416115,0.21869230182345323
1539131643524026,-0.10699626153963537,0.9715114061188679,0.21661707484550252
1539131643540033,-0.10528725108720538,0.9706569008926529,0.21490806439307253
1539131643556041,-0.10565346761272609,0.9718776226443886,0.2129549095902954
1539131643572049,-0.10406652933546967,0.9685816739147022,0.20880445563439398
1539131643588057,-0.10443274586099038,0.9682154573891815,0.21185626001373326
1539131643604065,-0.10370031280994896,0.9677271686884872,0.21149004348821254
1539131643620073,-0.1022354467078661,0.9695582513160907,0.21075761043717112
1539131643636081,-0.10113679713130397,0.970901045243,0.2138094148165104
1539131643652089,-0.10052643625543611,0.9727321278706036,0.21405355916685753
1539131643668097,-0.10162508583199825,0.9707789730678265,0.21185626001373326
1539131643684105,-0.1022354467078661,0.970901045243,0.2116121156633861
1539131643700112,-0.10418860151064324,0.9695582513160907,0.2129549095902954
1539131643716120,-0.10406652933546967,0.9682154573891815,0.2153963530937668
1539131643732128,-0.10577553978789966,0.9690699626153965,0.21612878614480824
1539131643748169,-0.10418860151064324,0.9696803234912643,0.2150301365682461
1539131643764176,-0.1047989623865111,0.9715114061188679,0.2158846417944611
1539131643780184,-0.10589761196307323,0.9727321278706036,0.21844815747310609
1539131643796192,-0.10748455024032966,0.97261005569543,0.21905851834897394
1539131643812200,-0.10748455024032966,0.9702906843671322,0.2191805905241475
1539131643828208,-0.10663004501411466,0.9687037460898758,0.22101167315175108
1539131643844216,-0.10675211718928823,0.9688258182650493,0.21844815747310609
1539131643860224,-0.10492103456168467,0.9680933852140079,0.21905851834897394
1539131643876232,-0.10577553978789966,0.9690699626153965,0.22125581750209822
1539131643892240,-0.10553139543755252,0.9693141069657436,0.22247653925383393
1539131643908248,-0.10760662241550323,0.9694361791409172,0.2171053635461968
1539131643924255,-0.10626382848859395,0.96919203479057,0.2150301365682461
1539131643940263,-0.10614175631342038,0.9705348287174793,0.21405355916685753
1539131643956271,-0.10736247806515609,0.9698023956664379,0.2141756313420311
1539131643972279,-0.10638590066376752,0.9727321278706036,0.21283283741512182
1539131643988287,-0.10540932326237895,0.9733424887464714,0.21258869306477468
1539131644004295,-0.10553139543755252,0.9744411383230336,0.21356527046616325
1539131644020303,-0.10699626153963537,0.9721217669947357,0.21100175478751826
1539131644036311,-0.10589761196307323,0.9687037460898758,0.21356527046616325
1539131644052319,-0.1060196841382468,0.9671168078126193,0.21319905394064254
1539131644068328,-0.10650797283894109,0.966628519111925,0.21527428091859324
1539131644084336,-0.10589761196307323,0.9663843747615779,0.21698329137102323
1539131644100344,-0.10626382848859395,0.9680933852140079,0.21686121919584966
1539131644116352,-0.1060196841382468,0.9688258182650493,0.21661707484550252
1539131644132360,-0.10553139543755252,0.9676050965133136,0.21344319829098968
1539131644148368,-0.10699626153963537,0.9671168078126193,0.21857022964827966
1539131644164376,-0.10370031280994896,0.9688258182650493,0.21734950789654395
1539131644180384,-0.10492103456168467,0.968337529564355,0.21686121919584966
1539131644196392,-0.10492103456168467,0.9707789730678265,0.21771572442206466
1539131644212400,-0.1039444571602961,0.97261005569543,0.21661707484550252
1539131644228407,-0.10406652933546967,0.9724879835202564,0.21686121919584966
1539131644244415,-0.10406652933546967,0.9722438391699093,0.21490806439307253
1539131644260423,-0.10125886930647754,0.9722438391699093,0.2162508583199818
1539131644276431,-0.10064850843060968,0.9690699626153965,0.21649500267032895
1539131644292439,-0.10064850843060968,0.9701686121919586,0.2179598687724118
1539131644308447,-0.10113679713130397,0.9694361791409172,0.21478599221789896
1539131644324455,-0.10174715800717182,0.9684596017395286,0.2213778896772718
1539131644340463,-0.10370031280994896,0.9668726634622722,0.2196688792248418
1539131644356471,-0.10589761196307323,0.9661402304112308,0.21734950789654395
1539131644372479,-0.1068741893644618,0.9663843747615779,0.22149996185244536
1539131644388488,-0.10540932326237895,0.9671168078126193,0.21979095140001537
1539131644404496,-0.10614175631342038,0.9696803234912643,0.22284275577935464
1539131644420504,-0.10553139543755252,0.9716334782940415,0.21893644617380037
1539131644436512,-0.10882734416723894,0.9716334782940415,0.2179598687724118
1539131644452520,-0.1085831998168918,0.9707789730678265,0.21832608529793252
1539131644468528,-0.10797283894102394,0.9702906843671322,0.2158846417944611
1539131644484536,-0.10785076676585037,0.9699244678416115,0.21661707484550252
1539131644500544,-0.10638590066376752,0.9707789730678265,0.2167391470206761
1539131644516552,-0.10663004501411466,0.9698023956664379,0.21490806439307253
1539131644532559,-0.10626382848859395,0.9715114061188679,0.21698329137102323
1539131644548567,-0.10565346761272609,0.9707789730678265,0.2150301365682461
1539131644564575,-0.10284580758373396,0.9694361791409172,0.21661707484550252
1539131644580583,-0.10382238498512253,0.968337529564355,0.21551842526894038
1539131644596591,-0.10406652933546967,0.9693141069657436,0.2138094148165104
1539131644612599,-0.10492103456168467,0.970901045243,0.21197833218890683
1539131644628607,-0.10528725108720538,0.9735866330968186,0.21112382696269183
1539131644644615,-0.10785076676585037,0.9735866330968186,0.2086823834592204
1539131644660623,-0.11004806591897465,0.9706569008926529,0.21100175478751826
1539131644676631,-0.11090257114518964,0.9693141069657436,0.2124666208896011
1539131644692638,-0.1115129320210575,0.9678492408636608,0.21258869306477468
1539131644708679,-0.11285572594796678,0.9678492408636608,0.21441977569237824
1539131644724687,-0.11187914854657821,0.9671168078126193,0.21576256961928753
1539131644740695,-0.1098039215686275,0.9684596017395286,0.21600671396963467
1539131644756703,-0.1085831998168918,0.9694361791409172,0.2171053635461968
1539131644772710,-0.10699626153963537,0.9735866330968186,0.21698329137102323
1539131644788718,-0.10528725108720538,0.9707789730678265,0.22247653925383393
1539131644804726,-0.10211337453269254,0.9704127565423057,0.22504005493247892
1539131644820734,-0.10138094148165111,0.9684596017395286,0.22223239490348679
1539131644836742,-0.09954985885404755,0.9676050965133136,0.2225986114290075
1539131644852750,-0.09881742580300612,0.9685816739147022,0.2208896009765775
1539131644868758,-0.09918364232852683,0.9696803234912643,0.22101167315175108
1539131644884766,-0.0980849927519647,0.9705348287174793,0.21930266269932108
1539131644900774,-0.10003814755474183,0.9696803234912643,0.21783779659723823
1539131644916782,-0.10113679713130397,0.9679713130388343,0.21783779659723823
1539131644932789,-0.10540932326237895,0.9671168078126193,0.21527428091859324
1539131644948797,-0.1060196841382468,0.9667505912870986,0.21283283741512182
1539131644964805,-0.10663004501411466,0.9667505912870986,0.21429770351720467
1539131644980813,-0.10663004501411466,0.9696803234912643,0.2138094148165104
1539131644996821,-0.10675211718928823,0.9721217669947357,0.21441977569237824
1539131645012829,-0.10760662241550323,0.9738307774471657,0.2162508583199818
1539131645028839,-0.11017013809414822,0.9721217669947357,0.21368734264133682
1539131645044847,-0.10931563286793322,0.9722438391699093,0.21307698176546896
1539131645060855,-0.10870527199206537,0.9705348287174793,0.2112458991378654
1539131645076862,-0.11004806591897465,0.968337529564355,0.21307698176546896
1539131645092870,-0.10968184939345393,0.9684596017395286,0.20904859998474112
1539131645108878,-0.10907148851758608,0.9722438391699093,0.21185626001373326
1539131645124886,-0.1085831998168918,0.9719996948195622,0.21075761043717112
1539131645140894,-0.10894941634241251,0.9701686121919586,0.21136797131303897
1539131645156902,-0.10943770504310679,0.9687037460898758,0.21820401312275894
1539131645172910,-0.10675211718928823,0.96748302433814,0.22040131227588322
1539131645188918,-0.1047989623865111,0.9677271686884872,0.22064545662623036
1539131645204926,-0.10370031280994896,0.9682154573891815,0.22406347753109035
1539131645220934,-0.10504310673685824,0.9685816739147022,0.22748149843595034
1539131645236941,-0.1039444571602961,0.96748302433814,0.2255283436331732
1539131645252949,-0.10467689021133753,0.9660181582360572,0.2258945601586939
1539131645268957,-0.10455481803616395,0.9661402304112308,0.22186617837796607
1539131645284965,-0.10321202410925467,0.9698023956664379,0.2251621271076525
1539131645300973,-0.10296787975890753,0.9719996948195622,0.2208896009765775
1539131645316981,-0.10089265278095683,0.9749294270237279,0.2188143739986268
1539131645332989,-0.10272373540856039,0.9735866330968186,0.22149996185244536
1539131645349029,-0.1039444571602961,0.9693141069657436,0.22198825055313964
1539131645365038,-0.10370031280994896,0.9663843747615779,0.21820401312275894
1539131645381046,-0.10321202410925467,0.9682154573891815,0.21905851834897394
1539131645397054,-0.10370031280994896,0.9687037460898758,0.21722743572137038
1539131645413063,-0.10443274586099038,0.9707789730678265,0.2158846417944611
1539131645429071,-0.10504310673685824,0.971755550469215,0.21441977569237824
1539131645445079,-0.10650797283894109,0.9712672617685207,0.21307698176546896
1539131645461088,-0.10968184939345393,0.9690699626153965,0.2124666208896011
1539131645477096,-0.10162508583199825,0.9677271686884872,0.21307698176546896
1539131645493105,-0.1068741893644618,0.971755550469215,0.21075761043717112
1539131645509113,-0.10724040588998252,0.9710231174181736,0.21368734264133682
1539131645525121,-0.10748455024032966,0.9687037460898758,0.21258869306477468
1539131645541130,-0.10626382848859395,0.9687037460898758,0.21454184786755182
1539131645557138,-0.10821698329137108,0.9680933852140079,0.20929274433508827
1539131645573146,-0.10797283894102394,0.968337529564355,0.20978103303578255
1539131645589155,-0.10785076676585037,0.9699244678416115,0.21136797131303897
1539131645605163,-0.10919356069275965,0.9694361791409172,0.21271076523994825
1539131645621172,-0.10833905546654465,0.9689478904402229,0.2121004043640804
1539131645637180,-0.10968184939345393,0.9688258182650493,0.21393148699168396
1539131645653188,-0.10882734416723894,0.9665064469367515,0.21637293049515538
1539131645669220,-0.10785076676585037,0.9682154573891815,0.21979095140001537
1539131645685228,-0.10638590066376752,0.9687037460898758,0.22247653925383393
1539131645701236,-0.10577553978789966,0.9694361791409172,0.2217441062027925
1539131645717245,-0.10626382848859395,0.9688258182650493,0.22235446707866036
1539131645733253,-0.10589761196307323,0.970046540016785,0.22040131227588322
1539131645749261,-0.10650797283894109,0.9671168078126193,0.22149996185244536
1539131645765270,-0.10650797283894109,0.9685816739147022,0.22320897230487535
1539131645781278,-0.1039444571602961,0.968337529564355,0.22491798275730535
1539131645797287,-0.10418860151064324,0.970046540016785,0.22113374532692465
1539131645813295,-0.10431067368581681,0.9701686121919586,0.22198825055313964
1539131645829303,-0.10382238498512253,0.9713893339436943,0.21942473487449465
1539131645845312,-0.1030899519340811,0.970046540016785,0.2217441062027925
1539131645861320,-0.10260166323338682,0.9689478904402229,0.21893644617380037
1539131645877328,-0.10321202410925467,0.9688258182650493,0.21942473487449465
1539131645893337,-0.10052643625543611,0.9695582513160907,0.2175936522468911
1539131645909345,-0.1018692301823454,0.9706569008926529,0.2196688792248418
1539131645925354,-0.10211337453269254,0.9728542000457772,0.2191805905241475
1539131645941362,-0.10174715800717182,0.97431906614786,0.21649500267032895
1539131645957370,-0.10492103456168467,0.9740749217975129,0.22015716792553608
1539131645973379,-0.10650797283894109,0.9698023956664379,0.21722743572137038
1539131645989380,-0.11114671549553679,0.9668726634622722,0.21979095140001537
1539131646005388,-0.11163500419623107,0.9687037460898758,0.2188143739986268
1539131646021396,-0.11334401464866106,0.9684596017395286,0.2179598687724118
1539131646037405,-0.1123674372472725,0.9694361791409172,0.21869230182345323
1539131646053413,-0.11309987029831392,0.9707789730678265,0.2167391470206761
1539131646069421,-0.1106584267948425,0.9699244678416115,0.21869230182345323
1539131646085430,-0.10870527199206537,0.9687037460898758,0.21698329137102323
1539131646101438,-0.10785076676585037,0.9698023956664379,0.22027924010070965
1539131646117447,-0.10748455024032966,0.9678492408636608,0.21783779659723823
1539131646133455,-0.1085831998168918,0.9676050965133136,0.2171053635461968
1539131646149463,-0.10907148851758608,0.9672388799877929,0.21649500267032895
1539131646165472,-0.10821698329137108,0.9694361791409172,0.21515220874341967
1539131646181480,-0.10540932326237895,0.9701686121919586,0.2196688792248418
1539131646197488,-0.10443274586099038,0.970901045243,0.21747158007171752
1539131646213497,-0.10357824063477539,0.9718776226443886,0.21686121919584966
1539131646229505,-0.1022354467078661,0.9696803234912643,0.21820401312275894
1539131646245514,-0.10211337453269254,0.9690699626153965,0.2179598687724118
1539131646261522,-0.1010147249561304,0.96748302433814,0.21576256961928753
1539131646277530,-0.1010147249561304,0.968337529564355,0.21698329137102323
1539131646293539,-0.1022354467078661,0.9668726634622722,0.2150301365682461
1539131646309570,-0.10370031280994896,0.970046540016785,0.21771572442206466
1539131646325578,-0.1030899519340811,0.9701686121919586,0.21661707484550252
1539131646341587,-0.1030899519340811,0.9710231174181736,0.21734950789654395
1539131646357595,-0.10382238498512253,0.9690699626153965,0.22040131227588322
1539131646373603,-0.10577553978789966,0.9677271686884872,0.21820401312275894
1539131646389612,-0.10724040588998252,0.9684596017395286,0.22125581750209822
1539131646405620,-0.10711833371480894,0.9687037460898758,0.22211032272831321
1539131646421629,-0.1085831998168918,0.9710231174181736,0.2234531166552225
1539131646437637,-0.11017013809414822,0.9698023956664379,0.22064545662623036
1539131646453645,-0.11163500419623107,0.9695582513160907,0.22320897230487535
1539131646469654,-0.11114671549553679,0.968337529564355,0.22015716792553608
1539131646485662,-0.1115129320210575,0.9654077973601893,0.22076752880140393
1539131646501670,-0.10931563286793322,0.9654077973601893,0.2200350957503625
1539131646517679,-0.10699626153963537,0.9676050965133136,0.2162508583199818
1539131646533687,-0.10565346761272609,0.9693141069657436,0.21686121919584966
1539131646549696,-0.10492103456168467,0.9732204165712979,0.21649500267032895
1539131646565704,-0.10663004501411466,0.9744411383230336,0.21490806439307253
1539131646581712,-0.10663004501411466,0.9712672617685207,0.21905851834897394
1539131646597721,-0.10797283894102394,0.968337529564355,0.22076752880140393
1539131646613729,-0.10675211718928823,0.9673609521629665,0.21991302357518894
1539131646629760,-0.10785076676585037,0.9652857251850158,0.21820401312275894
1539131646645769,-0.10760662241550323,0.9682154573891815,0.21649500267032895
1539131646661777,-0.10699626153963537,0.971755550469215,0.21722743572137038
1539131646677785,-0.1068741893644618,0.9735866330968186,0.21686121919584966
1539131646693794,-0.10443274586099038,0.9737087052719922,0.21441977569237824
1539131646709802,-0.10431067368581681,0.9712672617685207,0.21527428091859324
1539131646725811,-0.10467689021133753,0.9672388799877929,0.21600671396963467
1539131646741819,-0.10455481803616395,0.9647974364843215,0.21454184786755182
1539131646757827,-0.1060196841382468,0.964919508659495,0.21686121919584966
1539131646773836,-0.10540932326237895,0.9663843747615779,0.21405355916685753
1539131646789844,-0.1047989623865111,0.9695582513160907,0.21551842526894038
1539131646805853,-0.10467689021133753,0.9682154573891815,0.2179598687724118
1539131646821861,-0.10370031280994896,0.968337529564355,0.21832608529793252
1539131646837869,-0.10516517891203181,0.968337529564355,0.21612878614480824
1539131646853878,-0.10760662241550323,0.9727321278706036,0.2213778896772718
1539131646869886,-0.10931563286793322,0.9719996948195622,0.22211032272831321
1539131646885894,-0.10809491111619751,0.96919203479057,0.2208896009765775
1539131646901903,-0.10797283894102394,0.968337529564355,0.2205233844510568
1539131646917911,-0.10907148851758608,0.9687037460898758,0.21954680704966822
1539131646933920,-0.1068741893644618,0.9684596017395286,0.22149996185244536
1539131646949920,-0.1060196841382468,0.9682154573891815,0.22186617837796607
1539131646965929,-0.10565346761272609,0.96748302433814,0.22101167315175108
1539131646981937,-0.10663004501411466,0.9669947356374458,0.22113374532692465
1539131646997945,-0.10736247806515609,0.9667505912870986,0.2188143739986268
1539131647013954,-0.10846112764171822,0.9687037460898758,0.21771572442206466
1539131647029962,-0.10711833371480894,0.9678492408636608,0.21783779659723823
1539131647045971,-0.1098039215686275,0.9680933852140079,0.21637293049515538
1539131647061979,-0.10833905546654465,0.9698023956664379,0.21857022964827966
1539131647077987,-0.10785076676585037,0.9719996948195622,0.21771572442206466
1539131647093996,-0.1085831998168918,0.9719996948195622,0.21771572442206466
1539131647110004,-0.10516517891203181,0.9722438391699093,0.21844815747310609
1539131647126012,-0.10357824063477539,0.9706569008926529,0.2175936522468911
1539131647142021,-0.10418860151064324,0.9678492408636608,0.21564049744411395
1539131647158029,-0.10418860151064324,0.9688258182650493,0.22027924010070965
1539131647174038,-0.10528725108720538,0.9698023956664379,0.21820401312275894
1539131647190046,-0.10504310673685824,0.9729762722209507,0.2225986114290075
1539131647206054,-0.10785076676585037,0.971755550469215,0.22211032272831321
1539131647222063,-0.10760662241550323,0.9707789730678265,0.22198825055313964
1539131647238071,-0.11163500419623107,0.9663843747615779,0.2251621271076525
1539131647254079,-0.11248950942244607,0.9612573434042879,0.22223239490348679
1539131647270111,-0.11285572594796678,0.9630884260318915,0.22333104448004892
1539131647286119,-0.1115129320210575,0.9662623025864043,0.21820401312275894
1539131647302127,-0.10907148851758608,0.9729762722209507,0.2188143739986268
1539131647318136,-0.10919356069275965,0.9755397878995957,0.21857022964827966
1539131647334144,-0.10760662241550323,0.9738307774471657,0.21844815747310609
1539131647350153,-0.10614175631342038,0.9723659113450829,0.21600671396963467
1539131647366161,-0.10321202410925467,0.9687037460898758,0.21319905394064254
1539131647382169,-0.10333409628442825,0.9650415808346686,0.21515220874341967
1539131647398178,-0.10089265278095683,0.9651636530098422,0.21576256961928753
1539131647414186,-0.10125886930647754,0.966628519111925,0.21490806439307253
1539131647430194,-0.1001602197299154,0.96919203479057,0.2141756313420311
1539131647446203,-0.10382238498512253,0.9701686121919586,0.21747158007171752
1539131647462211,-0.1022354467078661,0.9704127565423057,0.21368734264133682
1539131647478220,-0.10577553978789966,0.9723659113450829,0.21527428091859324
1539131647494228,-0.10663004501411466,0.9704127565423057,0.21857022964827966
1539131647510236,-0.1060196841382468,0.9673609521629665,0.21991302357518894
1539131647526245,-0.10809491111619751,0.9687037460898758,0.21905851834897394
1539131647542253,-0.10833905546654465,0.9660181582360572,0.22015716792553608
1539131647558261,-0.10833905546654465,0.9668726634622722,0.22101167315175108
1539131647574270,-0.11029221026932179,0.9693141069657436,0.2251621271076525
1539131647590301,-0.10955977721828036,0.9690699626153965,0.2258945601586939
1539131647606310,-0.10809491111619751,0.9684596017395286,0.22320897230487535
1539131647622318,-0.11004806591897465,0.9690699626153965,0.2234531166552225
1539131647638326,-0.10955977721828036,0.9701686121919586,0.22442969405661106
1539131647654335,-0.11041428244449536,0.9679713130388343,0.2229648279545282
1539131647670343,-0.10992599374380108,0.9684596017395286,0.22320897230487535
1539131647686351,-0.10894941634241251,0.9680933852140079,0.22162203402761893
1539131647702360,-0.10833905546654465,0.9689478904402229,0.22113374532692465
1539131647718368,-0.10638590066376752,0.9688258182650493,0.22247653925383393
1539131647734377,-0.10565346761272609,0.9685816739147022,0.22394140535591678
1539131647750385,-0.10589761196307323,0.9694361791409172,0.22101167315175108
1539131647766393,-0.10565346761272609,0.9706569008926529,0.21905851834897394
1539131647782402,-0.10565346761272609,0.9702906843671322,0.21808194094758537
1539131647798410,-0.12237735561150531,0.8532234683756768,0.1561913481345849
1539131647814418,-0.0365606164644845,1.0567177843900204,0.25812161440451664
1539131647830427,-0.14361791409170666,1.0009308003356985,0.21857022964827966
1539131647846435,-0.08770885786221116,0.9512474250400551,0.22699320973525605
1539131647862444,-0.09918364232852683,0.9668726634622722,0.22735942626077676
1539131647878452,-0.12738231479362172,0.9513694972152287,0.22235446707866036
1539131647894460,-0.1359273670557717,0.9459983215075916,0.23614862287327387
1539131647910461,-0.12542915999084459,0.9431906614785994,0.2348058289463646
1539131647926469,-0.11297779812314035,0.9634546425574122,0.22687113756008248
1539131647942478,-0.10516517891203181,0.973464560921645,0.22833600366216533
1539131647958486,-0.11297779812314035,0.9898222323949035,0.23492790112153816
1539131647974495,-0.11322194247348749,0.9893339436942092,0.22992294193942175
1539131647990503,-0.10943770504310679,0.9813992523079271,0.2276035706111239
1539131648006511,-0.1018692301823454,0.9652857251850158,0.2200350957503625
1539131648022520,-0.09771877622644398,0.9516136415655758,0.21905851834897394
1539131648038528,-0.09832913710231184,0.9497825589379723,0.21527428091859324
1539131648054536,-0.10028229190508897,0.9533226520180058,0.21429770351720467
1539131648070545,-0.09869535362783255,0.9704127565423057,0.2116121156633861
1539131648086553,-0.09564354924849328,0.9800564583810178,0.21222247653925397
1539131648102562,-0.09515526054779899,0.982009613183795,0.21319905394064254
1539131648118570,-0.09588769359884042,0.9788357366292821,0.2129549095902954
1539131648134578,-0.10028229190508897,0.9722438391699093,0.20892652780956755
1539131648150587,-0.10431067368581681,0.966628519111925,0.20978103303578255
1539131648166595,-0.10553139543755252,0.9644312199588008,0.21356527046616325
1539131648182603,-0.10711833371480894,0.9634546425574122,0.21356527046616325
1539131648198612,-0.10528725108720538,0.9655298695353629,0.21551842526894038
1539131648214620,-0.10760662241550323,0.9690699626153965,0.21722743572137038
1539131648230651,-0.1106584267948425,0.9716334782940415,0.22186617837796607
1539131648246660,-0.11346608682383463,0.9745632104982072,0.22149996185244536
1539131648262668,-0.11432059205004963,0.9724879835202564,0.22198825055313964
1539131648278677,-0.11700617990386819,0.9682154573891815,0.2251621271076525
1539131648294685,-0.11688410772869462,0.9646753643091479,0.22235446707866036
1539131648310693,-0.1190814068818189,0.9656519417105365,0.2255283436331732
1539131648326702,-0.11773861295490962,0.9655298695353629,0.2246738384069582
1539131648342710,-0.11712825207904176,0.9673609521629665,0.22528419928282606
1539131648358718,-0.11419851987487606,0.9684596017395286,0.22565041580834677
1539131648374727,-0.11297779812314035,0.9701686121919586,0.22882429236285962
1539131648390735,-0.10955977721828036,0.971755550469215,0.22662699320973534
1539131648406744,-0.10870527199206537,0.9695582513160907,0.22858014801251247
1539131648422752,-0.10748455024032966,0.9654077973601893,0.22406347753109035
1539131648438760,-0.10382238498512253,0.9641870756084536,0.2200350957503625
1539131648454769,-0.10455481803616395,0.9638208590829329,0.22076752880140393
1539131648470777,-0.1010147249561304,0.9668726634622722,0.22272068360418107
1539131648486786,-0.09906157015335326,0.9707789730678265,0.22320897230487535
1539131648502794,-0.09857328145265898,0.9748073548485543,0.22235446707866036
1539131648518802,-0.10064850843060968,0.9735866330968186,0.22272068360418107
1539131648534811,-0.1022354467078661,0.9693141069657436,0.22211032272831321
1539131648550842,-0.10272373540856039,0.9661402304112308,0.22064545662623036
1539131648566851,-0.1047989623865111,0.9651636530098422,0.21820401312275894
1539131648582860,-0.10516517891203181,0.9663843747615779,0.2188143739986268
1539131648598868,-0.10650797283894109,0.9685816739147022,0.21686121919584966
1539131648614877,-0.10748455024032966,0.9710231174181736,0.2153963530937668
1539131648630886,-0.10882734416723894,0.9712672617685207,0.2167391470206761
1539131648646895,-0.10919356069275965,0.9718776226443886,0.21661707484550252
1539131648662904,-0.10736247806515609,0.9701686121919586,0.2150301365682461
1539131648678913,-0.11053635461966893,0.9671168078126193,0.21612878614480824
1539131648694922,-0.11114671549553679,0.9656519417105365,0.21649500267032895
1539131648710930,-0.11261158159761964,0.9669947356374458,0.21600671396963467
1539131648726939,-0.11212329289692535,0.9661402304112308,0.2146639200427254
1539131648742948,-0.11029221026932179,0.9672388799877929,0.21857022964827966
1539131648758957,-0.10882734416723894,0.9696803234912643,0.2188143739986268
1539131648774966,-0.10797283894102394,0.9706569008926529,0.21979095140001537
1539131648790975,-0.11029221026932179,0.9713893339436943,0.22040131227588322
1539131648806984,-0.1085831998168918,0.9712672617685207,0.21869230182345323
1539131648822992,-0.10833905546654465,0.9679713130388343,0.22076752880140393
1539131648839001,-0.10638590066376752,0.9641870756084536,0.22162203402761893
1539131648855010,-0.10675211718928823,0.9663843747615779,0.2229648279545282
1539131648871002,-0.10528725108720538,0.9677271686884872,0.22418554970626392
1539131648887010,-0.10589761196307323,0.9705348287174793,0.22406347753109035
1539131648903019,-0.1039444571602961,0.9704127565423057,0.22369726100556964
1539131648919027,-0.10406652933546967,0.9704127565423057,0.22369726100556964
1539131648935035,-0.10382238498512253,0.9684596017395286,0.2229648279545282
1539131648951044,-0.10443274586099038,0.9694361791409172,0.2217441062027925
1539131648967052,-0.10565346761272609,0.9678492408636608,0.2208896009765775
1539131648983060,-0.10614175631342038,0.968337529564355,0.22015716792553608
1539131648999069,-0.10467689021133753,0.9679713130388343,0.22198825055313964
1539131649015077,-0.10589761196307323,0.9695582513160907,0.22125581750209822
1539131649031086,-0.10431067368581681,0.968337529564355,0.22101167315175108
1539131649047094,-0.10577553978789966,0.9699244678416115,0.22015716792553608
1539131649063102,-0.10614175631342038,0.9688258182650493,0.2208896009765775
1539131649079111,-0.10614175631342038,0.9672388799877929,0.22015716792553608
1539131649095119,-0.1077286945906768,0.9667505912870986,0.21747158007171752
1539131649111127,-0.10724040588998252,0.9699244678416115,0.21857022964827966
1539131649127136,-0.10907148851758608,0.97261005569543,0.21991302357518894
1539131649143144,-0.11041428244449536,0.9729762722209507,0.22406347753109035
1539131649159153,-0.11053635461966893,0.9711451895933472,0.22198825055313964
1539131649175161,-0.11224536507209892,0.9678492408636608,0.22394140535591678
1539131649191192,-0.11090257114518964,0.9647974364843215,0.2213778896772718
1539131649207201,-0.1115129320210575,0.9647974364843215,0.22320897230487535
1539131649223210,-0.10882734416723894,0.9671168078126193,0.22247653925383393
1539131649239219,-0.11114671549553679,0.9689478904402229,0.2205233844510568
1539131649255228,-0.10846112764171822,0.9712672617685207,0.2191805905241475
1539131649271237,-0.10736247806515609,0.9710231174181736,0.21869230182345323
1539131649287245,-0.10418860151064324,0.9702906843671322,0.21844815747310609
1539131649303254,-0.10272373540856039,0.9685816739147022,0.21747158007171752
1539131649319263,-0.1022354467078661,0.9680933852140079,0.21905851834897394
1539131649335272,-0.10089265278095683,0.9671168078126193,0.2205233844510568
1539131649351281,-0.09918364232852683,0.966628519111925,0.22125581750209822
1539131649367290,-0.10028229190508897,0.96748302433814,0.2205233844510568
1539131649383298,-0.1001602197299154,0.9678492408636608,0.2171053635461968
1539131649399307,-0.10003814755474183,0.9684596017395286,0.21979095140001537
1539131649415316,-0.10260166323338682,0.9687037460898758,0.2171053635461968
1539131649431325,-0.10333409628442825,0.9694361791409172,0.21808194094758537
1539131649447334,-0.10626382848859395,0.9711451895933472,0.21942473487449465
1539131649463343,-0.10736247806515609,0.9707789730678265,0.21820401312275894
1539131649479352,-0.10907148851758608,0.9701686121919586,0.22272068360418107
1539131649495360,-0.11224536507209892,0.968337529564355,0.2225986114290075
1539131649511383,-0.11126878767071036,0.9685816739147022,0.22064545662623036
1539131649527392,-0.1115129320210575,0.9680933852140079,0.22357518883039607
1539131649543400,-0.11248950942244607,0.9695582513160907,0.22735942626077676
1539131649559409,-0.11175707637140464,0.9695582513160907,0.2251621271076525
1539131649575418,-0.11139085984588393,0.9694361791409172,0.2251621271076525
1539131649591427,-0.11126878767071036,0.9689478904402229,0.2255283436331732
1539131649607436,-0.10992599374380108,0.9690699626153965,0.22162203402761893
1539131649623445,-0.10724040588998252,0.9696803234912643,0.22247653925383393
1539131649639454,-0.10626382848859395,0.9679713130388343,0.22149996185244536
1539131649655462,-0.1068741893644618,0.9682154573891815,0.21991302357518894
1539131649671471,-0.10540932326237895,0.9682154573891815,0.21905851834897394
1539131649687480,-0.10699626153963537,0.9696803234912643,0.22040131227588322
1539131649703489,-0.10431067368581681,0.9694361791409172,0.22198825055313964
1539131649719498,-0.10455481803616395,0.9698023956664379,0.2243076218814375
1539131649735507,-0.10284580758373396,0.9702906843671322,0.22357518883039607
1539131649751515,-0.10162508583199825,0.9668726634622722,0.22333104448004892
1539131649767524,-0.10272373540856039,0.96748302433814,0.2217441062027925
1539131649783533,-0.10321202410925467,0.9672388799877929,0.2188143739986268
1539131649799542,-0.10064850843060968,0.9660181582360572,0.21771572442206466
1539131649815551,-0.10040436408026254,0.9679713130388343,0.2179598687724118
1539131649831543,-0.10247959105821325,0.9705348287174793,0.21515220874341967
1539131649847551,-0.10638590066376752,0.96919203479057,0.22027924010070965
1539131649863560,-0.10943770504310679,0.9694361791409172,0.2225986114290075
1539131649879569,-0.11493095292591748,0.9704127565423057,0.22528419928282606
1539131649895578,-0.11773861295490962,0.9744411383230336,0.22858014801251247
1539131649911587,-0.11883726253147175,0.9755397878995957,0.2334630350194553
1539131649927596,-0.11688410772869462,0.9773708705271993,0.23175402456702532
1539131649943605,-0.11407644769970249,0.978591592278935,0.2280918593118182
1539131649959613,-0.11126878767071036,0.9757839322499429,0.22528419928282606
1539131649975622,-0.11163500419623107,0.9693141069657436,0.21857022964827966
1539131649991631,-0.10894941634241251,0.9641870756084536,0.2129549095902954
1539131650007640,-0.10589761196307323,0.9612573434042879,0.20685130083161685
1539131650023649,-0.10455481803616395,0.9597924773022051,0.20648508430609613
1539131650039658,-0.10443274586099038,0.9612573434042879,0.2033112077515833
1539131650055667,-0.10235751888303968,0.9634546425574122,0.20428778515297186
1539131650071675,-0.10357824063477539,0.9632104982070651,0.20941481651026184
1539131650087684,-0.1047989623865111,0.9623559929808501,0.21185626001373326
1539131650103693,-0.10614175631342038,0.9661402304112308,0.21893644617380037
1539131650119702,-0.1077286945906768,0.970901045243,0.2246738384069582
1539131650135711,-0.10894941634241251,0.9776150148775464,0.22943465323872747
1539131650151733,-0.10968184939345393,0.9788357366292821,0.23443961242084388
1539131650167742,-0.1085831998168918,0.9800564583810178,0.23407339589532317
1539131650183751,-0.10492103456168467,0.98286411841001,0.23334096284428174
1539131650199760,-0.10992599374380108,0.9796902418554971,0.23297474631876103
1539131650215768,-0.11029221026932179,0.9729762722209507,0.23077744716563675
1539131650231777,-0.11175707637140464,0.9690699626153965,0.23089951934081032
1539131650247786,-0.11163500419623107,0.9628442816815443,0.22357518883039607
1539131650263795,-0.11139085984588393,0.9549095902952622,0.21820401312275894
1539131650279804,-0.10894941634241251,0.9496604867627987,0.21441977569237824
1539131650295813,-0.10821698329137108,0.953566796368353,0.21734950789654395
1539131650311822,-0.10968184939345393,0.9571068894483865,0.21234454871442754
1539131650327830,-0.10955977721828036,0.9616235599298086,0.21857022964827966
1539131650343839,-0.1098039215686275,0.9677271686884872,0.22333104448004892
1539131650359848,-0.1098039215686275,0.9729762722209507,0.2200350957503625
1539131650375857,-0.1085831998168918,0.9746852826733807,0.22613870450904106
1539131650391866,-0.10699626153963537,0.9799343862058443,0.2293125810635539
1539131650407875,-0.10760662241550323,0.9823758297093157,0.2276035706111239
1539131650423884,-0.10467689021133753,0.9826199740596628,0.22821393148699176
1539131650439892,-0.10528725108720538,0.9783474479285879,0.22772564278629748
1539131650455901,-0.10174715800717182,0.9733424887464714,0.21991302357518894
1539131650471893,-0.10272373540856039,0.96748302433814,0.21307698176546896
1539131650487902,-0.10577553978789966,0.9571068894483865,0.20416571297779829
1539131650503911,-0.10272373540856039,0.9557640955214772,0.20892652780956755
1539131650519919,-0.11139085984588393,0.9606469825284201,0.20892652780956755
1539131650535928,-0.11248950942244607,0.9660181582360572,0.21271076523994825
1539131650551937,-0.11517509727626463,0.9646753643091479,0.21637293049515538
1539131650567946,-0.11895933470664533,0.9624780651560236,0.2258945601586939
1539131650583955,-0.11786068513008319,0.9619897764553293,0.2293125810635539
1539131650599964,-0.11493095292591748,0.9689478904402229,0.2322423132677196
1539131650615973,-0.1173723964293889,0.97773708705272,0.23590447852292673
1539131650631981,-0.11798275730525676,0.9812771801327536,0.23504997329671173
1539131650647990,-0.11725032425421533,0.9799343862058443,0.23028915846494247
1539131650663999,-0.11883726253147175,0.9699244678416115,0.2289463645380332
1539131650680008,-0.11834897383077747,0.9606469825284201,0.22919050888838033
1539131650696017,-0.11993591210803389,0.9579613946746015,0.2280918593118182
1539131650712026,-0.11480888075074391,0.9677271686884872,0.22870222018768604
1539131650728035,-0.1152971694514382,0.9665064469367515,0.22540627145799963
1539131650744043,-0.11334401464866106,0.9617456321049822,0.23077744716563675
1539131650760052,-0.11187914854657821,0.9689478904402229,0.23163195239185175
1539131650776061,-0.1106584267948425,0.976882581826505,0.23419546807049674
1539131650792083,-0.10955977721828036,0.9784695201037614,0.23382925154497602
1539131650808092,-0.10797283894102394,0.9800564583810178,0.23370717936980245
1539131650824101,-0.10748455024032966,0.9783474479285879,0.23163195239185175
1539131650840110,-0.10418860151064324,0.973464560921645,0.2313878080415046
1539131650856119,-0.10382238498512253,0.9636987869077593,0.22858014801251247
1539131650872128,-0.10345616845960182,0.9542992294193944,0.2238193331807432
1539131650888136,-0.1039444571602961,0.9468528267338066,0.2243076218814375
1539131650904145,-0.10125886930647754,0.9472190432593273,0.22223239490348679
1539131650920154,-0.10443274586099038,0.952712291142138,0.22064545662623036
1539131650936163,-0.10577553978789966,0.9549095902952622,0.22272068360418107
1539131650952172,-0.10699626153963537,0.9617456321049822,0.22149996185244536
1539131650968181,-0.10736247806515609,0.9677271686884872,0.22479591058213177
1539131650984190,-0.11004806591897465,0.9728542000457772,0.22943465323872747
1539131651000198,-0.10919356069275965,0.9737087052719922,0.23065537499046318
1539131651016207,-0.11114671549553679,0.97602807660029,0.23175402456702532
1539131651032216,-0.11261158159761964,0.9783474479285879,0.23150988021667818
1539131651048225,-0.1173723964293889,0.97773708705272,0.23273060196841389
1539131651064234,-0.11602960250247962,0.9762722209506371,0.23639276722362101
1539131651080243,-0.1144426642252232,0.9711451895933472,0.2360265506981003
1539131651096252,-0.11163500419623107,0.9668726634622722,0.23089951934081032
1539131651112243,-0.11297779812314035,0.9667505912870986,0.2310215915159839
1539131651128252,-0.11200122072175178,0.9699244678416115,0.2280918593118182
1539131651144261,-0.11383230334935535,0.9724879835202564,0.22955672541390104
1539131651160270,-0.11371023117418178,0.9721217669947357,0.22528419928282606
1539131651176279,-0.11480888075074391,0.9643091477836272,0.22748149843595034
1539131651192288,-0.11712825207904176,0.9547875181200887,0.2255283436331732
1539131651208296,-0.11639581902800034,0.9472190432593273,0.2284580758373389
1539131651224305,-0.11407644769970249,0.9477073319600215,0.23028915846494247
1539131651240314,-0.11212329289692535,0.9574731059739072,0.23468375677119102
1539131651256323,-0.11346608682383463,0.964919508659495,0.23663691157396816
1539131651272332,-0.11419851987487606,0.970046540016785,0.240665293354696
1539131651288341,-0.11639581902800034,0.9694361791409172,0.239810788128481
1539131651304350,-0.11895933470664533,0.9712672617685207,0.24213015945677885
1539131651320358,-0.12042420080872818,0.9711451895933472,0.243228809033341
1539131651336367,-0.1165178912031739,0.9694361791409172,0.2439612420843824
1539131651352376,-0.11346608682383463,0.9644312199588008,0.2418860151064317
1539131651368385,-0.10919356069275965,0.9633325703822386,0.24127565423056385
1539131651384394,-0.10528725108720538,0.96406500343328,0.242374303807126
1539131651400403,-0.10296787975890753,0.9654077973601893,0.23968871595330743
1539131651416412,-0.10357824063477539,0.9636987869077593,0.2377355611505303
1539131651432434,-0.10296787975890753,0.9626001373311972,0.23443961242084388
1539131651448443,-0.10443274586099038,0.9613794155794615,0.23297474631876103
1539131651464451,-0.10650797283894109,0.9628442816815443,0.22882429236285962
1539131651480460,-0.10699626153963537,0.9663843747615779,0.23077744716563675
1539131651496469,-0.10846112764171822,0.968337529564355,0.2305333028152896
1539131651512478,-0.10992599374380108,0.9695582513160907,0.23004501411459533
1539131651528487,-0.11078049897001607,0.9669947356374458,0.2280918593118182
1539131651544496,-0.11309987029831392,0.9667505912870986,0.2289463645380332
1539131651560505,-0.11407644769970249,0.96406500343328,0.22919050888838033
1539131651576513,-0.1135881589990082,0.9660181582360572,0.2280918593118182
1539131651592522,-0.11322194247348749,0.9669947356374458,0.22955672541390104
1539131651608531,-0.11468680857557034,0.9673609521629665,0.22980086976424818
1539131651624540,-0.11419851987487606,0.9639429312581065,0.2301670862897689
1539131651640549,-0.11224536507209892,0.9632104982070651,0.23126573586633103
1539131651656558,-0.1115129320210575,0.9669947356374458,0.23065537499046318
1539131651672567,-0.10992599374380108,0.9656519417105365,0.2318760967421989
1539131651688575,-0.10968184939345393,0.966628519111925,0.23273060196841389
1539131651704584,-0.11139085984588393,0.968337529564355,0.23468375677119102
1539131651720593,-0.11224536507209892,0.9662623025864043,0.2348058289463646
1539131651736602,-0.11175707637140464,0.9660181582360572,0.23675898374914173
1539131651752624,-0.11102464332036321,0.9638208590829329,0.2330968184939346
1539131651768633,-0.10821698329137108,0.9636987869077593,0.2339513237201496
1539131651784642,-0.1085831998168918,0.9679713130388343,0.2318760967421989
1539131651800651,-0.10882734416723894,0.9710231174181736,0.23419546807049674
1539131651816660,-0.11102464332036321,0.9740749217975129,0.23492790112153816
1539131651832668,-0.11175707637140464,0.9715114061188679,0.2343175402456703
1539131651848677,-0.11273365377279321,0.9668726634622722,0.23504997329671173
1539131651864686,-0.11383230334935535,0.9632104982070651,0.23236438544289317
1539131651880695,-0.11334401464866106,0.9601586938277258,0.23334096284428174
1539131651896704,-0.11456473640039677,0.9596704051270315,0.23504997329671173
1539131651912713,-0.1123674372472725,0.9624780651560236,0.23370717936980245
1539131651928722,-0.11248950942244607,0.9663843747615779,0.23492790112153816
1539131651944730,-0.11139085984588393,0.9660181582360572,0.2351720454718853
1539131651960739,-0.10943770504310679,0.964919508659495,0.23419546807049674
1539131651976748,-0.10955977721828036,0.9630884260318915,0.2334630350194553
1539131651992757,-0.1085831998168918,0.9615014877546351,0.23334096284428174
1539131652008766,-0.10565346761272609,0.9619897764553293,0.23150988021667818
1539131652024775,-0.10528725108720538,0.9650415808346686,0.2289463645380332
1539131652040784,-0.1060196841382468,0.9677271686884872,0.23248645761806674
1539131652056792,-0.10699626153963537,0.970901045243,0.2343175402456703
1539131652072784,-0.10797283894102394,0.9704127565423057,0.2330968184939346
1539131652088793,-0.10943770504310679,0.9689478904402229,0.2351720454718853
1539131652104802,-0.11078049897001607,0.9652857251850158,0.23578240634775316
1539131652120811,-0.11139085984588393,0.9632104982070651,0.23443961242084388
1539131652136819,-0.11285572594796678,0.9629663538567179,0.2330968184939346
1539131652152828,-0.11334401464866106,0.9638208590829329,0.23504997329671173
1539131652168837,-0.11224536507209892,0.9679713130388343,0.23358510719462888
1539131652184846,-0.11273365377279321,0.9672388799877929,0.23321889066910817
1539131652200855,-0.11297779812314035,0.96919203479057,0.23504997329671173
1539131652216864,-0.11468680857557034,0.9699244678416115,0.23419546807049674
1539131652232873,-0.11456473640039677,0.9673609521629665,0.23529411764705888
1539131652248881,-0.11224536507209892,0.9639429312581065,0.23358510719462888
1539131652264890,-0.11383230334935535,0.9613794155794615,0.2360265506981003
1539131652280899,-0.11261158159761964,0.9617456321049822,0.23663691157396816
1539131652296908,-0.11053635461966893,0.9634546425574122,0.23578240634775316
1539131652312917,-0.10931563286793322,0.9677271686884872,0.23492790112153816
1539131652328926,-0.10833905546654465,0.9672388799877929,0.2318760967421989
1539131652344935,-0.11053635461966893,0.9673609521629665,0.22955672541390104
1539131652360943,-0.11017013809414822,0.96406500343328,0.22784771496147105
1539131652376952,-0.10846112764171822,0.9616235599298086,0.22577248798352034
1539131652392974,-0.10968184939345393,0.9623559929808501,0.23028915846494247
1539131652408983,-0.10833905546654465,0.9650415808346686,0.22784771496147105
1539131652424992,-0.11017013809414822,0.9672388799877929,0.2305333028152896
1539131652441001,-0.1098039215686275,0.9679713130388343,0.23236438544289317
1539131652457010,-0.1106584267948425,0.9668726634622722,0.23358510719462888
1539131652473019,-0.11346608682383463,0.9663843747615779,0.23675898374914173
1539131652489028,-0.11456473640039677,0.9658960860608836,0.23541618982223245
1539131652505036,-0.11663996337834748,0.9643091477836272,0.23443961242084388
1539131652521045,-0.11700617990386819,0.9671168078126193,0.23334096284428174
1539131652537054,-0.11639581902800034,0.968337529564355,0.2377355611505303
1539131652553063,-0.1152971694514382,0.9684596017395286,0.23920042725261315
1539131652569072,-0.11322194247348749,0.9673609521629665,0.23883421072709243
1539131652585081,-0.1115129320210575,0.9646753643091479,0.24115358205539028
1539131652601090,-0.11102464332036321,0.9623559929808501,0.2401770046540017
1539131652617098,-0.10943770504310679,0.9621118486305029,0.23700312809948887
1539131652633107,-0.10907148851758608,0.9616235599298086,0.2385900663767453
1539131652649116,-0.10821698329137108,0.9634546425574122,0.23468375677119102
1539131652665125,-0.10833905546654465,0.9629663538567179,0.237247272449836
1539131652681134,-0.1106584267948425,0.96406500343328,0.23651483939879459
1539131652697143,-0.1060196841382468,0.9629663538567179,0.23114366369115746
1539131652713165,-0.11041428244449536,0.9636987869077593,0.2318760967421989
1539131652729174,-0.1123674372472725,0.9602807660028994,0.23077744716563675
1539131652745183,-0.10785076676585037,0.9597924773022051,0.2310215915159839
1539131652761191,-0.10882734416723894,0.9624780651560236,0.2301670862897689
1539131652777200,-0.10992599374380108,0.966628519111925,0.23150988021667818
1539131652793209,-0.11163500419623107,0.9702906843671322,0.23504997329671173
1539131652809218,-0.1123674372472725,0.9750514991989014,0.2293125810635539
1539131652825227,-0.11419851987487606,0.9729762722209507,0.23212024109254603
1539131652841236,-0.11456473640039677,0.9694361791409172,0.23407339589532317
1539131652857245,-0.1135881589990082,0.9658960860608836,0.23468375677119102
1539131652873253,-0.11493095292591748,0.9635767147325858,0.23663691157396816
1539131652889262,-0.11261158159761964,0.9644312199588008,0.2356603341725796
1539131652905271,-0.11261158159761964,0.964919508659495,0.23614862287327387
1539131652921280,-0.11273365377279321,0.9632104982070651,0.23541618982223245
1539131652937289,-0.11053635461966893,0.9606469825284201,0.23541618982223245
1539131652953298,-0.10955977721828036,0.9608911268787672,0.23468375677119102
1539131652969307,-0.10882734416723894,0.9612573434042879,0.23382925154497602
1539131652985315,-0.11029221026932179,0.9656519417105365,0.23382925154497602
1539131653001324,-0.11114671549553679,0.9706569008926529,0.23627069504844744
1539131653017333,-0.10870527199206537,0.9721217669947357,0.23834592202639815
1539131653033325,-0.11200122072175178,0.9677271686884872,0.24115358205539028
1539131653049334,-0.11126878767071036,0.9612573434042879,0.23956664377813386
1539131653065343,-0.11078049897001607,0.9596704051270315,0.24139772640573742
1539131653081351,-0.11090257114518964,0.9632104982070651,0.239810788128481
1539131653097360,-0.11004806591897465,0.9652857251850158,0.24347295338368813
1539131653113369,-0.1077286945906768,0.9641870756084536,0.24408331425955598
1539131653129378,-0.10748455024032966,0.9673609521629665,0.2435950255588617
1539131653145387,-0.10455481803616395,0.9676050965133136,0.2473792629892424
1539131653161396,-0.10040436408026254,0.9679713130388343,0.24579232471198598
1539131653177405,-0.10113679713130397,0.9662623025864043,0.24664682993820097
1539131653193413,-0.09857328145265898,0.9647974364843215,0.25055313954375524
1539131653209422,-0.09832913710231184,0.9644312199588008,0.2485999847409781
1539131653225431,-0.0972304875257497,0.96577401388571,0.24835584039063097
1539131653241440,-0.10028229190508897,0.96406500343328,0.2485999847409781
1539131653257449,-0.10370031280994896,0.9608911268787672,0.24286259250782027
1539131653273458,-0.10736247806515609,0.9621118486305029,0.241519798580911
1539131653289466,-0.10992599374380108,0.9630884260318915,0.24139772640573742
1539131653305475,-0.11517509727626463,0.9652857251850158,0.23736934462500958
1539131653321484,-0.12018005645838103,0.9635767147325858,0.23541618982223245
1539131653337493,-0.11883726253147175,0.9641870756084536,0.23797970550087744
1539131653353515,-0.1211566338597696,0.9630884260318915,0.24054322117952243
1539131653369524,-0.11566338597695891,0.9652857251850158,0.24090943770504314
1539131653385533,-0.11493095292591748,0.9658960860608836,0.24383916990920884
1539131653401542,-0.11200122072175178,0.968337529564355,0.24725719081406883
1539131653417551,-0.1115129320210575,0.9644312199588008,0.24798962386511025
1539131653433560,-0.11053635461966893,0.9575951781490808,0.24408331425955598
1539131653449568,-0.11346608682383463,0.9549095902952622,0.24786755168993668
1539131653465577,-0.11627374685282676,0.9575951781490808,0.24701304646372169
1539131653481586,-0.11749446860456247,0.9589379720759901,0.2456702525368124
1539131653497595,-0.12054627298390175,0.9589379720759901,0.2448157473105974
1539131653513604,-0.12225528343633174,0.9626001373311972,0.2453040360112917
1539131653529613,-0.12213321126115817,0.9619897764553293,0.24628061341268026
1539131653545621,-0.12274357213702602,0.9636987869077593,0.24628061341268026
1539131653561630,-0.12103456168459603,0.96577401388571,0.24469367513542384
1539131653577639,-0.11725032425421533,0.9694361791409172,0.24505989166094455
1539131653593648,-0.11273365377279321,0.970046540016785,0.24713511863889526
1539131653609657,-0.11517509727626463,0.9680933852140079,0.24640268558785383
1539131653625666,-0.11334401464866106,0.9594262607766844,0.24408331425955598
1539131653641675,-0.11187914854657821,0.9517357137407494,0.24457160296025027
1539131653657683,-0.11224536507209892,0.9491721980621044,0.24689097428854812
1539131653673706,-0.11004806591897465,0.9494163424124515,0.2477454795147631
1539131653689715,-0.11053635461966893,0.9514915693904022,0.2477454795147631
1539131653705723,-0.10870527199206537,0.9555199511711301,0.2473792629892424
1539131653721732,-0.10736247806515609,0.9588158999008165,0.24982070649271382
1539131653737741,-0.1077286945906768,0.9591821164263372,0.2545815213244831
1539131653753750,-0.10577553978789966,0.9597924773022051,0.24969863431754025
1539131653769759,-0.1047989623865111,0.9612573434042879,0.25506981002517737
1539131653785768,-0.10516517891203181,0.9658960860608836,0.25555809872587165
1539131653801777,-0.1030899519340811,0.964919508659495,0.25677882047760736
1539131653817785,-0.10382238498512253,0.9652857251850158,0.25397116044861523
1539131653833794,-0.10174715800717182,0.9651636530098422,0.25775539787899593
1539131653849803,-0.1022354467078661,0.9636987869077593,0.25677882047760736
1539131653865812,-0.10247959105821325,0.9622339208056765,0.2583657587548638
1539131653881821,-0.1047989623865111,0.9654077973601893,0.2599526970321202
1539131653897830,-0.1047989623865111,0.9660181582360572,0.2578774700541695
1539131653913838,-0.10699626153963537,0.9668726634622722,0.25641260395208665
1539131653929847,-0.11004806591897465,0.9673609521629665,0.2556801709010452
1539131653945856,-0.11102464332036321,0.9645532921339743,0.25677882047760736
1539131653961865,-0.11383230334935535,0.9619897764553293,0.2578774700541695
1539131653977874,-0.11786068513008319,0.9593041886015108,0.2545815213244831
1539131653993866,-0.11932555123216604,0.955275806820783,0.2562905317769131
1539131654009874,-0.12164492256046389,0.9540550850690472,0.2554360265506981
1539131654025883,-0.12262149996185245,0.9523460746166172,0.2536049439230945
1539131654041892,-0.1240863660639353,0.9511253528648815,0.25421530479896237
1539131654057901,-0.1228656443121996,0.953566796368353,0.25470359349965666
1539131654073910,-0.12359807736324102,0.9551537346456094,0.2558022430762188
1539131654089919,-0.12469672693980316,0.9590600442511636,0.25726710917830165
1539131654105928,-0.127016098268101,0.9599145494773786,0.2582436865796902
1539131654121936,-0.12567330434119173,0.9621118486305029,0.25641260395208665
1539131654137945,-0.12738231479362172,0.9622339208056765,0.2583657587548638
1539131654153954,-0.12823682001983672,0.9619897764553293,0.2620279240100709
1539131654169963,-0.12848096437018386,0.9627222095063708,0.2582436865796902
1539131654185972,-0.1299458304722667,0.9643091477836272,0.25812161440451664
1539131654201981,-0.13031204699778742,0.9647974364843215,0.26068513008316163
1539131654217990,-0.12884718089570457,0.9624780651560236,0.25970855268177306
1539131654233998,-0.12677195391775387,0.9611352712291144,0.26068513008316163
1539131654250007,-0.1249408712901503,0.9602807660028994,0.26263828488593877
1539131654266016,-0.12298771648737317,0.9583276112001222,0.2594644083314259
1539131654282025,-0.12262149996185245,0.9560082398718244,0.2556801709010452
1539131654298034,-0.12164492256046389,0.9564965285725187,0.25848783093003735
1539131654314026,-0.12066834515907532,0.9522240024414437,0.2554360265506981
1539131654330034,-0.11871519035629818,0.951003280689708,0.2533607995727474
1539131654346043,-0.11932555123216604,0.9516136415655758,0.2525062943465324
1539131654362052,-0.11932555123216604,0.9516136415655758,0.2549477378500038
1539131654378061,-0.11932555123216604,0.9564965285725187,0.2528725108720531
1539131654394070,-0.11847104600595104,0.9591821164263372,0.2561684596017395
1539131654410079,-0.11895933470664533,0.9604028381780729,0.25214007782101167
1539131654426087,-0.11786068513008319,0.9594262607766844,0.25799954222934307
1539131654442096,-0.11834897383077747,0.9606469825284201,0.2600747692072938
1539131654458105,-0.11847104600595104,0.9605249103532465,0.26068513008316163
1539131654474114,-0.11688410772869462,0.9578393224994279,0.2587319752803845
1539131654490123,-0.11517509727626463,0.9556420233463037,0.2549477378500038
1539131654506132,-0.11212329289692535,0.9549095902952622,0.25799954222934307
1539131654522141,-0.11261158159761964,0.9533226520180058,0.25311665522240023
1539131654538149,-0.11432059205004963,0.9530785076676587,0.25421530479896237
1539131654554158,-0.1135881589990082,0.952712291142138,0.2565346761272602
1539131654570167,-0.1135881589990082,0.9534447241931794,0.25763332570382236
1539131654586176,-0.11627374685282676,0.9533226520180058,0.25848783093003735
1539131654602185,-0.11590753032730605,0.9538109407187001,0.2604409857328145
1539131654618194,-0.11920347905699247,0.9547875181200887,0.26398107881284805
1539131654634216,-0.12091248950942246,0.9578393224994279,0.2638590066376745
1539131654650225,-0.12420843823910888,0.9599145494773786,0.2676432440680552
1539131654666234,-0.127016098268101,0.9618677042801558,0.27106126497291516
1539131654682242,-0.1299458304722667,0.9634546425574122,0.2705729762722209
1539131654698251,-0.13275349050125884,0.9629663538567179,0.269962615396353
1539131654714260,-0.1337300679026474,0.9628442816815443,0.2700846875715266
1539131654730269,-0.1325093461509117,0.9624780651560236,0.2666666666666666
1539131654746278,-0.127870603494316,0.9645532921339743,0.26178377965972377
1539131654762287,-0.12530708781567101,0.9607690547035936,0.25604638742656594
1539131654778296,-0.12384222171358816,0.9575951781490808,0.25690089265278093
1539131654794304,-0.12372014953841459,0.9560082398718244,0.2528725108720531
1539131654810313,-0.12310978866254674,0.9529564354924851,0.25140764476997024
1539131654826322,-0.12347600518806745,0.9486839093614101,0.25091935606927596
1539131654842331,-0.12445258258945602,0.9442893110551616,0.2523842221713588
1539131654858340,-0.12274357213702602,0.9474631876096744,0.2545815213244831
1539131654874349,-0.12372014953841459,0.951003280689708,0.2599526970321202
1539131654890358,-0.1266498817425803,0.9572289616235601,0.2599526970321202
1539131654906366,-0.1257953765163653,0.9612573434042879,0.2621499961852445
1539131654922375,-0.12689402609292744,0.9638208590829329,0.26153963530937663
1539131654938384,-0.1299458304722667,0.96577401388571,0.26190585183489734
1539131654954376,-0.12896925307087814,0.9667505912870986,0.25983062485694663
1539131654970385,-0.12738231479362172,0.96748302433814,0.25799954222934307
1539131654986394,-0.12640573739223315,0.9651636530098422,0.2537270160982681
1539131655002402,-0.12530708781567101,0.9600366216525522,0.2537270160982681
1539131655018411,-0.12530708781567101,0.9579613946746015,0.25421530479896237
1539131655034420,-0.12152285038529032,0.9577172503242544,0.25128557259479667
1539131655050429,-0.11969176775768675,0.9568627450980394,0.2503089951934081
1539131655066438,-0.11895933470664533,0.9573510337987337,0.2528725108720531
1539131655082447,-0.12005798428320746,0.9575951781490808,0.25140764476997024
1539131655098456,-0.12018005645838103,0.9563744563973451,0.2503089951934081
1539131655114464,-0.12103456168459603,0.9566186007476922,0.25055313954375524
1539131655130473,-0.1220111390859846,0.9586938277256429,0.2528725108720531
1539131655146482,-0.12323186083772031,0.9595483329518579,0.2507972838941024
1539131655162491,-0.1228656443121996,0.9605249103532465,0.2533607995727474
1539131655178500,-0.12372014953841459,0.9608911268787672,0.25677882047760736
1539131655194509,-0.1211566338597696,0.9638208590829329,0.2518959334706645
1539131655210518,-0.12018005645838103,0.9644312199588008,0.25348287174792095
1539131655226526,-0.12225528343633174,0.9651636530098422,0.2549477378500038
1539131655242535,-0.12323186083772031,0.9639429312581065,0.2562905317769131
1539131655258544,-0.12445258258945602,0.9596704051270315,0.25091935606927596
1539131655274566,-0.12542915999084459,0.9540550850690472,0.25226214999618524
1539131655290575,-0.12506294346532387,0.9516136415655758,0.25519188220035094
1539131655306584,-0.12372014953841459,0.9536888685435265,0.2558022430762188
1539131655322593,-0.12420843823910888,0.9553978789959565,0.2583657587548638
1539131655338602,-0.12713817044327458,0.9595483329518579,0.2594644083314259
1539131655354611,-0.12603952086671244,0.9617456321049822,0.2600747692072938
1539131655370619,-0.12652780956740672,0.9633325703822386,0.2561684596017395
1539131655386628,-0.12469672693980316,0.9638208590829329,0.25677882047760736
1539131655402637,-0.12347600518806745,0.9633325703822386,0.2556801709010452
1539131655418646,-0.12237735561150531,0.9599145494773786,0.25421530479896237
1539131655434655,-0.12018005645838103,0.9590600442511636,0.2565346761272602
1539131655450664,-0.11993591210803389,0.9594262607766844,0.25384908827344166
1539131655466673,-0.1182269016556039,0.9584496833752958,0.2556801709010452
1539131655482681,-0.11847104600595104,0.9569848172732129,0.2561684596017395
1539131655498690,-0.11932555123216604,0.9555199511711301,0.25421530479896237
1539131655514699,-0.12127870603494317,0.9578393224994279,0.25763332570382236
1539131655530708,-0.1211566338597696,0.9591821164263372,0.2578774700541695
1539131655546717,-0.1211566338597696,0.9606469825284201,0.25677882047760736
1539131655562726,-0.12164492256046389,0.9613794155794615,0.25397116044861523
1539131655578734,-0.1211566338597696,0.9633325703822386,0.25214007782101167
1539131655594757,-0.12347600518806745,0.9644312199588008,0.2558022430762188
1539131655610766,-0.1228656443121996,0.9623559929808501,0.25421530479896237
1539131655626774,-0.12079041733424889,0.9601586938277258,0.25262836652170595
1539131655642783,-0.12213321126115817,0.9546654459449151,0.2525062943465324
1539131655658792,-0.12140077821011674,0.9555199511711301,0.25262836652170595
1539131655674801,-0.11920347905699247,0.9575951781490808,0.25140764476997024
1539131655690810,-0.11956969558251318,0.9593041886015108,0.2499427786678874
1539131655706819,-0.11883726253147175,0.9611352712291144,0.25177386129549095
1539131655722828,-0.11969176775768675,0.9627222095063708,0.24872205691615168
1539131655738836,-0.1211566338597696,0.9630884260318915,0.2477454795147631
1539131655754845,-0.12188906691081103,0.9615014877546351,0.2448157473105974
1539131655770854,-0.12225528343633174,0.9599145494773786,0.24676890211337454
1539131655786863,-0.1211566338597696,0.9583276112001222,0.2499427786678874
1539131655802872,-0.12310978866254674,0.9566186007476922,0.25006485084306096
1539131655818881,-0.12310978866254674,0.9564965285725187,0.2499427786678874
1539131655834890,-0.12323186083772031,0.9590600442511636,0.25006485084306096
1539131655850898,-0.12420843823910888,0.9594262607766844,0.2506752117189288
1539131655866907,-0.12359807736324102,0.9586938277256429,0.2548256656748302
1539131655882916,-0.12225528343633174,0.9606469825284201,0.2554360265506981
1539131655898925,-0.12396429388876173,0.9590600442511636,0.25433737697413594
1539131655914917,-0.12420843823910888,0.9585717555504694,0.2553139543755245
1539131655930925,-0.1257953765163653,0.9599145494773786,0.2558022430762188
1539131655946934,-0.12335393301289388,0.9606469825284201,0.2575112535286488
1539131655962943,-0.12225528343633174,0.9621118486305029,0.25799954222934307
1539131655978952,-0.1190814068818189,0.9630884260318915,0.25519188220035094
1539131655994961,-0.11834897383077747,0.9596704051270315,0.2561684596017395
1539131656010970,-0.11725032425421533,0.9572289616235601,0.2544594491493095
1539131656026979,-0.11663996337834748,0.9583276112001222,0.2528725108720531
1539131656042987,-0.11663996337834748,0.9593041886015108,0.25421530479896237
1539131656058996,-0.11712825207904176,0.9602807660028994,0.25226214999618524
1539131656075005,-0.11773861295490962,0.9622339208056765,0.2511635004196231
1539131656091014,-0.12054627298390175,0.9600366216525522,0.2523842221713588
1539131656107023,-0.12054627298390175,0.9585717555504694,0.25311665522240023
1539131656123032,-0.12152285038529032,0.9568627450980394,0.25555809872587165
1539131656139041,-0.12262149996185245,0.9597924773022051,0.2561684596017395
1539131656155049,-0.12372014953841459,0.9599145494773786,0.25519188220035094
1539131656171058,-0.12274357213702602,0.9615014877546351,0.25555809872587165
1539131656187067,-0.12310978866254674,0.9639429312581065,0.2528725108720531
1539131656203076,-0.12018005645838103,0.9622339208056765,0.2527504386968795
1539131656219085,-0.12079041733424889,0.9608911268787672,0.24835584039063097
1539131656235107,-0.11761654077973605,0.9571068894483865,0.2518959334706645
1539131656251116,-0.11859311818112461,0.9562523842221715,0.24957656214236668
1539131656267125,-0.1190814068818189,0.9546654459449151,0.24921034561684596
1539131656283134,-0.11786068513008319,0.955275806820783,0.24969863431754025
1539131656299142,-0.11895933470664533,0.9573510337987337,0.2485999847409781
1539131656315151,-0.11810482948043033,0.9588158999008165,0.2536049439230945
1539131656331160,-0.11883726253147175,0.9617456321049822,0.25506981002517737
1539131656347169,-0.12127870603494317,0.9627222095063708,0.25262836652170595
1539131656363178,-0.12237735561150531,0.9647974364843215,0.2506752117189288
1539131656379187,-0.12384222171358816,0.9646753643091479,0.25018692301823453
1539131656395196,-0.12542915999084459,0.9612573434042879,0.24933241779201953
1539131656411204,-0.12603952086671244,0.9605249103532465,0.24762340733958954
1539131656427213,-0.12372014953841459,0.9597924773022051,0.2518959334706645
1539131656443222,-0.12347600518806745,0.9588158999008165,0.24969863431754025
1539131656459231,-0.12323186083772031,0.9599145494773786,0.25348287174792095
1539131656475240,-0.1240863660639353,0.9610131990539408,0.2532387273975738
1539131656491249,-0.12347600518806745,0.9608911268787672,0.25311665522240023
1539131656507258,-0.12335393301289388,0.9615014877546351,0.24982070649271382
1539131656523266,-0.12152285038529032,0.9612573434042879,0.2523842221713588
1539131656539275,-0.1211566338597696,0.9634546425574122,0.2511635004196231
1539131656555297,-0.12066834515907532,0.9633325703822386,0.2525062943465324
1539131656571306,-0.11871519035629818,0.9619897764553293,0.25018692301823453
1539131656587315,-0.11969176775768675,0.9605249103532465,0.25226214999618524
1539131656603324,-0.11969176775768675,0.9584496833752958,0.2490882734416724
1539131656619333,-0.11834897383077747,0.9571068894483865,0.25055313954375524
1539131656635342,-0.1190814068818189,0.9574731059739072,0.2504310673685817
1539131656651351,-0.1182269016556039,0.9606469825284201,0.25421530479896237
1539131656667359,-0.11871519035629818,0.9621118486305029,0.2532387273975738
1539131656683368,-0.11969176775768675,0.9629663538567179,0.25690089265278093
1539131656699377,-0.12042420080872818,0.9599145494773786,0.2573891813534752
1539131656715386,-0.12298771648737317,0.9572289616235601,0.25604638742656594
1539131656731395,-0.12396429388876173,0.9549095902952622,0.2561684596017395
1539131656747404,-0.12323186083772031,0.9551537346456094,0.25397116044861523
1539131656763413,-0.12274357213702602,0.9560082398718244,0.25726710917830165
1539131656779421,-0.12298771648737317,0.9582055390249486,0.25555809872587165
1539131656795430,-0.12225528343633174,0.9615014877546351,0.2553139543755245
1539131656811439,-0.12127870603494317,0.9619897764553293,0.2553139543755245
1539131656827448,-0.11932555123216604,0.9599145494773786,0.25311665522240023
1539131656843457,-0.11981383993286032,0.9591821164263372,0.2515297169451438
1539131656859466,-0.11920347905699247,0.9556420233463037,0.2490882734416724
1539131656875488,-0.11725032425421533,0.9577172503242544,0.24921034561684596
1539131656891497,-0.11700617990386819,0.9595483329518579,0.24969863431754025
1539131656907506,-0.11663996337834748,0.9611352712291144,0.2499427786678874
1539131656923514,-0.11725032425421533,0.9626001373311972,0.2516517891203174
1539131656939523,-0.11749446860456247,0.9629663538567179,0.24798962386511025
1539131656955532,-0.11871519035629818,0.9636987869077593,0.2477454795147631
1539131656971541,-0.11993591210803389,0.9627222095063708,0.24957656214236668
1539131656987550,-0.12225528343633174,0.9616235599298086,0.24713511863889526
1539131657003559,-0.12396429388876173,0.9597924773022051,0.2461585412375067
1539131657019568,-0.1257953765163653,0.9622339208056765,0.24676890211337454
1539131657035576,-0.12469672693980316,0.9600366216525522,0.24701304646372169
1539131657051585,-0.12433051041428245,0.9593041886015108,0.24933241779201953
1539131657067594,-0.12555123216601816,0.9591821164263372,0.2485999847409781
1539131657083603,-0.12762645914396886,0.9593041886015108,0.24982070649271382
1539131657099612,-0.1266498817425803,0.9585717555504694,0.2499427786678874
1539131657115621,-0.12628366521705958,0.9582055390249486,0.2504310673685817
1539131657131630,-0.12542915999084459,0.9582055390249486,0.25262836652170595
1539131657147638,-0.12420843823910888,0.9580834668497751,0.2536049439230945
1539131657163647,-0.12359807736324102,0.9590600442511636,0.2565346761272602
1539131657179656,-0.1220111390859846,0.9610131990539408,0.2565346761272602
1539131657195648,-0.12225528343633174,0.9621118486305029,0.2575112535286488
1539131657211657,-0.12164492256046389,0.9621118486305029,0.2554360265506981
1539131657227666,-0.11810482948043033,0.9626001373311972,0.25555809872587165
1539131657243674,-0.1165178912031739,0.9622339208056765,0.2565346761272602
1539131657259683,-0.11712825207904176,0.9611352712291144,0.25348287174792095
1539131657275692,-0.1165178912031739,0.9589379720759901,0.25262836652170595
1539131657291701,-0.11639581902800034,0.9595483329518579,0.2545815213244831
1539131657307710,-0.1165178912031739,0.9622339208056765,0.2510414282444495
1539131657323719,-0.11847104600595104,0.9608911268787672,0.2527504386968795
1539131657339728,-0.12054627298390175,0.9584496833752958,0.2528725108720531
1539131657355736,-0.12237735561150531,0.9573510337987337,0.2536049439230945
1539131657371745,-0.12323186083772031,0.9563744563973451,0.25226214999618524
1539131657387754,-0.12347600518806745,0.9579613946746015,0.25470359349965666
1539131657403763,-0.12518501564049744,0.9588158999008165,0.25384908827344166
1539131657419772,-0.12359807736324102,0.9611352712291144,0.25506981002517737
1539131657435781,-0.12433051041428245,0.9612573434042879,0.25433737697413594
1539131657451789,-0.12249942778667888,0.9616235599298086,0.25299458304722666
1539131657467798,-0.12103456168459603,0.9591821164263372,0.2544594491493095
1539131657483807,-0.12054627298390175,0.9594262607766844,0.2528725108720531
1539131657499816,-0.11883726253147175,0.9596704051270315,0.25262836652170595
1539131657515838,-0.1190814068818189,0.9595483329518579,0.2511635004196231
1539131657531847,-0.11895933470664533,0.9607690547035936,0.25091935606927596
1539131657547856,-0.11773861295490962,0.9600366216525522,0.25177386129549095
1539131657563865,-0.12079041733424889,0.9595483329518579,0.24664682993820097
1539131657579874,-0.11956969558251318,0.9588158999008165,0.24554818036163883
1539131657595883,-0.11932555123216604,0.9593041886015108,0.24676890211337454
1539131657611891,-0.12176699473563746,0.9608911268787672,0.2494544899671931
1539131657627900,-0.12066834515907532,0.9613794155794615,0.24969863431754025
1539131657643909,-0.1203021286335546,0.9584496833752958,0.2473792629892424
1539131657659918,-0.12091248950942246,0.9593041886015108,0.24969863431754025
1539131657675927,-0.1203021286335546,0.9580834668497751,0.2537270160982681
1539131657691936,-0.12054627298390175,0.9583276112001222,0.25177386129549095
1539131657707944,-0.12066834515907532,0.9601586938277258,0.2510414282444495
1539131657723953,-0.12091248950942246,0.9611352712291144,0.25604638742656594
1539131657739962,-0.12054627298390175,0.9610131990539408,0.2575112535286488
1539131657755971,-0.12176699473563746,0.9619897764553293,0.2549477378500038
1539131657771980,-0.1220111390859846,0.9593041886015108,0.2603189135576409
1539131657787989,-0.12005798428320746,0.9589379720759901,0.2578774700541695
1539131657803998,-0.12018005645838103,0.9588158999008165,0.2553139543755245
1539131657820006,-0.11810482948043033,0.9573510337987337,0.25848783093003735
1539131657836029,-0.1165178912031739,0.9585717555504694,0.2545815213244831
1539131657852038,-0.11712825207904176,0.9596704051270315,0.25763332570382236
1539131657868046,-0.11749446860456247,0.9608911268787672,0.25763332570382236
1539131657884055,-0.11883726253147175,0.9582055390249486,0.25641260395208665
1539131657900064,-0.11883726253147175,0.9579613946746015,0.2525062943465324
1539131657916073,-0.12127870603494317,0.9594262607766844,0.25311665522240023
1539131657932082,-0.12140077821011674,0.9586938277256429,0.2556801709010452
1539131657948091,-0.12188906691081103,0.9623559929808501,0.25214007782101167
1539131657964100,-0.12249942778667888,0.9621118486305029,0.25262836652170595
1539131657980108,-0.12347600518806745,0.9599145494773786,0.2527504386968795
1539131657996117,-0.12506294346532387,0.9560082398718244,0.2532387273975738
1539131658012126,-0.12542915999084459,0.9522240024414437,0.2525062943465324
1539131658028135,-0.12481879911497673,0.955275806820783,0.2545815213244831
1539131658044144,-0.12420843823910888,0.9589379720759901,0.25506981002517737
1539131658060153,-0.12237735561150531,0.9621118486305029,0.2536049439230945
1539131658076161,-0.12152285038529032,0.9639429312581065,0.25397116044861523
1539131658092170,-0.12066834515907532,0.9636987869077593,0.2506752117189288
1539131658108179,-0.11810482948043033,0.9610131990539408,0.24982070649271382
1539131658124188,-0.11700617990386819,0.9585717555504694,0.25055313954375524
1539131658140197,-0.11712825207904176,0.9575951781490808,0.24542610818646526
1539131658156189,-0.11578545815213248,0.9579613946746015,0.24884412909132525
1539131658172197,-0.1152971694514382,0.9590600442511636,0.2532387273975738
1539131658188206,-0.11505302510109106,0.9593041886015108,0.2503089951934081
1539131658204215,-0.11407644769970249,0.9619897764553293,0.2490882734416724
1539131658220224,-0.11566338597695891,0.9607690547035936,0.24725719081406883
1539131658236233,-0.11798275730525676,0.9617456321049822,0.2516517891203174
1539131658252242,-0.11859311818112461,0.9613794155794615,0.2516517891203174
1539131658268251,-0.1203021286335546,0.9579613946746015,0.25128557259479667
1539131658284259,-0.12127870603494317,0.9593041886015108,0.25397116044861523
1539131658300268,-0.12274357213702602,0.9591821164263372,0.25348287174792095
1539131658316277,-0.12249942778667888,0.9586938277256429,0.2525062943465324
1539131658332286,-0.12323186083772031,0.9588158999008165,0.2578774700541695
1539131658348295,-0.12420843823910888,0.9608911268787672,0.2544594491493095
1539131658364304,-0.12262149996185245,0.9589379720759901,0.25726710917830165
1539131658380313,-0.12555123216601816,0.9611352712291144,0.2549477378500038
1539131658396321,-0.12640573739223315,0.9589379720759901,0.2575112535286488
1539131658412330,-0.12628366521705958,0.9601586938277258,0.25519188220035094
1539131658428339,-0.12384222171358816,0.9588158999008165,0.25421530479896237
1539131658444348,-0.12335393301289388,0.9574731059739072,0.2545815213244831
1539131658460357,-0.1220111390859846,0.9597924773022051,0.25348287174792095
1539131658476379,-0.12066834515907532,0.9578393224994279,0.2528725108720531
1539131658492388,-0.11883726253147175,0.9580834668497751,0.25470359349965666
1539131658508397,-0.11810482948043033,0.9575951781490808,0.25519188220035094
1539131658524406,-0.11798275730525676,0.9584496833752958,0.2536049439230945
1539131658540414,-0.11786068513008319,0.9583276112001222,0.2536049439230945
1539131658556423,-0.11627374685282676,0.9602807660028994,0.25506981002517737
1539131658572432,-0.13617151140611883,0.7996337834744791,0.12603952086671288
1539131658588441,-0.038757915617608774,1.1225146868085751,0.3510185397116041
1539131658604450,-0.3349050125886932,1.0368200198367283,0.391424429694057
1539131658620459,-0.3140306706340126,1.0187533379110398,0.5059281300068665
1539131658636468,-0.4118104829480429,0.971755550469215,0.5800259403372241
1539131658652476,-0.42914473182269,0.8911879148546582,0.5949187457083998
1539131658668485,-0.4384222171358818,0.8902113374532696,0.5733119707026777
1539131658684494,-0.36029602502479596,0.832104982070649,0.5440146486610207
1539131658700503,-0.30475318532082074,0.8438239108873118,0.5114213778896772
1539131658716512,-0.2608072022583352,0.8609140154116117,0.4884718089570459
1539131658732521,-0.2410315098802167,0.8944838635843446,0.4682078278782331
1539131658748530,-0.2280918593118182,0.9494163424124515,0.4339055466544597
1539131658764538,-0.2003814755474176,1.0045929655909056,0.3960631723506527
1539131658780547,-0.163149462119478,1.0428015564202333,0.3640802624551762
1539131658796569,-0.15912108033875016,1.049149309529259,0.3317311360341799
1539131658812578,-0.14068818188754095,1.027786678873884,0.3062180514229036
1539131658828587,-0.12152285038529032,0.9875028610666057,0.2935225452048522
1539131658844596,-0.10003814755474183,0.9436789501792937,0.2771648737315937
1539131658860605,-0.06842145418478696,0.906324864576181,0.2647135118638895
1539131658876614,-0.028870069428549527,0.8919203479056996,0.2339513237201496
1539131658892623,0.0214236667429617,0.8966811627374689,0.19549858854047475
1539131658908631,0.05535973144121442,0.903761348897536,0.15594720378423776
1539131658924640,0.05499351491569371,0.9024185549706267,0.13678187228198713
1539131658940649,0.02276646066987098,0.8972915236133368,0.12213321126115773
1539131658956658,-0.010070954451819603,0.8870374608987568,0.11541924162661132
1539131658972667,-0.02789349202716096,0.882154573891814,0.11017013809414777
1539131658988676,-0.03179980163271523,0.8922865644312203,0.10675211718928779
1539131659004685,-0.03802548256656735,0.9136491950865953,0.1146868085755699
1539131659020693,-0.054627298390172996,0.9319600213626309,0.13824673838406998
1539131659036702,-0.0678110933089191,0.9462424658579387,0.170107576104372
1539131659052711,-0.08319218738078904,0.966628519111925,0.19513237201495404
1539131659068720,-0.09466697184710471,0.9844510566872664,0.21173418783855968
1539131659084729,-0.11566338597695891,1.0006866559853513,0.2330968184939346
1539131659100738,-0.14154268711375595,1.0127718013275349,0.2556801709010452
1539131659116729,-0.17474631876096725,1.0178988326848248,0.2763103685053787
1539131659132738,-0.20343327992675686,1.0213168535896848,0.29132524605172794
1539131659148747,-0.22235446707866036,1.0240024414435034,0.30011444266422505
1539131659164756,-0.23321889066910817,1.0264438849469748,0.31134508278019357
1539131659180765,-0.23382925154497602,1.0296177615014876,0.3217212176699471
1539131659196774,-0.23273060196841389,1.030106050202182,0.33075455863279135
1539131659212782,-0.23382925154497602,1.0259555962462805,0.3390554665445942
1539131659228791,-0.2318760967421989,1.0236362249179827,0.34711223010604986
1539131659244800,-0.23236438544289317,1.0233920805676355,0.3570000762951091
1539131659260809,-0.23553826199740602,1.0131380178530556,0.3683527885862512
1539131659276818,-0.2351720454718853,1.0028839551384756,0.3721370260166319
1539131659292827,-0.2348058289463646,0.9890897993438621,0.37982757305256776
1539131659308836,-0.23358510719462888,0.9788357366292821,0.38788433661402344
1539131659324844,-0.22687113756008248,0.9699244678416115,0.38397802700846917
1539131659340853,-0.21942473487449465,0.9633325703822386,0.3867856870374613
1539131659356862,-0.2146639200427254,0.9599145494773786,0.3876401922636763
1539131659372871,-0.20941481651026184,0.9567406729228658,0.38495460440985774
1539131659388880,-0.20209048599984758,0.9496604867627987,0.3812924391546506
1539131659404889,-0.19513237201495404,0.9469748989089801,0.3795834287022206
1539131659420898,-0.18133821622034008,0.9479514763103687,0.3726253147173262
1539131659436920,-0.1715724422064544,0.9532005798428322,0.3638361181048291
1539131659452929,-0.1610742351415273,0.9538109407187001,0.3549248493171584
1539131659468937,-0.15118638895246805,0.9557640955214772,0.35419241626611697
1539131659484946,-0.13946746013580524,0.9630884260318915,0.34711223010604986
1539131659500955,-0.12860303654535743,0.9702906843671322,0.3427176317998013
1539131659516964,-0.1173723964293889,0.9763942931258107,0.3344167238879985
1539131659532973,-0.11126878767071036,0.9853055619134814,0.3250171663996335
1539131659548982,-0.10321202410925467,0.99140917067216,0.3174486915388721
1539131659564991,-0.09515526054779899,0.9988555733577478,0.3070725566491186
1539131659580999,-0.08392462043183047,1.0030060273136492,0.29669642175936506
1539131659597008,-0.07769893949797835,1.0060578316929885,0.28204776073853655
1539131659613017,-0.07257190814068837,1.002761882963302,0.2654459449149309
1539131659629026,-0.06988632028686981,0.9995880064087892,0.2573891813534752
1539131659645035,-0.06353856717784412,0.9970244907301442,0.2461585412375067
1539131659661044,-0.06366063935301769,0.9943389028763256,0.23871213855191886
1539131659677053,-0.06121919584954583,0.9907988097962921,0.22540627145799963
1539131659693061,-0.0575570305943387,0.9873807888914321,0.21600671396963467
1539131659709070,-0.054627298390172996,0.9832303349355307,0.2083161669336997
1539131659725079,-0.05548180361638799,0.9805447470817121,0.20099183642328544
1539131659741088,-0.05499351491569371,0.9750514991989014,0.19171435111009405
1539131659757110,-0.05951018539711583,0.9693141069657436,0.18243686579690266
1539131659773119,-0.061097123674372256,0.9636987869077593,0.1768215457389184
1539131659789128,-0.06390478370336483,0.9582055390249486,0.17206073090714913
1539131659805137,-0.06659037155718339,0.9539330128938737,0.16864271000228914
1539131659821146,-0.0715953307392998,0.9485618371862365,0.1642481116960406
1539131659837154,-0.07611200122072193,0.9448996719310294,0.1582665751125356
1539131659853163,-0.08233768215457404,0.9456321049820708,0.1604638742656599
1539131659869172,-0.08941786831464116,0.9466086823834594,0.16229495689326345
1539131659885181,-0.10174715800717182,0.9470969710841537,0.17120622568093413
1539131659901190,-0.10846112764171822,0.9494163424124515,0.17401388570992626
1539131659917199,-0.1190814068818189,0.9551537346456094,0.1843900205996798
