Timestamp (microseconds),Gyro X (°/s),Gyro Y (°/s),Gyro Z (°/s)
1539131634783569,-0.09155413138023505,1.2512397955290453,-0.6408789196611906
1539131634799571,-0.15259021896690683,1.0681315327688026,-0.7629510948347615
1539131634815572,-0.15259021896690683,1.0070954451819034,-0.8239871824216607
1539131634831574,-0.03051804379333589,1.0681315327688026,-0.8239871824216607
1539131634847576,-0.09155413138023505,1.1902037079423735,-0.7019150072480898
1539131634863577,-0.213626306553806,1.0681315327688026,-0.5798428320745188
1539131634879579,-0.33569848172737693,1.0070954451819034,-0.5188067444876197
1539131634895581,-0.3967345693140487,1.0070954451819034,-0.45777065690094787
1539131634911583,-0.5188067444876197,0.8850232700083325,-0.45777065690094787
1539131634927584,-0.3967345693140487,0.9460593575952316,-0.5188067444876197
1539131634943586,-0.3967345693140487,1.1902037079423735,-0.5798428320745188
1539131634959588,-0.2746623941404778,1.3733119707026162,-0.5798428320745188
1539131634975589,-0.15259021896690683,1.4343480582895154,-0.5188067444876197
1539131634991591,-0.03051804379333589,1.3122758831159445,-0.5188067444876197
1539131635007593,-0.03051804379333589,1.3733119707026162,-0.45777065690094787
1539131635023594,0.03051804379333589,1.4953841458761872,-0.33569848172737693
1539131635039596,0.09155413138023505,1.4343480582895154,-0.213626306553806
1539131635055598,0.15259021896690683,1.3122758831159445,-0.03051804379333589
1539131635071600,0.213626306553806,1.2512397955290453,0.15259021896690683
1539131635087601,0.213626306553806,1.2512397955290453,0.213626306553806
1539131635103607,0.213626306553806,1.2512397955290453,0.2746623941404778
1539131635119609,0.213626306553806,1.1291676203554744,0.33569848172737693
1539131635135610,0.15259021896690683,0.8850232700083325,0.2746623941404778
1539131635151612,0.15259021896690683,0.8239871824216607,0.15259021896690683
1539131635167614,0.09155413138023505,0.8850232700083325,0.03051804379333589
1539131635183615,0.09155413138023505,1.0070954451819034,-0.09155413138023505
1539131635199617,0.03051804379333589,1.0070954451819034,-0.213626306553806
1539131635215619,-0.03051804379333589,1.0681315327688026,-0.33569848172737693
1539131635231620,-0.03051804379333589,1.1291676203554744,-0.3967345693140487
1539131635247622,-0.03051804379333589,1.2512397955290453,-0.45777065690094787
1539131635263624,-0.09155413138023505,1.2512397955290453,-0.5188067444876197
1539131635279626,-0.03051804379333589,1.0070954451819034,-0.5188067444876197
1539131635295627,-0.03051804379333589,1.1902037079423735,-0.6408789196611906
1539131635311629,0.03051804379333589,1.4953841458761872,-0.7019150072480898
1539131635327631,-0.03051804379333589,1.3733119707026162,-0.7019150072480898
1539131635343632,0.03051804379333589,1.0681315327688026,-0.7019150072480898
1539131635359634,0.09155413138023505,0.9460593575952316,-0.5798428320745188
1539131635375636,0.15259021896690683,0.9460593575952316,-0.3967345693140487
1539131635391637,0.2746623941404778,1.1291676203554744,-0.213626306553806
1539131635407639,0.213626306553806,1.3122758831159445,-0.03051804379333589
1539131635423645,0.15259021896690683,1.0681315327688026,0.09155413138023505
1539131635439646,0.03051804379333589,0.7629510948347615,-0.09155413138023505
1539131635455648,-0.09155413138023505,0.6408789196611906,-0.213626306553806
1539131635471650,-0.15259021896690683,0.7629510948347615,-0.3967345693140487
1539131635487651,-0.213626306553806,1.0681315327688026,-0.5188067444876197
1539131635503653,-0.2746623941404778,1.3122758831159445,-0.5798428320745188
1539131635519655,-0.2746623941404778,1.4953841458761872,-0.5798428320745188
1539131635535657,-0.2746623941404778,1.4953841458761872,-0.6408789196611906
1539131635551658,-0.213626306553806,1.4953841458761872,-0.6408789196611906
1539131635567660,-0.213626306553806,1.4953841458761872,-0.5798428320745188
1539131635583662,-0.213626306553806,1.5564202334630863,-0.5798428320745188
1539131635599663,-0.213626306553806,1.5564202334630863,-0.5188067444876197
1539131635615665,-0.213626306553806,1.2512397955290453,-0.45777065690094787
1539131635631667,-0.15259021896690683,1.1902037079423735,-0.3967345693140487
1539131635647668,-0.03051804379333589,1.1291676203554744,-0.33569848172737693
1539131635663670,0.03051804379333589,1.1902037079423735,-0.213626306553806
1539131635679672,0.03051804379333589,1.2512397955290453,-0.15259021896690683
1539131635695674,0.03051804379333589,1.1902037079423735,-0.03051804379333589
1539131635711675,0.03051804379333589,0.8850232700083325,-0.09155413138023505
1539131635727677,0.15259021896690683,0.7019150072480898,-0.213626306553806
1539131635743805,0.213626306553806,0.3967345693140487,-0.2746623941404778
1539131635759807,0.15259021896690683,0.2746623941404778,-0.15259021896690683
1539131635775809,0.15259021896690683,0.33569848172737693,-0.03051804379333589
1539131635791811,0.15259021896690683,0.3967345693140487,0.09155413138023505
1539131635807813,0.15259021896690683,0.6408789196611906,0.213626306553806
1539131635823815,0.09155413138023505,0.9460593575952316,0.15259021896690683
1539131635839818,-0.03051804379333589,1.1291676203554744,0.03051804379333589
1539131635855820,-0.213626306553806,1.1291676203554744,-0.15259021896690683
1539131635871822,-0.213626306553806,0.9460593575952316,-0.33569848172737693
1539131635887824,-0.15259021896690683,0.8850232700083325,-0.5188067444876197
1539131635903826,0.09155413138023505,1.0070954451819034,-0.45777065690094787
1539131635919829,0.3967345693140487,1.1902037079423735,-0.33569848172737693
1539131635935831,0.5798428320745188,1.6174563210497581,-0.213626306553806
1539131635951833,0.6408789196611906,1.8616006713969,-0.03051804379333589
1539131635967835,0.5188067444876197,1.6784924086366573,-0.03051804379333589
1539131635983837,0.2746623941404778,1.3122758831159445,-0.03051804379333589
1539131635999839,0.03051804379333589,1.0070954451819034,-0.213626306553806
1539131636015842,-0.213626306553806,0.8850232700083325,-0.33569848172737693
1539131636031844,-0.3967345693140487,1.0070954451819034,-0.45777065690094787
1539131636047846,-0.45777065690094787,1.3122758831159445,-0.5188067444876197
1539131636063934,-0.5188067444876197,1.4343480582895154,-0.6408789196611906
1539131636079937,-0.5798428320745188,1.4343480582895154,-0.7629510948347615
1539131636095939,-0.5188067444876197,1.4343480582895154,-0.8239871824216607
1539131636111942,-0.45777065690094787,1.4343480582895154,-0.8850232700083325
1539131636127945,-0.33569848172737693,1.4343480582895154,-0.8239871824216607
1539131636143947,-0.15259021896690683,1.3733119707026162,-0.7019150072480898
1539131636159950,0.03051804379333589,1.3122758831159445,-0.6408789196611906
1539131636175953,0.15259021896690683,1.3733119707026162,-0.5188067444876197
1539131636191955,0.2746623941404778,1.2512397955290453,-0.3967345693140487
1539131636207958,0.33569848172737693,1.1291676203554744,-0.213626306553806
1539131636223961,0.3967345693140487,1.0681315327688026,-0.09155413138023505
1539131636239963,0.3967345693140487,0.8850232700083325,-0.09155413138023505
1539131636255966,0.2746623941404778,0.6408789196611906,-0.09155413138023505
1539131636271968,0.213626306553806,0.3967345693140487,-0.213626306553806
1539131636287971,0.15259021896690683,0.33569848172737693,-0.33569848172737693
1539131636303974,0.09155413138023505,0.5798428320745188,-0.3967345693140487
1539131636319976,0.09155413138023505,0.8850232700083325,-0.45777065690094787
1539131636335979,0.213626306553806,1.0681315327688026,-0.3967345693140487
1539131636351982,0.3967345693140487,1.1291676203554744,-0.33569848172737693
1539131636367984,0.45777065690094787,1.2512397955290453,-0.33569848172737693
1539131636384124,0.33569848172737693,1.3122758831159445,-0.3967345693140487
1539131636400128,0.33569848172737693,1.3733119707026162,-0.45777065690094787
1539131636416131,0.33569848172737693,1.3122758831159445,-0.5798428320745188
1539131636432134,0.213626306553806,1.0681315327688026,-0.5798428320745188
1539131636448137,0.15259021896690683,0.8850232700083325,-0.5188067444876197
1539131636464140,0.15259021896690683,1.2512397955290453,-0.3967345693140487
1539131636480143,0.03051804379333589,1.739528496223329,-0.2746623941404778
1539131636496146,-0.09155413138023505,1.739528496223329,-0.15259021896690683
1539131636512149,-0.33569848172737693,1.3122758831159445,-0.2746623941404778
1539131636528153,-0.5798428320745188,1.0070954451819034,-0.3967345693140487
1539131636544156,-0.7629510948347615,0.8239871824216607,-0.6408789196611906
1539131636560159,-0.9460593575952316,0.8850232700083325,-0.7629510948347615
1539131636576162,-0.9460593575952316,1.0681315327688026,-0.8239871824216607
1539131636592165,-1.0070954451819034,1.2512397955290453,-1.0070954451819034
1539131636608168,-1.0070954451819034,1.0681315327688026,-1.0070954451819034
1539131636624171,-0.8850232700083325,1.0070954451819034,-1.0070954451819034
1539131636640174,-0.8239871824216607,1.1291676203554744,-0.9460593575952316
1539131636656178,-0.6408789196611906,1.4343480582895154,-0.7629510948347615
1539131636672181,-0.45777065690094787,1.4953841458761872,-0.6408789196611906
1539131636688184,-0.2746623941404778,1.3122758831159445,-0.45777065690094787
1539131636704284,-0.09155413138023505,1.0070954451819034,-0.33569848172737693
1539131636720288,0.15259021896690683,0.9460593575952316,-0.2746623941404778
1539131636736292,0.33569848172737693,1.0681315327688026,-0.15259021896690683
1539131636752295,0.6408789196611906,1.0070954451819034,0.03051804379333589
1539131636768299,0.7019150072480898,0.8850232700083325,0.15259021896690683
1539131636784302,0.7629510948347615,0.9460593575952316,0.2746623941404778
1539131636800306,0.8239871824216607,0.9460593575952316,0.213626306553806
1539131636816310,0.7629510948347615,0.9460593575952316,0.09155413138023505
1539131636832313,0.7629510948347615,0.9460593575952316,-0.03051804379333589
1539131636848317,0.7019150072480898,1.0681315327688026,-0.15259021896690683
1539131636864320,0.5798428320745188,1.1902037079423735,-0.15259021896690683
1539131636880324,0.45777065690094787,1.2512397955290453,-0.15259021896690683
1539131636896328,0.33569848172737693,1.0681315327688026,-0.213626306553806
1539131636912331,0.2746623941404778,1.0681315327688026,-0.33569848172737693
1539131636928335,0.09155413138023505,1.1902037079423735,-0.3967345693140487
1539131636944338,0.03051804379333589,1.4343480582895154,-0.45777065690094787
1539131636960342,0.09155413138023505,1.4953841458761872,-0.3967345693140487
1539131636976346,0.213626306553806,1.4343480582895154,-0.33569848172737693
1539131636992349,0.2746623941404778,1.3733119707026162,-0.213626306553806
1539131637008353,0.33569848172737693,1.3122758831159445,-0.03051804379333589
1539131637024475,0.213626306553806,1.1902037079423735,0.03051804379333589
1539131637040479,0.15259021896690683,0.8850232700083325,-0.03051804379333589
1539131637056483,-0.03051804379333589,0.8239871824216607,-0.09155413138023505
1539131637072487,-0.213626306553806,0.8239871824216607,-0.213626306553806
1539131637088491,-0.33569848172737693,0.9460593575952316,-0.3967345693140487
1539131637104495,-0.5188067444876197,1.1902037079423735,-0.6408789196611906
1539131637120499,-0.6408789196611906,1.3733119707026162,-0.8850232700083325
1539131637136503,-0.8239871824216607,1.4343480582895154,-1.1291676203554744
1539131637152507,-0.8850232700083325,1.3733119707026162,-1.2512397955290453
1539131637168511,-0.7629510948347615,1.2512397955290453,-1.3733119707026162
1539131637184516,-0.6408789196611906,1.1902037079423735,-1.2512397955290453
1539131637200520,-0.5188067444876197,1.4953841458761872,-1.1291676203554744
1539131637216524,-0.33569848172737693,1.8005645838102282,-0.8239871824216607
1539131637232528,-0.03051804379333589,1.8005645838102282,-0.6408789196611906
1539131637248532,0.2746623941404778,1.4953841458761872,-0.3967345693140487
1539131637264536,0.5188067444876197,1.3122758831159445,-0.15259021896690683
1539131637280540,0.7629510948347615,1.3733119707026162,0.09155413138023505
1539131637296544,0.9460593575952316,1.4343480582895154,0.33569848172737693
1539131637312548,1.0681315327688026,1.1902037079423735,0.45777065690094787
1539131637328552,1.1291676203554744,1.1291676203554744,0.5188067444876197
1539131637344635,1.0681315327688026,1.1291676203554744,0.45777065690094787
1539131637360639,1.0070954451819034,1.0070954451819034,0.3967345693140487
1539131637376644,0.8850232700083325,1.1291676203554744,0.213626306553806
1539131637392648,0.7019150072480898,1.2512397955290453,0.09155413138023505
1539131637408653,0.5798428320745188,1.6174563210497581,-0.15259021896690683
1539131637424657,0.45777065690094787,1.8616006713969,-0.33569848172737693
1539131637440662,0.3967345693140487,1.6784924086366573,-0.6408789196611906
1539131637456667,0.213626306553806,1.4343480582895154,-0.8850232700083325
1539131637472671,0.15259021896690683,1.4343480582895154,-0.9460593575952316
1539131637488676,0.09155413138023505,1.6174563210497581,-0.9460593575952316
1539131637504680,0.213626306553806,1.6174563210497581,-0.7019150072480898
1539131637520685,0.45777065690094787,1.4953841458761872,-0.33569848172737693
1539131637536689,0.7629510948347615,1.5564202334630863,-0.03051804379333589
1539131637552694,0.9460593575952316,1.5564202334630863,0.213626306553806
1539131637568699,0.9460593575952316,1.4343480582895154,0.3967345693140487
1539131637584703,0.8850232700083325,1.2512397955290453,0.5188067444876197
1539131637600708,0.8239871824216607,1.1291676203554744,0.5188067444876197
1539131637616712,0.5798428320745188,1.1291676203554744,0.5188067444876197
1539131637632717,0.33569848172737693,1.0681315327688026,0.33569848172737693
1539131637648721,0.09155413138023505,1.1902037079423735,0.15259021896690683
1539131637664795,-0.15259021896690683,1.3733119707026162,-0.09155413138023505
1539131637680799,-0.33569848172737693,1.3733119707026162,-0.33569848172737693
1539131637696804,-0.3967345693140487,1.4953841458761872,-0.5188067444876197
1539131637712808,-0.3967345693140487,1.6784924086366573,-0.7629510948347615
1539131637728813,-0.3967345693140487,1.739528496223329,-0.9460593575952316
1539131637744817,-0.2746623941404778,1.5564202334630863,-0.9460593575952316
1539131637760822,-0.213626306553806,1.3122758831159445,-0.9460593575952316
1539131637776826,-0.09155413138023505,1.3122758831159445,-0.8850232700083325
1539131637792831,0.09155413138023505,1.3733119707026162,-0.7019150072480898
1539131637808836,0.2746623941404778,1.3733119707026162,-0.3967345693140487
1539131637824840,0.5188067444876197,1.3733119707026162,-0.213626306553806
1539131637840845,0.5798428320745188,1.3122758831159445,-0.09155413138023505
1539131637856849,0.6408789196611906,1.2512397955290453,0.03051804379333589
1539131637872854,0.5798428320745188,1.0681315327688026,0.09155413138023505
1539131637888858,0.45777065690094787,0.7629510948347615,0.15259021896690683
1539131637904863,0.33569848172737693,0.7019150072480898,0.2746623941404778
1539131637920868,0.2746623941404778,0.6408789196611906,0.2746623941404778
1539131637936872,0.213626306553806,0.7019150072480898,0.2746623941404778
1539131637952877,0.03051804379333589,0.5798428320745188,0.2746623941404778
1539131637968881,-0.03051804379333589,0.7019150072480898,0.15259021896690683
1539131637984985,-0.213626306553806,0.8850232700083325,-0.03051804379333589
1539131638000990,-0.3967345693140487,1.1291676203554744,-0.2746623941404778
1539131638016995,-0.3967345693140487,1.1291676203554744,-0.5188067444876197
1539131638033000,-0.213626306553806,1.1291676203554744,-0.7629510948347615
1539131638049005,-0.09155413138023505,1.3122758831159445,-0.8239871824216607
1539131638065010,0.15259021896690683,1.5564202334630863,-0.8239871824216607
1539131638081015,0.213626306553806,1.6174563210497581,-0.7019150072480898
1539131638097020,0.09155413138023505,1.2512397955290453,-0.6408789196611906
1539131638113025,-0.03051804379333589,0.8239871824216607,-0.5798428320745188
1539131638129030,-0.33569848172737693,0.5798428320745188,-0.5798428320745188
1539131638145035,-0.6408789196611906,0.45777065690094787,-0.5798428320745188
1539131638161040,-0.8850232700083325,0.5798428320745188,-0.6408789196611906
1539131638177045,-1.0070954451819034,0.8239871824216607,-0.5798428320745188
1539131638193050,-1.0070954451819034,0.9460593575952316,-0.5798428320745188
1539131638209056,-0.9460593575952316,1.0070954451819034,-0.5188067444876197
1539131638225061,-0.7629510948347615,0.9460593575952316,-0.5188067444876197
1539131638241066,-0.5798428320745188,0.8850232700083325,-0.45777065690094787
1539131638257071,-0.5188067444876197,0.8850232700083325,-0.3967345693140487
1539131638273076,-0.3967345693140487,1.1291676203554744,-0.45777065690094787
1539131638289081,-0.33569848172737693,1.4343480582895154,-0.5188067444876197
1539131638305175,-0.03051804379333589,1.9226367589837992,-0.6408789196611906
1539131638321181,0.45777065690094787,2.5940337224383256,-0.7629510948347615
1539131638337186,0.9460593575952316,3.0212863355459376,-1.1291676203554744
1539131638353192,1.5564202334630863,3.2043945983061803,-1.5564202334630863
1539131638369197,2.04470893415737,3.0212863355459376,-1.9226367589837992
1539131638385203,2.532997634851654,2.7771419851987957,-2.166781109330941
1539131638401209,2.7771419851987957,2.4719615472647547,-2.3498893720911838
1539131638417214,2.9602502479590385,2.166781109330941,-2.3498893720911838
1539131638433220,2.8381780727854675,1.739528496223329,-2.410925459678083
1539131638449225,2.655069810025225,1.3733119707026162,-2.288853284504512
1539131638465231,2.410925459678083,1.0070954451819034,-2.105745021744042
1539131638481236,2.105745021744042,0.7019150072480898,-1.983672846570471
1539131638497242,1.9226367589837992,0.3967345693140487,-1.8005645838102282
1539131638513247,1.6174563210497581,0.33569848172737693,-1.6174563210497581
1539131638529253,1.3122758831159445,0.3967345693140487,-1.3733119707026162
1539131638545258,1.0070954451819034,0.5798428320745188,-1.1291676203554744
1539131638561264,0.7629510948347615,0.5798428320745188,-0.8239871824216607
1539131638577269,0.5798428320745188,0.5798428320745188,-0.5798428320745188
1539131638593275,0.45777065690094787,0.6408789196611906,-0.213626306553806
1539131638609280,0.2746623941404778,1.0070954451819034,0.03051804379333589
1539131638625335,0.03051804379333589,1.3733119707026162,0.33569848172737693
1539131638641341,-0.3967345693140487,1.3733119707026162,0.5798428320745188
1539131638657346,-0.7629510948347615,1.2512397955290453,0.7019150072480898
1539131638673352,-1.2512397955290453,1.1291676203554744,0.7629510948347615
1539131638689357,-1.6784924086366573,0.9460593575952316,0.8850232700083325
1539131638705363,-2.105745021744042,1.0070954451819034,1.0681315327688026
1539131638721368,-2.4719615472647547,1.1291676203554744,1.2512397955290453
1539131638737374,-2.7161058976118966,1.0681315327688026,1.3733119707026162
1539131638753379,-2.8992141603723667,0.7019150072480898,1.4953841458761872
1539131638769385,-3.1433585107195086,0.09155413138023505,1.4953841458761872
1539131638785390,-3.2043945983061803,-0.15259021896690683,1.3733119707026162
1539131638801396,-3.1433585107195086,0.09155413138023505,1.3733119707026162
1539131638817402,-3.0212863355459376,0.5188067444876197,1.3733119707026162
1539131638833407,-2.8381780727854675,0.7019150072480898,1.3733119707026162
1539131638849413,-2.532997634851654,0.7629510948347615,1.4343480582895154
1539131638865418,-2.166781109330941,0.8850232700083325,1.4343480582895154
1539131638881424,-1.8005645838102282,0.8239871824216607,1.3122758831159445
1539131638897429,-1.3122758831159445,0.8850232700083325,1.1902037079423735
1539131638913435,-0.8239871824216607,0.8850232700083325,1.1291676203554744
1539131638929440,-0.5188067444876197,0.7629510948347615,0.8239871824216607
1539131638945495,-0.2746623941404778,0.7629510948347615,0.3967345693140487
1539131638961501,0.03051804379333589,0.8239871824216607,-0.03051804379333589
1539131638977507,0.33569848172737693,0.8239871824216607,-0.33569848172737693
1539131638993513,0.6408789196611906,1.0070954451819034,-0.6408789196611906
1539131639009519,0.9460593575952316,1.2512397955290453,-0.7629510948347615
1539131639025525,1.0681315327688026,1.2512397955290453,-0.8850232700083325
1539131639041531,1.1902037079423735,1.0681315327688026,-0.9460593575952316
1539131639057537,1.2512397955290453,0.8850232700083325,-1.0681315327688026
1539131639073543,1.3122758831159445,0.7629510948347615,-1.1902037079423735
1539131639089549,1.3122758831159445,1.0070954451819034,-1.3122758831159445
1539131639105555,1.1902037079423735,1.1902037079423735,-1.4343480582895154
1539131639121561,1.2512397955290453,1.2512397955290453,-1.4343480582895154
1539131639137567,1.3122758831159445,1.3122758831159445,-1.4343480582895154
1539131639153573,1.3733119707026162,1.4343480582895154,-1.3122758831159445
1539131639169579,1.4343480582895154,1.8005645838102282,-1.1902037079423735
1539131639185585,1.3122758831159445,2.04470893415737,-0.9460593575952316
1539131639201591,1.1902037079423735,1.8005645838102282,-0.8850232700083325
1539131639217597,0.8239871824216607,1.5564202334630863,-0.8850232700083325
1539131639233603,0.5188067444876197,1.3733119707026162,-0.9460593575952316
1539131639249609,0.15259021896690683,1.2512397955290453,-0.9460593575952316
1539131639265686,-0.213626306553806,1.3122758831159445,-0.8239871824216607
1539131639281692,-0.5188067444876197,1.4953841458761872,-0.7019150072480898
1539131639297698,-0.7629510948347615,1.5564202334630863,-0.6408789196611906
1539131639313704,-1.0681315327688026,1.3122758831159445,-0.5798428320745188
1539131639329710,-1.2512397955290453,0.9460593575952316,-0.6408789196611906
1539131639345716,-1.3733119707026162,0.5798428320745188,-0.5798428320745188
1539131639361722,-1.3733119707026162,0.6408789196611906,-0.5188067444876197
1539131639377728,-1.3122758831159445,1.0681315327688026,-0.3967345693140487
1539131639393734,-1.1291676203554744,1.1902037079423735,-0.15259021896690683
1539131639409740,-0.9460593575952316,1.2512397955290453,-0.03051804379333589
1539131639425746,-0.6408789196611906,1.3122758831159445,0.03051804379333589
1539131639441752,-0.3967345693140487,1.4343480582895154,0.15259021896690683
1539131639457758,-0.09155413138023505,1.5564202334630863,0.2746623941404778
1539131639473764,0.09155413138023505,1.3733119707026162,0.33569848172737693
1539131639489770,0.2746623941404778,1.1291676203554744,0.3967345693140487
1539131639505776,0.45777065690094787,0.9460593575952316,0.3967345693140487
1539131639521782,0.5798428320745188,0.8850232700083325,0.45777065690094787
1539131639537788,0.7019150072480898,0.8239871824216607,0.45777065690094787
1539131639553794,0.8239871824216607,0.8850232700083325,0.5188067444876197
1539131639569800,0.8850232700083325,0.8850232700083325,0.45777065690094787
1539131639585846,0.8239871824216607,0.8239871824216607,0.33569848172737693
1539131639601852,0.8850232700083325,0.8239871824216607,0.15259021896690683
1539131639617859,0.8239871824216607,0.7019150072480898,-0.09155413138023505
1539131639633865,0.7629510948347615,0.7019150072480898,-0.2746623941404778
1539131639649871,0.6408789196611906,0.8850232700083325,-0.5188067444876197
1539131639665878,0.45777065690094787,1.0681315327688026,-0.6408789196611906
1539131639681884,0.2746623941404778,1.0681315327688026,-0.8239871824216607
1539131639697891,0.03051804379333589,1.1291676203554744,-0.9460593575952316
1539131639713897,-0.09155413138023505,1.1902037079423735,-1.0681315327688026
1539131639729904,-0.33569848172737693,1.0681315327688026,-1.1291676203554744
1539131639745910,-0.5188067444876197,1.0070954451819034,-1.1291676203554744
1539131639761917,-0.7019150072480898,1.0070954451819034,-1.1902037079423735
1539131639777923,-0.6408789196611906,0.9460593575952316,-1.0681315327688026
1539131639793930,-0.5798428320745188,1.0681315327688026,-0.8850232700083325
1539131639809936,-0.33569848172737693,1.3122758831159445,-0.5798428320745188
1539131639825943,-0.33569848172737693,1.3733119707026162,-0.2746623941404778
1539131639841949,-0.3967345693140487,1.1902037079423735,-0.213626306553806
1539131639857956,-0.45777065690094787,1.1902037079423735,-0.2746623941404778
1539131639873962,-0.5798428320745188,0.9460593575952316,-0.45777065690094787
1539131639889968,-0.5798428320745188,1.0070954451819034,-0.5188067444876197
1539131639906036,-0.5798428320745188,1.1902037079423735,-0.33569848172737693
1539131639922042,-0.5798428320745188,1.2512397955290453,-0.15259021896690683
1539131639938049,-0.45777065690094787,1.3122758831159445,-0.213626306553806
1539131639954055,-0.33569848172737693,1.3733119707026162,-0.15259021896690683
1539131639970062,-0.213626306553806,1.0070954451819034,-0.15259021896690683
1539131639986068,-0.213626306553806,0.9460593575952316,-0.2746623941404778
1539131640002075,-0.2746623941404778,0.7629510948347615,-0.2746623941404778
1539131640018081,-0.3967345693140487,1.0070954451819034,-0.2746623941404778
1539131640034088,-0.213626306553806,1.2512397955290453,-0.15259021896690683
1539131640050094,0.03051804379333589,1.3122758831159445,-0.03051804379333589
1539131640066101,0.33569848172737693,1.4953841458761872,0.09155413138023505
1539131640082107,0.45777065690094787,1.3122758831159445,0.15259021896690683
1539131640098114,0.5188067444876197,1.2512397955290453,0.15259021896690683
1539131640114120,0.5188067444876197,1.0070954451819034,0.03051804379333589
1539131640130127,0.45777065690094787,0.8239871824216607,-0.15259021896690683
1539131640146133,0.3967345693140487,0.5798428320745188,-0.33569848172737693
1539131640162140,0.213626306553806,0.7629510948347615,-0.33569848172737693
1539131640178146,0.09155413138023505,1.1902037079423735,-0.33569848172737693
1539131640194152,0.03051804379333589,1.5564202334630863,-0.2746623941404778
1539131640210159,-0.09155413138023505,1.6174563210497581,-0.33569848172737693
1539131640226226,-0.15259021896690683,1.4343480582895154,-0.45777065690094787
1539131640242233,-0.213626306553806,1.1291676203554744,-0.5798428320745188
1539131640258240,-0.3967345693140487,0.8850232700083325,-0.7019150072480898
1539131640274247,-0.3967345693140487,0.7629510948347615,-0.8239871824216607
1539131640290254,-0.5188067444876197,0.9460593575952316,-0.8850232700083325
1539131640306261,-0.5798428320745188,1.0681315327688026,-0.8850232700083325
1539131640322268,-0.7019150072480898,0.9460593575952316,-0.8239871824216607
1539131640338275,-0.6408789196611906,0.8239871824216607,-0.6408789196611906
1539131640354282,-0.5798428320745188,0.9460593575952316,-0.3967345693140487
1539131640370289,-0.33569848172737693,1.1291676203554744,-0.213626306553806
1539131640386296,0.03051804379333589,1.3122758831159445,0.03051804379333589
1539131640402303,0.3967345693140487,1.4343480582895154,0.33569848172737693
1539131640418310,0.5798428320745188,1.739528496223329,0.45777065690094787
1539131640434317,0.6408789196611906,1.739528496223329,0.45777065690094787
1539131640450324,0.5798428320745188,1.8005645838102282,0.33569848172737693
1539131640466331,0.3967345693140487,2.04470893415737,0.2746623941404778
1539131640482338,0.09155413138023505,2.227817196917613,0.03051804379333589
1539131640498345,-0.2746623941404778,1.9226367589837992,-0.213626306553806
1539131640514351,-0.6408789196611906,1.6784924086366573,-0.5188067444876197
1539131640530358,-0.8850232700083325,1.4953841458761872,-0.7019150072480898
1539131640546386,-1.0070954451819034,1.3122758831159445,-0.8239871824216607
1539131640562393,-1.0070954451819034,1.1902037079423735,-0.7019150072480898
1539131640578400,-0.8850232700083325,1.0070954451819034,-0.6408789196611906
1539131640594407,-0.7019150072480898,0.8239871824216607,-0.5188067444876197
1539131640610414,-0.45777065690094787,0.7019150072480898,-0.5798428320745188
1539131640626421,-0.33569848172737693,0.6408789196611906,-0.5798428320745188
1539131640642428,-0.15259021896690683,0.7019150072480898,-0.6408789196611906
1539131640658435,0.09155413138023505,0.8850232700083325,-0.6408789196611906
1539131640674442,0.33569848172737693,1.1291676203554744,-0.5798428320745188
1539131640690449,0.5188067444876197,1.3122758831159445,-0.45777065690094787
1539131640706456,0.8239871824216607,1.4953841458761872,-0.33569848172737693
1539131640722463,1.0070954451819034,1.6784924086366573,-0.213626306553806
1539131640738470,1.0681315327688026,1.5564202334630863,-0.2746623941404778
1539131640754477,1.0070954451819034,1.2512397955290453,-0.2746623941404778
1539131640770484,0.8850232700083325,0.9460593575952316,-0.3967345693140487
1539131640786491,0.7629510948347615,0.7019150072480898,-0.45777065690094787
1539131640802497,0.7019150072480898,0.7019150072480898,-0.3967345693140487
1539131640818504,0.45777065690094787,0.8850232700083325,-0.3967345693140487
1539131640834511,0.45777065690094787,1.0681315327688026,-0.2746623941404778
1539131640850518,0.33569848172737693,1.2512397955290453,-0.15259021896690683
1539131640866577,0.2746623941404778,1.1902037079423735,-0.15259021896690683
1539131640882584,0.213626306553806,1.3122758831159445,-0.213626306553806
1539131640898591,0.09155413138023505,1.3122758831159445,-0.2746623941404778
1539131640914598,-0.03051804379333589,1.0681315327688026,-0.33569848172737693
1539131640930605,-0.09155413138023505,1.0070954451819034,-0.3967345693140487
1539131640946612,-0.03051804379333589,1.0070954451819034,-0.33569848172737693
1539131640962618,0.03051804379333589,1.1291676203554744,-0.2746623941404778
1539131640978625,0.09155413138023505,1.4953841458761872,-0.09155413138023505
1539131640994632,0.03051804379333589,1.8005645838102282,0.03051804379333589
1539131641010639,-0.09155413138023505,1.5564202334630863,0.09155413138023505
1539131641026646,-0.15259021896690683,1.0681315327688026,0.09155413138023505
1539131641042653,-0.33569848172737693,0.8239871824216607,-0.03051804379333589
1539131641058660,-0.45777065690094787,0.7019150072480898,-0.2746623941404778
1539131641074667,-0.5798428320745188,0.7629510948347615,-0.3967345693140487
1539131641090674,-0.5188067444876197,0.8850232700083325,-0.5188067444876197
1539131641106681,-0.5188067444876197,1.0070954451819034,-0.6408789196611906
1539131641122688,-0.33569848172737693,1.2512397955290453,-0.6408789196611906
1539131641138695,-0.09155413138023505,1.4343480582895154,-0.5798428320745188
1539131641154702,0.15259021896690683,1.5564202334630863,-0.45777065690094787
1539131641170709,0.33569848172737693,1.5564202334630863,-0.3967345693140487
1539131641186767,0.45777065690094787,1.3733119707026162,-0.3967345693140487
1539131641202775,0.45777065690094787,1.1291676203554744,-0.33569848172737693
1539131641218782,0.5188067444876197,0.8850232700083325,-0.2746623941404778
1539131641234789,0.5798428320745188,0.8850232700083325,-0.2746623941404778
1539131641250797,0.5798428320745188,1.0070954451819034,-0.2746623941404778
1539131641266804,0.5188067444876197,1.2512397955290453,-0.213626306553806
1539131641282812,0.5188067444876197,1.3733119707026162,-0.15259021896690683
1539131641298819,0.5188067444876197,1.1902037079423735,-0.15259021896690683
1539131641314827,0.5188067444876197,1.0070954451819034,-0.15259021896690683
1539131641330834,0.5188067444876197,0.8850232700083325,-0.213626306553806
1539131641346841,0.45777065690094787,0.7019150072480898,-0.213626306553806
1539131641362849,0.3967345693140487,0.6408789196611906,-0.2746623941404778
1539131641378856,0.33569848172737693,0.8239871824216607,-0.2746623941404778
1539131641394864,0.15259021896690683,1.0681315327688026,-0.45777065690094787
1539131641410871,-0.03051804379333589,1.2512397955290453,-0.45777065690094787
1539131641426879,-0.213626306553806,1.2512397955290453,-0.5188067444876197
1539131641442886,-0.33569848172737693,1.2512397955290453,-0.5798428320745188
1539131641458893,-0.3967345693140487,1.3122758831159445,-0.5798428320745188
1539131641474901,-0.45777065690094787,1.3733119707026162,-0.5188067444876197
1539131641490908,-0.45777065690094787,1.4343480582895154,-0.5188067444876197
1539131641506897,-0.5188067444876197,1.3733119707026162,-0.45777065690094787
1539131641522904,-0.33569848172737693,1.1902037079423735,-0.33569848172737693
1539131641538911,-0.213626306553806,1.1291676203554744,-0.09155413138023505
1539131641554919,-0.03051804379333589,1.2512397955290453,0.15259021896690683
1539131641570926,0.03051804379333589,1.3122758831159445,0.3967345693140487
1539131641586934,-0.03051804379333589,1.2512397955290453,0.5798428320745188
1539131641602941,-0.15259021896690683,0.9460593575952316,0.5188067444876197
1539131641618949,-0.2746623941404778,0.7629510948347615,0.2746623941404778
1539131641634956,-0.33569848172737693,0.6408789196611906,0.03051804379333589
1539131641650963,-0.45777065690094787,0.7629510948347615,-0.213626306553806
1539131641666971,-0.45777065690094787,1.0681315327688026,-0.33569848172737693
1539131641682978,-0.3967345693140487,1.3733119707026162,-0.5188067444876197
1539131641698986,-0.2746623941404778,1.4953841458761872,-0.7019150072480898
1539131641714993,-0.213626306553806,1.3733119707026162,-0.8850232700083325
1539131641731001,-0.09155413138023505,1.2512397955290453,-0.8850232700083325
1539131641747008,-0.03051804379333589,1.3733119707026162,-0.8850232700083325
1539131641763015,-0.03051804379333589,1.5564202334630863,-0.8239871824216607
1539131641779023,0.03051804379333589,1.6784924086366573,-0.7019150072480898
1539131641795030,0.09155413138023505,1.1291676203554744,-0.6408789196611906
1539131641811038,0.09155413138023505,0.9460593575952316,-0.7019150072480898
1539131641827087,0.15259021896690683,1.2512397955290453,-0.5798428320745188
1539131641843094,0.33569848172737693,1.5564202334630863,-0.33569848172737693
1539131641859102,0.3967345693140487,1.4953841458761872,-0.15259021896690683
1539131641875109,0.45777065690094787,1.3122758831159445,-0.09155413138023505
1539131641891117,0.5188067444876197,1.0681315327688026,-0.09155413138023505
1539131641907124,0.5798428320745188,0.8239871824216607,-0.15259021896690683
1539131641923132,0.5188067444876197,0.8239871824216607,-0.213626306553806
1539131641939139,0.5188067444876197,0.7629510948347615,-0.213626306553806
1539131641955146,0.5188067444876197,0.8850232700083325,-0.213626306553806
1539131641971154,0.3967345693140487,0.9460593575952316,-0.213626306553806
1539131641987161,0.3967345693140487,1.0681315327688026,-0.213626306553806
1539131642003169,0.2746623941404778,1.1291676203554744,-0.2746623941404778
1539131642019176,0.213626306553806,1.3122758831159445,-0.3967345693140487
1539131642035184,0.15259021896690683,1.5564202334630863,-0.3967345693140487
1539131642051191,0.09155413138023505,1.6174563210497581,-0.45777065690094787
1539131642067198,0.15259021896690683,1.3733119707026162,-0.3967345693140487
1539131642083206,0.15259021896690683,1.1902037079423735,-0.45777065690094787
1539131642099213,0.03051804379333589,1.0681315327688026,-0.3967345693140487
1539131642115221,-0.09155413138023505,1.0681315327688026,-0.3967345693140487
1539131642131228,-0.15259021896690683,1.0070954451819034,-0.33569848172737693
1539131642147247,-0.213626306553806,0.8239871824216607,-0.2746623941404778
1539131642163254,-0.213626306553806,0.8239871824216607,-0.2746623941404778
1539131642179262,-0.15259021896690683,0.9460593575952316,-0.09155413138023505
1539131642195269,-0.03051804379333589,1.0681315327688026,-0.03051804379333589
1539131642211277,0.03051804379333589,1.0070954451819034,-0.03051804379333589
1539131642227284,0.09155413138023505,1.0681315327688026,0.03051804379333589
1539131642243291,0.15259021896690683,0.8850232700083325,-0.09155413138023505
1539131642259299,0.09155413138023505,0.7629510948347615,-0.2746623941404778
1539131642275306,0.03051804379333589,0.7019150072480898,-0.5188067444876197
1539131642291314,-0.03051804379333589,1.0681315327688026,-0.7019150072480898
1539131642307321,-0.09155413138023505,1.5564202334630863,-0.7629510948347615
1539131642323329,-0.09155413138023505,1.8616006713969,-0.8239871824216607
1539131642339336,-0.213626306553806,1.6784924086366573,-0.8850232700083325
1539131642355343,-0.213626306553806,1.4343480582895154,-0.8850232700083325
1539131642371351,-0.2746623941404778,1.3733119707026162,-0.8850232700083325
1539131642387358,-0.3967345693140487,1.2512397955290453,-0.7629510948347615
1539131642403366,-0.45777065690094787,1.0681315327688026,-0.6408789196611906
1539131642419373,-0.45777065690094787,0.9460593575952316,-0.6408789196611906
1539131642435381,-0.3967345693140487,0.9460593575952316,-0.45777065690094787
1539131642451388,-0.213626306553806,1.0681315327688026,-0.3967345693140487
1539131642467437,-0.09155413138023505,1.3733119707026162,-0.2746623941404778
1539131642483445,0.09155413138023505,1.4953841458761872,-0.15259021896690683
1539131642499452,0.2746623941404778,1.3733119707026162,0.09155413138023505
1539131642515460,0.3967345693140487,1.1291676203554744,0.09155413138023505
1539131642531467,0.45777065690094787,1.0070954451819034,0.09155413138023505
1539131642547474,0.45777065690094787,0.8850232700083325,0.15259021896690683
1539131642563482,0.33569848172737693,0.8239871824216607,0.15259021896690683
1539131642579489,0.2746623941404778,0.8239871824216607,0.213626306553806
1539131642595497,0.213626306553806,1.0070954451819034,0.2746623941404778
1539131642611504,0.15259021896690683,1.1902037079423735,0.2746623941404778
1539131642627512,0.15259021896690683,1.1902037079423735,0.213626306553806
1539131642643519,0.15259021896690683,1.1291676203554744,0.09155413138023505
1539131642659526,0.09155413138023505,0.9460593575952316,-0.03051804379333589
1539131642675534,0.03051804379333589,0.7019150072480898,-0.213626306553806
1539131642691541,0.03051804379333589,0.6408789196611906,-0.33569848172737693
1539131642707549,-0.03051804379333589,0.7629510948347615,-0.45777065690094787
1539131642723556,-0.09155413138023505,1.0681315327688026,-0.5798428320745188
1539131642739564,-0.213626306553806,1.2512397955290453,-0.7019150072480898
1539131642755571,-0.33569848172737693,1.3122758831159445,-0.7629510948347615
1539131642771578,-0.33569848172737693,1.3122758831159445,-0.8239871824216607
1539131642787628,-0.2746623941404778,1.1291676203554744,-0.6408789196611906
1539131642803636,-0.15259021896690683,1.0070954451819034,-0.45777065690094787
1539131642819644,0.09155413138023505,1.1291676203554744,-0.2746623941404778
1539131642835651,0.213626306553806,1.1902037079423735,-0.09155413138023505
1539131642851659,0.213626306553806,1.0681315327688026,-0.03051804379333589
1539131642867667,0.09155413138023505,1.0070954451819034,-0.09155413138023505
1539131642883675,0.03051804379333589,1.0681315327688026,-0.15259021896690683
1539131642899683,-0.09155413138023505,1.1902037079423735,-0.2746623941404778
1539131642915691,-0.09155413138023505,1.3733119707026162,-0.3967345693140487
1539131642931699,-0.09155413138023505,1.5564202334630863,-0.45777065690094787
1539131642947707,-0.03051804379333589,1.6174563210497581,-0.5798428320745188
1539131642963715,0.03051804379333589,1.3733119707026162,-0.6408789196611906
1539131642979723,0.15259021896690683,1.2512397955290453,-0.5188067444876197
1539131642995731,0.15259021896690683,1.1902037079423735,-0.5798428320745188
1539131643011738,0.03051804379333589,1.2512397955290453,-0.45777065690094787
1539131643027746,-0.09155413138023505,1.1902037079423735,-0.45777065690094787
1539131643043754,-0.09155413138023505,1.0070954451819034,-0.45777065690094787
1539131643059762,-0.03051804379333589,0.9460593575952316,-0.45777065690094787
1539131643075770,0.09155413138023505,1.0681315327688026,-0.33569848172737693
1539131643091778,0.2746623941404778,1.2512397955290453,-0.2746623941404778
1539131643107788,0.33569848172737693,1.3122758831159445,-0.15259021896690683
1539131643123796,0.3967345693140487,1.1902037079423735,-0.15259021896690683
1539131643139804,0.5188067444876197,0.9460593575952316,-0.213626306553806
1539131643155811,0.5798428320745188,0.8239871824216607,-0.33569848172737693
1539131643171819,0.5798428320745188,0.8239871824216607,-0.3967345693140487
1539131643187827,0.5798428320745188,1.0070954451819034,-0.33569848172737693
1539131643203835,0.5798428320745188,1.3122758831159445,-0.2746623941404778
1539131643219843,0.45777065690094787,1.3733119707026162,-0.2746623941404778
1539131643235851,0.33569848172737693,1.1902037079423735,-0.213626306553806
1539131643251859,0.33569848172737693,1.0070954451819034,-0.2746623941404778
1539131643267867,0.213626306553806,0.9460593575952316,-0.15259021896690683
1539131643283875,0.15259021896690683,1.0681315327688026,-0.03051804379333589
1539131643299883,0.15259021896690683,1.2512397955290453,-0.09155413138023505
1539131643315890,0.03051804379333589,1.3122758831159445,-0.15259021896690683
1539131643331898,-0.03051804379333589,1.3122758831159445,-0.33569848172737693
1539131643347906,-0.15259021896690683,1.3122758831159445,-0.45777065690094787
1539131643363914,-0.213626306553806,1.3733119707026162,-0.45777065690094787
1539131643379922,-0.15259021896690683,1.4343480582895154,-0.3967345693140487
1539131643395930,-0.09155413138023505,1.4343480582895154,-0.15259021896690683
1539131643411938,-0.03051804379333589,1.4343480582895154,0.03051804379333589
1539131643427978,0.03051804379333589,1.3733119707026162,0.09155413138023505
1539131643443986,-0.03051804379333589,1.1902037079423735,0.09155413138023505
1539131643459994,-0.15259021896690683,1.0070954451819034,0.03051804379333589
1539131643476002,-0.33569848172737693,0.8850232700083325,-0.213626306553806
1539131643492010,-0.45777065690094787,1.0070954451819034,-0.3967345693140487
1539131643508018,-0.6408789196611906,1.0681315327688026,-0.6408789196611906
1539131643524026,-0.7019150072480898,1.1902037079423735,-0.7629510948347615
1539131643540033,-0.7019150072480898,1.3122758831159445,-0.8850232700083325
1539131643556041,-0.6408789196611906,1.4343480582895154,-0.8850232700083325
1539131643572049,-0.5188067444876197,1.3733119707026162,-0.8850232700083325
1539131643588057,-0.33569848172737693,1.3122758831159445,-0.7629510948347615
1539131643604065,-0.15259021896690683,1.1902037079423735,-0.6408789196611906
1539131643620073,-0.09155413138023505,1.1291676203554744,-0.5798428320745188
1539131643636081,-0.03051804379333589,0.9460593575952316,-0.45777065690094787
1539131643652089,0.03051804379333589,0.8239871824216607,-0.3967345693140487
1539131643668097,0.213626306553806,0.8239871824216607,-0.2746623941404778
1539131643684105,0.33569848172737693,1.0681315327688026,-0.09155413138023505
1539131643700112,0.45777065690094787,1.3122758831159445,0.03051804379333589
1539131643716120,0.5798428320745188,1.3122758831159445,0.15259021896690683
1539131643732128,0.7019150072480898,1.1291676203554744,0.03051804379333589
1539131643748169,0.7019150072480898,0.9460593575952316,-0.03051804379333589
1539131643764176,0.6408789196611906,0.9460593575952316,0.03051804379333589
1539131643780184,0.6408789196611906,1.0681315327688026,-0.03051804379333589
1539131643796192,0.5798428320745188,1.1902037079423735,-0.03051804379333589
1539131643812200,0.5798428320745188,1.2512397955290453,-0.03051804379333589
1539131643828208,0.3967345693140487,1.0681315327688026,-0.09155413138023505
1539131643844216,0.33569848172737693,0.8239871824216607,-0.2746623941404778
1539131643860224,0.09155413138023505,0.5798428320745188,-0.3967345693140487
1539131643876232,-0.09155413138023505,0.6408789196611906,-0.3967345693140487
1539131643892240,-0.3967345693140487,0.7019150072480898,-0.33569848172737693
1539131643908248,-0.6408789196611906,0.7629510948347615,-0.33569848172737693
1539131643924255,-0.7629510948347615,0.8850232700083325,-0.33569848172737693
1539131643940263,-0.7629510948347615,0.8850232700083325,-0.45777065690094787
1539131643956271,-0.7019150072480898,1.0070954451819034,-0.5188067444876197
1539131643972279,-0.7019150072480898,1.0070954451819034,-0.5798428320745188
1539131643988287,-0.6408789196611906,1.2512397955290453,-0.5188067444876197
1539131644004295,-0.45777065690094787,1.4343480582895154,-0.45777065690094787
1539131644020303,-0.3967345693140487,1.4953841458761872,-0.45777065690094787
1539131644036311,-0.2746623941404778,1.3122758831159445,-0.5188067444876197
1539131644052319,-0.15259021896690683,1.0070954451819034,-0.5798428320745188
1539131644068328,-0.03051804379333589,0.9460593575952316,-0.6408789196611906
1539131644084336,0.03051804379333589,1.0070954451819034,-0.6408789196611906
1539131644100344,0.03051804379333589,1.0070954451819034,-0.7019150072480898
1539131644116352,0.09155413138023505,1.1291676203554744,-0.7019150072480898
1539131644132360,0.09155413138023505,1.1902037079423735,-0.7629510948347615
1539131644148368,0.03051804379333589,1.4343480582895154,-0.8239871824216607
1539131644164376,-0.09155413138023505,1.5564202334630863,-0.8850232700083325
1539131644180384,-0.03051804379333589,1.5564202334630863,-0.8850232700083325
1539131644196392,0.03051804379333589,1.3122758831159445,-0.8239871824216607
1539131644212400,0.03051804379333589,1.1291676203554744,-0.6408789196611906
1539131644228407,0.03051804379333589,1.0070954451819034,-0.5798428320745188
1539131644244415,0.03051804379333589,0.9460593575952316,-0.5188067444876197
1539131644260423,0.03051804379333589,0.8239871824216607,-0.5188067444876197
1539131644276431,0.03051804379333589,0.7019150072480898,-0.5188067444876197
1539131644292439,0.03051804379333589,0.7019150072480898,-0.45777065690094787
1539131644308447,0.03051804379333589,0.8850232700083325,-0.3967345693140487
1539131644324455,0.15259021896690683,1.0681315327688026,-0.15259021896690683
1539131644340463,0.2746623941404778,1.1902037079423735,-0.09155413138023505
1539131644356471,0.3967345693140487,1.1902037079423735,-0.03051804379333589
1539131644372479,0.3967345693140487,1.1291676203554744,0.03051804379333589
1539131644388488,0.2746623941404778,1.0681315327688026,0.03051804379333589
1539131644404496,0.15259021896690683,1.0681315327688026,-0.03051804379333589
1539131644420504,0.03051804379333589,1.3122758831159445,-0.03051804379333589
1539131644436512,-0.09155413138023505,1.6174563210497581,-0.09155413138023505
1539131644452520,-0.15259021896690683,1.8005645838102282,-0.2746623941404778
1539131644468528,-0.15259021896690683,1.8616006713969,-0.33569848172737693
1539131644484536,-0.09155413138023505,1.6784924086366573,-0.45777065690094787
1539131644500544,-0.09155413138023505,1.6174563210497581,-0.5798428320745188
1539131644516552,-0.09155413138023505,1.4953841458761872,-0.5798428320745188
1539131644532559,-0.09155413138023505,1.2512397955290453,-0.5798428320745188
1539131644548567,-0.15259021896690683,1.1291676203554744,-0.5188067444876197
1539131644564575,-0.33569848172737693,1.1291676203554744,-0.6408789196611906
1539131644580583,-0.45777065690094787,1.0070954451819034,-0.5188067444876197
1539131644596591,-0.45777065690094787,0.8850232700083325,-0.5798428320745188
1539131644612599,-0.33569848172737693,1.0070954451819034,-0.45777065690094787
1539131644628607,-0.2746623941404778,1.1291676203554744,-0.2746623941404778
1539131644644615,-0.15259021896690683,1.2512397955290453,-0.09155413138023505
1539131644660623,0.15259021896690683,1.1291676203554744,-0.03051804379333589
1539131644676631,0.2746623941404778,0.8850232700083325,-0.03051804379333589
1539131644692638,0.5188067444876197,0.7629510948347615,-0.09155413138023505
1539131644708679,0.5798428320745188,0.7629510948347615,-0.2746623941404778
1539131644724687,0.5798428320745188,0.9460593575952316,-0.45777065690094787
1539131644740695,0.5798428320745188,1.1902037079423735,-0.5798428320745188
1539131644756703,0.5798428320745188,1.4343480582895154,-0.8239871824216607
1539131644772710,0.5188067444876197,1.4953841458761872,-1.0070954451819034
1539131644788718,0.5798428320745188,1.3733119707026162,-1.1291676203554744
1539131644804726,0.5798428320745188,1.3122758831159445,-1.0681315327688026
1539131644820734,0.45777065690094787,1.4343480582895154,-0.9460593575952316
1539131644836742,0.2746623941404778,1.3122758831159445,-0.7629510948347615
1539131644852750,0.09155413138023505,1.0070954451819034,-0.6408789196611906
1539131644868758,-0.03051804379333589,0.8850232700083325,-0.45777065690094787
1539131644884766,-0.09155413138023505,0.8850232700083325,-0.3967345693140487
1539131644900774,-0.15259021896690683,1.0070954451819034,-0.15259021896690683
1539131644916782,-0.15259021896690683,1.1902037079423735,-0.03051804379333589
1539131644932789,-0.15259021896690683,1.4343480582895154,0.03051804379333589
1539131644948797,-0.15259021896690683,1.6784924086366573,0.03051804379333589
1539131644964805,0.03051804379333589,1.6174563210497581,-0.03051804379333589
1539131644980813,0.15259021896690683,1.2512397955290453,-0.03051804379333589
1539131644996821,0.2746623941404778,1.1291676203554744,0.03051804379333589
1539131645012829,0.2746623941404778,1.1291676203554744,0.09155413138023505
1539131645028839,0.2746623941404778,1.3122758831159445,0.09155413138023505
1539131645044847,0.2746623941404778,1.3122758831159445,0.09155413138023505
1539131645060855,0.213626306553806,1.3733119707026162,-0.213626306553806
1539131645076862,0.09155413138023505,1.5564202334630863,-0.3967345693140487
1539131645092870,0.15259021896690683,1.6784924086366573,-0.5798428320745188
1539131645108878,0.3967345693140487,1.6174563210497581,-0.5798428320745188
1539131645124886,0.7019150072480898,1.4343480582895154,-0.5188067444876197
1539131645140894,0.8850232700083325,1.2512397955290453,-0.3967345693140487
1539131645156902,1.0681315327688026,0.9460593575952316,-0.33569848172737693
1539131645172910,1.0681315327688026,0.5798428320745188,-0.2746623941404778
1539131645188918,1.0070954451819034,0.2746623941404778,-0.2746623941404778
1539131645204926,0.7629510948347615,0.15259021896690683,-0.33569848172737693
1539131645220934,0.5188067444876197,0.45777065690094787,-0.3967345693140487
1539131645236941,0.213626306553806,0.8239871824216607,-0.45777065690094787
1539131645252949,-0.09155413138023505,1.1291676203554744,-0.5798428320745188
1539131645268957,-0.33569848172737693,1.1902037079423735,-0.7019150072480898
1539131645284965,-0.5798428320745188,0.9460593575952316,-0.7019150072480898
1539131645300973,-0.7629510948347615,0.6408789196611906,-0.5798428320745188
1539131645316981,-0.7629510948347615,0.5798428320745188,-0.45777065690094787
1539131645332989,-0.8850232700083325,0.8239871824216607,-0.2746623941404778
1539131645349029,-0.9460593575952316,0.8850232700083325,-0.15259021896690683
1539131645365038,-0.9460593575952316,0.8850232700083325,-0.09155413138023505
1539131645381046,-1.0070954451819034,1.0070954451819034,-0.213626306553806
1539131645397054,-0.9460593575952316,1.0681315327688026,-0.213626306553806
1539131645413063,-1.0070954451819034,1.3733119707026162,-0.213626306553806
1539131645429071,-1.0070954451819034,1.8005645838102282,-0.2746623941404778
1539131645445079,-1.0070954451819034,1.9226367589837992,-0.33569848172737693
1539131645461088,-1.0070954451819034,1.6174563210497581,-0.45777065690094787
1539131645477096,-0.9460593575952316,0.3967345693140487,-0.7019150072480898
1539131645493105,-0.7019150072480898,0.2746623941404778,-0.6408789196611906
1539131645509113,-0.7629510948347615,0.33569848172737693,-0.5798428320745188
1539131645525121,-0.5798428320745188,0.8850232700083325,-0.213626306553806
1539131645541130,-0.3967345693140487,1.1291676203554744,-0.03051804379333589
1539131645557138,-0.213626306553806,0.9460593575952316,-0.09155413138023505
1539131645573146,-0.03051804379333589,0.6408789196611906,-0.2746623941404778
1539131645589155,0.213626306553806,0.5798428320745188,-0.45777065690094787
1539131645605163,0.5798428320745188,0.8850232700083325,-0.3967345693140487
1539131645621172,0.7629510948347615,1.0681315327688026,-0.33569848172737693
1539131645637180,0.8850232700083325,1.1291676203554744,-0.33569848172737693
1539131645653188,0.9460593575952316,0.9460593575952316,-0.45777065690094787
1539131645669220,1.0070954451819034,0.7019150072480898,-0.6408789196611906
1539131645685228,1.0070954451819034,0.7019150072480898,-0.7019150072480898
1539131645701236,0.8850232700083325,1.0681315327688026,-0.6408789196611906
1539131645717245,0.7019150072480898,1.3733119707026162,-0.5798428320745188
1539131645733253,0.5798428320745188,1.5564202334630863,-0.6408789196611906
1539131645749261,0.45777065690094787,1.3122758831159445,-0.6408789196611906
1539131645765270,0.33569848172737693,1.0070954451819034,-0.6408789196611906
1539131645781278,0.2746623941404778,0.8850232700083325,-0.7019150072480898
1539131645797287,0.213626306553806,1.1291676203554744,-0.6408789196611906
1539131645813295,0.09155413138023505,1.4343480582895154,-0.5188067444876197
1539131645829303,0.15259021896690683,1.4953841458761872,-0.5798428320745188
1539131645845312,0.09155413138023505,1.5564202334630863,-0.5188067444876197
1539131645861320,0.03051804379333589,1.4343480582895154,-0.5188067444876197
1539131645877328,-0.09155413138023505,1.3733119707026162,-0.45777065690094787
1539131645893337,-0.15259021896690683,1.2512397955290453,-0.3967345693140487
1539131645909345,-0.09155413138023505,1.1902037079423735,-0.33569848172737693
1539131645925354,0.03051804379333589,1.1291676203554744,-0.15259021896690683
1539131645941362,0.03051804379333589,1.1902037079423735,0.03051804379333589
1539131645957370,0.03051804379333589,1.3122758831159445,0.15259021896690683
1539131645973379,0.03051804379333589,1.3122758831159445,0.2746623941404778
1539131645989380,-0.03051804379333589,1.3122758831159445,0.3967345693140487
1539131646005388,-0.03051804379333589,1.2512397955290453,0.213626306553806
1539131646021396,-0.09155413138023505,1.0681315327688026,0.09155413138023505
1539131646037405,-0.213626306553806,1.0681315327688026,-0.15259021896690683
1539131646053413,-0.33569848172737693,1.1902037079423735,-0.45777065690094787
1539131646069421,-0.33569848172737693,1.2512397955290453,-0.7019150072480898
1539131646085430,-0.3967345693140487,1.3733119707026162,-0.8239871824216607
1539131646101438,-0.33569848172737693,1.4953841458761872,-0.8850232700083325
1539131646117447,-0.213626306553806,1.4953841458761872,-0.7629510948347615
1539131646133455,-0.213626306553806,1.4953841458761872,-0.7019150072480898
1539131646149463,-0.213626306553806,1.5564202334630863,-0.6408789196611906
1539131646165472,-0.15259021896690683,1.3122758831159445,-0.6408789196611906
1539131646181480,-0.213626306553806,0.9460593575952316,-0.8239871824216607
1539131646197488,-0.15259021896690683,0.8239871824216607,-0.8239871824216607
1539131646213497,-0.09155413138023505,0.8850232700083325,-0.7629510948347615
1539131646229505,-0.09155413138023505,0.9460593575952316,-0.6408789196611906
1539131646245514,0.03051804379333589,1.0681315327688026,-0.5188067444876197
1539131646261522,0.09155413138023505,0.9460593575952316,-0.3967345693140487
1539131646277530,0.15259021896690683,0.9460593575952316,-0.33569848172737693
1539131646293539,0.2746623941404778,1.0681315327688026,-0.2746623941404778
1539131646309570,0.3967345693140487,1.1291676203554744,-0.15259021896690683
1539131646325578,0.45777065690094787,1.2512397955290453,-0.09155413138023505
1539131646341587,0.5798428320745188,1.3122758831159445,-0.09155413138023505
1539131646357595,0.5798428320745188,1.2512397955290453,-0.03051804379333589
1539131646373603,0.5798428320745188,1.1902037079423735,-0.03051804379333589
1539131646389612,0.3967345693140487,1.2512397955290453,-0.03051804379333589
1539131646405620,0.33569848172737693,1.3733119707026162,0.03051804379333589
1539131646421629,0.2746623941404778,1.4343480582895154,0.09155413138023505
1539131646437637,0.15259021896690683,1.3733119707026162,0.03051804379333589
1539131646453645,0.03051804379333589,1.1902037079423735,-0.03051804379333589
1539131646469654,-0.15259021896690683,1.0681315327688026,-0.09155413138023505
1539131646485662,-0.33569848172737693,0.9460593575952316,-0.2746623941404778
1539131646501670,-0.5188067444876197,0.8239871824216607,-0.5188067444876197
1539131646517679,-0.5188067444876197,0.8239871824216607,-0.5798428320745188
1539131646533687,-0.33569848172737693,0.9460593575952316,-0.6408789196611906
1539131646549696,-0.213626306553806,1.2512397955290453,-0.5798428320745188
1539131646565704,-0.09155413138023505,1.5564202334630863,-0.3967345693140487
1539131646581712,0.03051804379333589,1.5564202334630863,-0.2746623941404778
1539131646597721,0.03051804379333589,1.2512397955290453,-0.213626306553806
1539131646613729,0.03051804379333589,1.0070954451819034,-0.213626306553806
1539131646629760,-0.09155413138023505,0.8239871824216607,-0.33569848172737693
1539131646645769,-0.213626306553806,0.8239871824216607,-0.45777065690094787
1539131646661777,-0.2746623941404778,0.8239871824216607,-0.5798428320745188
1539131646677785,-0.2746623941404778,1.0070954451819034,-0.7019150072480898
1539131646693794,-0.2746623941404778,1.2512397955290453,-0.7629510948347615
1539131646709802,-0.15259021896690683,1.3733119707026162,-0.7629510948347615
1539131646725811,-0.09155413138023505,1.3733119707026162,-0.6408789196611906
1539131646741819,0.09155413138023505,1.2512397955290453,-0.5188067444876197
1539131646757827,0.213626306553806,1.1902037079423735,-0.3967345693140487
1539131646773836,0.2746623941404778,1.1291676203554744,-0.2746623941404778
1539131646789844,0.33569848172737693,1.0070954451819034,-0.2746623941404778
1539131646805853,0.2746623941404778,0.8850232700083325,-0.33569848172737693
1539131646821861,0.33569848172737693,0.8850232700083325,-0.2746623941404778
1539131646837869,0.33569848172737693,1.0070954451819034,-0.213626306553806
1539131646853878,0.45777065690094787,1.1902037079423735,-0.15259021896690683
1539131646869886,0.5188067444876197,1.4343480582895154,-0.09155413138023505
1539131646885894,0.3967345693140487,1.3122758831159445,-0.15259021896690683
1539131646901903,0.2746623941404778,1.3733119707026162,-0.2746623941404778
1539131646917911,0.09155413138023505,1.2512397955290453,-0.45777065690094787
1539131646933920,-0.03051804379333589,1.0681315327688026,-0.5188067444876197
1539131646949920,0.03051804379333589,1.0070954451819034,-0.45777065690094787
1539131646965929,-0.03051804379333589,1.1902037079423735,-0.33569848172737693
1539131646981937,-0.15259021896690683,1.3122758831159445,-0.213626306553806
1539131646997945,-0.15259021896690683,1.3122758831159445,-0.15259021896690683
1539131647013954,-0.15259021896690683,1.2512397955290453,-0.15259021896690683
1539131647029962,-0.09155413138023505,1.1291676203554744,-0.15259021896690683
1539131647045971,0.09155413138023505,1.0681315327688026,-0.15259021896690683
1539131647061979,0.03051804379333589,1.1291676203554744,-0.2746623941404778
1539131647077987,0.09155413138023505,1.1902037079423735,-0.33569848172737693
1539131647093996,0.15259021896690683,1.2512397955290453,-0.3967345693140487
1539131647110004,0.213626306553806,1.1902037079423735,-0.5188067444876197
1539131647126012,0.213626306553806,1.1902037079423735,-0.5798428320745188
1539131647142021,0.15259021896690683,1.4343480582895154,-0.5188067444876197
1539131647158029,0.09155413138023505,1.5564202334630863,-0.45777065690094787
1539131647174038,0.15259021896690683,1.4953841458761872,-0.33569848172737693
1539131647190046,0.213626306553806,1.3122758831159445,-0.09155413138023505
1539131647206054,0.213626306553806,1.1902037079423735,0.03051804379333589
1539131647222063,0.09155413138023505,0.8850232700083325,0.09155413138023505
1539131647238071,-0.03051804379333589,0.7629510948347615,0.09155413138023505
1539131647254079,-0.15259021896690683,0.8239871824216607,-0.09155413138023505
1539131647270111,-0.45777065690094787,0.8239871824216607,-0.33569848172737693
1539131647286119,-0.5798428320745188,1.0070954451819034,-0.7019150072480898
1539131647302127,-0.7019150072480898,1.3122758831159445,-0.9460593575952316
1539131647318136,-0.7629510948347615,1.4953841458761872,-1.0681315327688026
1539131647334144,-0.6408789196611906,1.6174563210497581,-1.1902037079423735
1539131647350153,-0.5798428320745188,1.4953841458761872,-1.1291676203554744
1539131647366161,-0.45777065690094787,1.2512397955290453,-1.1291676203554744
1539131647382169,-0.45777065690094787,1.1291676203554744,-1.0070954451819034
1539131647398178,-0.3967345693140487,1.1291676203554744,-0.8239871824216607
1539131647414186,-0.3967345693140487,1.0070954451819034,-0.7019150072480898
1539131647430194,-0.3967345693140487,0.8850232700083325,-0.45777065690094787
1539131647446203,-0.2746623941404778,1.0070954451819034,-0.33569848172737693
1539131647462211,-0.03051804379333589,0.9460593575952316,-0.15259021896690683
1539131647478220,0.213626306553806,1.0681315327688026,0.03051804379333589
1539131647494228,0.45777065690094787,1.1291676203554744,0.15259021896690683
1539131647510236,0.6408789196611906,1.0070954451819034,0.15259021896690683
1539131647526245,0.7629510948347615,0.8850232700083325,0.09155413138023505
1539131647542253,0.8239871824216607,0.8239871824216607,0.03051804379333589
1539131647558261,0.8850232700083325,0.8850232700083325,-0.03051804379333589
1539131647574270,0.7629510948347615,1.0681315327688026,-0.03051804379333589
1539131647590301,0.5798428320745188,1.1291676203554744,-0.09155413138023505
1539131647606310,0.3967345693140487,1.1902037079423735,-0.03051804379333589
1539131647622318,0.3967345693140487,1.2512397955290453,-0.15259021896690683
1539131647638326,0.15259021896690683,1.3122758831159445,-0.213626306553806
1539131647654335,0.03051804379333589,1.1902037079423735,-0.33569848172737693
1539131647670343,-0.15259021896690683,1.0681315327688026,-0.45777065690094787
1539131647686351,-0.15259021896690683,1.0070954451819034,-0.5188067444876197
1539131647702360,-0.213626306553806,1.0681315327688026,-0.5798428320745188
1539131647718368,-0.2746623941404778,1.1291676203554744,-0.6408789196611906
1539131647734377,-0.2746623941404778,1.2512397955290453,-0.6408789196611906
1539131647750385,-0.213626306553806,1.1902037079423735,-0.5798428320745188
1539131647766393,-0.213626306553806,1.2512397955290453,-0.5798428320745188
1539131647782402,-0.15259021896690683,1.3122758831159445,-0.5798428320745188
1539131647798410,-0.7629510948347615,4.058899824521177,-2.9602502479590385
1539131647814418,-1.5564202334630863,-10.040436408026153,-0.7019150072480898
1539131647830427,1.9226367589837992,3.570611123826893,-1.1291676203554744
1539131647846435,1.2512397955290453,-2.166781109330941,0.5798428320745188
1539131647862444,2.532997634851654,3.7537193865873633,2.3498893720911838
1539131647878452,1.9226367589837992,6.561379415579495,1.5564202334630863
1539131647894460,1.2512397955290453,3.0212863355459376,0.9460593575952316
1539131647910461,0.33569848172737693,0.3967345693140487,-0.03051804379333589
1539131647926469,-0.7019150072480898,-0.09155413138023505,-1.3733119707026162
1539131647942478,-1.4343480582895154,-0.3967345693140487,-2.3498893720911838
1539131647958486,-1.4343480582895154,0.6408789196611906,-2.166781109330941
1539131647974495,-1.0070954451819034,1.6174563210497581,-1.4953841458761872
1539131647990503,-1.0681315327688026,2.7771419851987957,-0.9460593575952316
1539131648006511,-1.3733119707026162,2.7771419851987957,-1.0070954451819034
1539131648022520,-1.739528496223329,1.8616006713969,-1.739528496223329
1539131648038528,-1.8616006713969,-0.15259021896690683,-2.227817196917613
1539131648054536,-1.6174563210497581,-0.9460593575952316,-2.04470893415737
1539131648070545,-1.1902037079423735,0.33569848172737693,-1.1902037079423735
1539131648086553,-1.0681315327688026,1.9226367589837992,-0.45777065690094787
1539131648102562,-0.7629510948347615,2.227817196917613,-0.09155413138023505
1539131648118570,-0.3967345693140487,1.4343480582895154,-0.09155413138023505
1539131648134578,-0.03051804379333589,0.7019150072480898,-0.15259021896690683
1539131648150587,0.2746623941404778,0.7629510948347615,0.09155413138023505
1539131648166595,0.5798428320745188,1.3122758831159445,0.45777065690094787
1539131648182603,0.8239871824216607,1.4343480582895154,0.7629510948347615
1539131648198612,1.0070954451819034,0.9460593575952316,0.7629510948347615
1539131648214620,1.0681315327688026,0.45777065690094787,0.6408789196611906
1539131648230651,1.1902037079423735,0.45777065690094787,0.6408789196611906
1539131648246660,1.1902037079423735,0.8239871824216607,0.7019150072480898
1539131648262668,1.1291676203554744,1.2512397955290453,0.8850232700083325
1539131648278677,1.1291676203554744,1.3733119707026162,0.8850232700083325
1539131648294685,1.0681315327688026,1.1291676203554744,0.5798428320745188
1539131648310693,1.0681315327688026,0.9460593575952316,0.2746623941404778
1539131648326702,0.8850232700083325,0.7629510948347615,-0.09155413138023505
1539131648342710,0.7019150072480898,0.8850232700083325,-0.45777065690094787
1539131648358718,0.45777065690094787,0.9460593575952316,-0.7629510948347615
1539131648374727,0.2746623941404778,1.0681315327688026,-0.9460593575952316
1539131648390735,0.09155413138023505,1.2512397955290453,-1.0681315327688026
1539131648406744,-0.03051804379333589,1.4953841458761872,-1.1291676203554744
1539131648422752,-0.15259021896690683,1.5564202334630863,-1.1291676203554744
1539131648438760,-0.2746623941404778,1.6174563210497581,-1.2512397955290453
1539131648454769,-0.33569848172737693,1.4343480582895154,-1.2512397955290453
1539131648470777,-0.33569848172737693,1.1291676203554744,-1.0681315327688026
1539131648486786,-0.3967345693140487,1.0070954451819034,-0.8239871824216607
1539131648502794,-0.2746623941404778,1.0681315327688026,-0.5188067444876197
1539131648518802,-0.2746623941404778,1.1902037079423735,-0.213626306553806
1539131648534811,-0.33569848172737693,1.1291676203554744,-0.03051804379333589
1539131648550842,-0.3967345693140487,1.1902037079423735,0.09155413138023505
1539131648566851,-0.45777065690094787,1.2512397955290453,0.03051804379333589
1539131648582860,-0.45777065690094787,1.3122758831159445,-0.03051804379333589
1539131648598868,-0.45777065690094787,1.2512397955290453,-0.03051804379333589
1539131648614877,-0.3967345693140487,1.1902037079423735,-0.15259021896690683
1539131648630886,-0.33569848172737693,1.1291676203554744,-0.2746623941404778
1539131648646895,-0.213626306553806,1.1902037079423735,-0.15259021896690683
1539131648662904,-0.09155413138023505,1.2512397955290453,-0.09155413138023505
1539131648678913,0.03051804379333589,1.1902037079423735,0.09155413138023505
1539131648694922,0.15259021896690683,1.2512397955290453,0.09155413138023505
1539131648710930,0.213626306553806,1.2512397955290453,-0.09155413138023505
1539131648726939,0.213626306553806,1.0070954451819034,-0.213626306553806
1539131648742948,0.213626306553806,0.7019150072480898,-0.3967345693140487
1539131648758957,0.33569848172737693,0.7629510948347615,-0.5188067444876197
1539131648774966,0.45777065690094787,1.1291676203554744,-0.45777065690094787
1539131648790975,0.5798428320745188,1.4343480582895154,-0.3967345693140487
1539131648806984,0.6408789196611906,1.3733119707026162,-0.33569848172737693
1539131648822992,0.5798428320745188,1.1291676203554744,-0.33569848172737693
1539131648839001,0.5188067444876197,0.9460593575952316,-0.45777065690094787
1539131648855010,0.33569848172737693,0.7629510948347615,-0.5798428320745188
1539131648871002,0.213626306553806,0.5188067444876197,-0.6408789196611906
1539131648887010,0.15259021896690683,0.5798428320745188,-0.5798428320745188
1539131648903019,0.09155413138023505,0.8850232700083325,-0.45777065690094787
1539131648919027,0.03051804379333589,1.1902037079423735,-0.3967345693140487
1539131648935035,0.09155413138023505,1.3733119707026162,-0.2746623941404778
1539131648951044,0.03051804379333589,1.3733119707026162,-0.15259021896690683
1539131648967052,0.09155413138023505,1.1291676203554744,-0.2746623941404778
1539131648983060,0.09155413138023505,0.9460593575952316,-0.2746623941404778
1539131648999069,0.213626306553806,0.9460593575952316,-0.213626306553806
1539131649015077,0.15259021896690683,1.0070954451819034,-0.15259021896690683
1539131649031086,0.213626306553806,1.0681315327688026,-0.09155413138023505
1539131649047094,0.213626306553806,1.2512397955290453,-0.09155413138023505
1539131649063102,0.03051804379333589,1.3733119707026162,-0.09155413138023505
1539131649079111,-0.03051804379333589,1.2512397955290453,-0.15259021896690683
1539131649095119,-0.09155413138023505,1.0681315327688026,-0.15259021896690683
1539131649111127,-0.09155413138023505,1.1902037079423735,-0.09155413138023505
1539131649127136,-0.03051804379333589,1.2512397955290453,-0.09155413138023505
1539131649143144,0.09155413138023505,1.3122758831159445,-0.15259021896690683
1539131649159153,0.03051804379333589,1.2512397955290453,-0.09155413138023505
1539131649175161,-0.09155413138023505,0.8850232700083325,-0.15259021896690683
1539131649191192,-0.15259021896690683,0.5798428320745188,-0.33569848172737693
1539131649207201,-0.2746623941404778,0.5798428320745188,-0.5188067444876197
1539131649223210,-0.3967345693140487,0.8239871824216607,-0.6408789196611906
1539131649239219,-0.5188067444876197,1.1902037079423735,-0.7629510948347615
1539131649255228,-0.5798428320745188,1.3733119707026162,-0.8850232700083325
1539131649271237,-0.45777065690094787,1.3733119707026162,-1.0070954451819034
1539131649287245,-0.33569848172737693,1.1902037079423735,-1.1291676203554744
1539131649303254,-0.213626306553806,1.0681315327688026,-1.1291676203554744
1539131649319263,-0.15259021896690683,1.0681315327688026,-0.9460593575952316
1539131649335272,-0.03051804379333589,1.0681315327688026,-0.7629510948347615
1539131649351281,0.03051804379333589,0.9460593575952316,-0.5798428320745188
1539131649367290,0.09155413138023505,1.0070954451819034,-0.45777065690094787
1539131649383298,0.15259021896690683,1.1902037079423735,-0.2746623941404778
1539131649399307,0.15259021896690683,1.3733119707026162,-0.03051804379333589
1539131649415316,0.213626306553806,1.4953841458761872,0.09155413138023505
1539131649431325,0.3967345693140487,1.4343480582895154,0.213626306553806
1539131649447334,0.6408789196611906,1.2512397955290453,0.33569848172737693
1539131649463343,0.7629510948347615,1.1291676203554744,0.33569848172737693
1539131649479352,0.8239871824216607,1.1291676203554744,0.33569848172737693
1539131649495360,0.8239871824216607,1.1291676203554744,0.213626306553806
1539131649511383,0.8239871824216607,1.0681315327688026,0.09155413138023505
1539131649527392,0.5798428320745188,1.0070954451819034,-0.09155413138023505
1539131649543400,0.3967345693140487,1.0070954451819034,-0.213626306553806
1539131649559409,0.15259021896690683,1.0681315327688026,-0.45777065690094787
1539131649575418,-0.03051804379333589,1.2512397955290453,-0.5798428320745188
1539131649591427,-0.213626306553806,1.2512397955290453,-0.5798428320745188
1539131649607436,-0.33569848172737693,1.0681315327688026,-0.5798428320745188
1539131649623445,-0.3967345693140487,0.9460593575952316,-0.6408789196611906
1539131649639454,-0.45777065690094787,0.8239871824216607,-0.6408789196611906
1539131649655462,-0.33569848172737693,0.7629510948347615,-0.6408789196611906
1539131649671471,-0.2746623941404778,0.8239871824216607,-0.5798428320745188
1539131649687480,-0.09155413138023505,0.8239871824216607,-0.5188067444876197
1539131649703489,-0.03051804379333589,0.9460593575952316,-0.45777065690094787
1539131649719498,0.03051804379333589,1.0070954451819034,-0.45777065690094787
1539131649735507,0.09155413138023505,1.0681315327688026,-0.45777065690094787
1539131649751515,0.03051804379333589,1.2512397955290453,-0.5798428320745188
1539131649767524,-0.09155413138023505,1.4953841458761872,-0.6408789196611906
1539131649783533,-0.15259021896690683,1.6174563210497581,-0.6408789196611906
1539131649799542,-0.09155413138023505,1.4953841458761872,-0.5188067444876197
1539131649815551,0.09155413138023505,1.4343480582895154,-0.33569848172737693
1539131649831543,0.5188067444876197,1.6784924086366573,0.03051804379333589
1539131649847551,0.9460593575952316,1.8616006713969,0.45777065690094787
1539131649863560,1.1902037079423735,1.8616006713969,0.8850232700083325
1539131649879569,1.3122758831159445,1.9226367589837992,1.0681315327688026
1539131649895578,0.8239871824216607,1.6174563210497581,0.8239871824216607
1539131649911587,0.03051804379333589,0.7629510948347615,0.213626306553806
1539131649927596,-0.8239871824216607,-0.09155413138023505,-0.45777065690094787
1539131649943605,-1.4343480582895154,-0.2746623941404778,-1.0681315327688026
1539131649959613,-1.9226367589837992,0.213626306553806,-1.4343480582895154
1539131649975622,-2.105745021744042,0.8850232700083325,-1.5564202334630863
1539131649991631,-2.04470893415737,1.1902037079423735,-1.5564202334630863
1539131650007640,-1.6174563210497581,1.0070954451819034,-1.6174563210497581
1539131650023649,-0.9460593575952316,0.7019150072480898,-1.4953841458761872
1539131650039658,-0.09155413138023505,0.5798428320745188,-1.3122758831159445
1539131650055667,0.9460593575952316,0.8850232700083325,-0.9460593575952316
1539131650071675,1.9226367589837992,1.3122758831159445,-0.5798428320745188
1539131650087684,2.7771419851987957,1.6174563210497581,-0.09155413138023505
1539131650103693,3.3264667734797513,1.8005645838102282,0.213626306553806
1539131650119702,3.5095750362402214,2.4719615472647547,0.213626306553806
1539131650135711,2.9602502479590385,3.0212863355459376,0.15259021896690683
1539131650151733,1.9226367589837992,2.4719615472647547,-0.2746623941404778
1539131650167742,0.8850232700083325,1.6784924086366573,-0.7629510948347615
1539131650183751,0.15259021896690683,1.6174563210497581,-1.0681315327688026
1539131650199760,-0.5798428320745188,1.8616006713969,-1.0681315327688026
1539131650215768,-1.1291676203554744,1.4953841458761872,-0.8850232700083325
1539131650231777,-1.6174563210497581,0.9460593575952316,-0.6408789196611906
1539131650247786,-1.9226367589837992,0.2746623941404778,-0.6408789196611906
1539131650263795,-1.9226367589837992,-0.45777065690094787,-0.8850232700083325
1539131650279804,-1.4953841458761872,-0.8239871824216607,-1.0070954451819034
1539131650295813,-0.6408789196611906,-0.3967345693140487,-0.8850232700083325
1539131650311822,0.3967345693140487,0.7019150072480898,-0.5188067444876197
1539131650327830,1.0681315327688026,1.739528496223329,-0.213626306553806
1539131650343839,1.4343480582895154,2.8992141603723667,-0.15259021896690683
1539131650359848,1.3122758831159445,2.8992141603723667,-0.5188067444876197
1539131650375857,0.8850232700083325,2.04470893415737,-1.0681315327688026
1539131650391866,0.33569848172737693,1.739528496223329,-1.4343480582895154
1539131650407875,-0.2746623941404778,2.105745021744042,-1.4343480582895154
1539131650423884,-0.8850232700083325,2.288853284504512,-1.3122758831159445
1539131650439892,-1.6174563210497581,2.166781109330941,-1.1902037079423735
1539131650455901,-2.166781109330941,1.3122758831159445,-1.1291676203554744
1539131650471893,-2.5940337224383256,0.7019150072480898,-1.0070954451819034
1539131650487902,-2.532997634851654,0.03051804379333589,-0.5798428320745188
1539131650503911,-1.6174563210497581,-0.7019150072480898,0.15259021896690683
1539131650519919,-0.213626306553806,0.2746623941404778,0.9460593575952316
1539131650535928,0.7629510948347615,1.2512397955290453,1.4953841458761872
1539131650551937,1.2512397955290453,0.8239871824216607,1.5564202334630863
1539131650567946,1.1291676203554744,-0.6408789196611906,1.1902037079423735
1539131650583955,0.8850232700083325,-1.4953841458761872,0.3967345693140487
1539131650599964,0.45777065690094787,-0.8239871824216607,-0.2746623941404778
1539131650615973,0.09155413138023505,0.5798428320745188,-0.6408789196611906
1539131650631981,-0.33569848172737693,1.8005645838102282,-0.8239871824216607
1539131650647990,-0.9460593575952316,2.655069810025225,-1.1291676203554744
1539131650663999,-1.3733119707026162,2.9602502479590385,-1.6174563210497581
1539131650680008,-1.6174563210497581,2.04470893415737,-2.288853284504512
1539131650696017,-1.5564202334630863,1.0070954451819034,-2.655069810025225
1539131650712026,-1.5564202334630863,0.6408789196611906,-2.8381780727854675
1539131650728035,-1.5564202334630863,1.0070954451819034,-2.5940337224383256
1539131650744043,-1.8005645838102282,0.7019150072480898,-2.3498893720911838
1539131650760052,-2.105745021744042,0.33569848172737693,-2.4719615472647547
1539131650776061,-2.532997634851654,-0.15259021896690683,-2.7771419851987957
1539131650792083,-3.0212863355459376,-0.7629510948347615,-3.0212863355459376
1539131650808092,-3.2654306858930795,-0.8239871824216607,-2.9602502479590385
1539131650824101,-3.3875028610666504,-0.33569848172737693,-2.532997634851654
1539131650840110,-3.4485389486533222,-0.2746623941404778,-2.105745021744042
1539131650856119,-3.4485389486533222,-0.45777065690094787,-1.8005645838102282
1539131650872128,-3.3264667734797513,-0.8850232700083325,-1.4343480582895154
1539131650888136,-3.0212863355459376,-1.0681315327688026,-1.0681315327688026
1539131650904145,-2.3498893720911838,-0.8239871824216607,-0.5188067444876197
1539131650920154,-1.5564202334630863,-0.09155413138023505,0.213626306553806
1539131650936163,-0.8239871824216607,0.9460593575952316,0.8239871824216607
1539131650952172,-0.15259021896690683,1.9226367589837992,1.3122758831159445
1539131650968181,0.213626306553806,2.3498893720911838,1.5564202334630863
1539131650984190,0.3967345693140487,2.04470893415737,1.4953841458761872
1539131651000198,0.7629510948347615,1.5564202334630863,1.3122758831159445
1539131651016207,1.0070954451819034,1.5564202334630863,1.1291676203554744
1539131651032216,1.1291676203554744,2.105745021744042,1.1291676203554744
1539131651048225,0.9460593575952316,2.410925459678083,1.0681315327688026
1539131651064234,0.5798428320745188,1.8005645838102282,0.7629510948347615
1539131651080243,-0.09155413138023505,0.7629510948347615,0.213626306553806
1539131651096252,-0.7629510948347615,-0.15259021896690683,-0.2746623941404778
1539131651112243,-1.1902037079423735,-0.6408789196611906,-0.5188067444876197
1539131651128252,-1.3122758831159445,-0.5798428320745188,-0.33569848172737693
1539131651144261,-1.0681315327688026,-0.213626306553806,0.09155413138023505
1539131651160270,-0.6408789196611906,-0.03051804379333589,0.3967345693140487
1539131651176279,-0.15259021896690683,-0.2746623941404778,0.5188067444876197
1539131651192288,0.33569848172737693,-0.7629510948347615,0.3967345693140487
1539131651208296,0.8850232700083325,-1.2512397955290453,0.213626306553806
1539131651224305,1.3122758831159445,-1.4343480582895154,0.33569848172737693
1539131651240314,1.5564202334630863,-0.9460593575952316,0.45777065690094787
1539131651256323,1.6174563210497581,0.03051804379333589,0.5798428320745188
1539131651272332,1.6174563210497581,1.1291676203554744,0.5798428320745188
1539131651288341,1.6174563210497581,2.227817196917613,0.3967345693140487
1539131651304350,1.4953841458761872,3.1433585107195086,0.03051804379333589
1539131651320358,1.1902037079423735,3.692683299000464,-0.5188067444876197
1539131651336367,0.7629510948347615,3.692683299000464,-1.0681315327688026
1539131651352376,0.33569848172737693,3.2043945983061803,-1.5564202334630863
1539131651368385,-0.03051804379333589,2.532997634851654,-1.9226367589837992
1539131651384394,-0.3967345693140487,2.288853284504512,-1.9226367589837992
1539131651400403,-0.7019150072480898,2.3498893720911838,-1.6174563210497581
1539131651416412,-1.0070954451819034,1.983672846570471,-1.1902037079423735
1539131651432434,-1.1291676203554744,1.4953841458761872,-0.7629510948347615
1539131651448443,-1.1291676203554744,1.0681315327688026,-0.3967345693140487
1539131651464451,-1.0681315327688026,0.5798428320745188,-0.15259021896690683
1539131651480460,-0.8850232700083325,0.09155413138023505,0.03051804379333589
1539131651496469,-0.7019150072480898,-0.33569848172737693,0.09155413138023505
1539131651512478,-0.5798428320745188,-0.45777065690094787,0.15259021896690683
1539131651528487,-0.33569848172737693,-0.33569848172737693,0.15259021896690683
1539131651544496,-0.15259021896690683,-0.2746623941404778,0.09155413138023505
1539131651560505,-0.09155413138023505,-0.03051804379333589,-0.03051804379333589
1539131651576513,-0.03051804379333589,0.3967345693140487,-0.09155413138023505
1539131651592522,0.15259021896690683,0.8850232700083325,-0.213626306553806
1539131651608531,0.2746623941404778,1.3122758831159445,-0.33569848172737693
1539131651624540,0.33569848172737693,1.6174563210497581,-0.45777065690094787
1539131651640549,0.3967345693140487,1.6784924086366573,-0.5798428320745188
1539131651656558,0.3967345693140487,1.6784924086366573,-0.7019150072480898
1539131651672567,0.5188067444876197,1.739528496223329,-0.7629510948347615
1539131651688575,0.6408789196611906,1.9226367589837992,-0.6408789196611906
1539131651704584,0.6408789196611906,1.9226367589837992,-0.5798428320745188
1539131651720593,0.5798428320745188,1.739528496223329,-0.3967345693140487
1539131651736602,0.33569848172737693,1.4343480582895154,-0.3967345693140487
1539131651752624,0.09155413138023505,1.0681315327688026,-0.33569848172737693
1539131651768633,-0.03051804379333589,0.8850232700083325,-0.3967345693140487
1539131651784642,-0.03051804379333589,1.0681315327688026,-0.3967345693140487
1539131651800651,-0.03051804379333589,1.3122758831159445,-0.33569848172737693
1539131651816660,-0.09155413138023505,1.2512397955290453,-0.213626306553806
1539131651832668,-0.03051804379333589,0.8850232700083325,-0.15259021896690683
1539131651848677,0.03051804379333589,0.6408789196611906,-0.15259021896690683
1539131651864686,0.09155413138023505,0.5798428320745188,-0.2746623941404778
1539131651880695,0.03051804379333589,0.7629510948347615,-0.45777065690094787
1539131651896704,-0.03051804379333589,0.8850232700083325,-0.5798428320745188
1539131651912713,-0.15259021896690683,0.9460593575952316,-0.7019150072480898
1539131651928722,-0.2746623941404778,1.0681315327688026,-0.7629510948347615
1539131651944730,-0.33569848172737693,1.1902037079423735,-0.7629510948347615
1539131651960739,-0.2746623941404778,1.2512397955290453,-0.7629510948347615
1539131651976748,-0.2746623941404778,1.2512397955290453,-0.6408789196611906
1539131651992757,-0.2746623941404778,1.2512397955290453,-0.5798428320745188
1539131652008766,-0.213626306553806,1.3122758831159445,-0.5188067444876197
1539131652024775,-0.15259021896690683,1.3122758831159445,-0.33569848172737693
1539131652040784,0.03051804379333589,1.3122758831159445,-0.213626306553806
1539131652056792,0.15259021896690683,1.3122758831159445,0.03051804379333589
1539131652072784,0.33569848172737693,1.3733119707026162,0.2746623941404778
1539131652088793,0.3967345693140487,1.1902037079423735,0.45777065690094787
1539131652104802,0.33569848172737693,0.9460593575952316,0.5188067444876197
1539131652120811,0.213626306553806,0.7019150072480898,0.45777065690094787
1539131652136819,0.09155413138023505,0.7629510948347615,0.33569848172737693
1539131652152828,-0.03051804379333589,1.0070954451819034,0.15259021896690683
1539131652168837,-0.213626306553806,1.1902037079423735,0.03051804379333589
1539131652184846,-0.213626306553806,1.0681315327688026,-0.09155413138023505
1539131652200855,-0.03051804379333589,1.0070954451819034,-0.213626306553806
1539131652216864,0.15259021896690683,1.0070954451819034,-0.213626306553806
1539131652232873,0.2746623941404778,1.0681315327688026,-0.2746623941404778
1539131652248881,0.2746623941404778,1.2512397955290453,-0.33569848172737693
1539131652264890,0.213626306553806,1.2512397955290453,-0.5188067444876197
1539131652280899,-0.03051804379333589,1.1291676203554744,-0.8239871824216607
1539131652296908,-0.213626306553806,1.0681315327688026,-1.0681315327688026
1539131652312917,-0.2746623941404778,1.2512397955290453,-1.1291676203554744
1539131652328926,-0.2746623941404778,1.5564202334630863,-1.0070954451819034
1539131652344935,-0.15259021896690683,1.8005645838102282,-0.7019150072480898
1539131652360943,-0.09155413138023505,1.8616006713969,-0.5798428320745188
1539131652376952,0.09155413138023505,1.4953841458761872,-0.5798428320745188
1539131652392974,0.2746623941404778,1.0681315327688026,-0.5798428320745188
1539131652408983,0.45777065690094787,0.45777065690094787,-0.45777065690094787
1539131652424992,0.5798428320745188,0.213626306553806,-0.2746623941404778
1539131652441001,0.6408789196611906,0.2746623941404778,-0.15259021896690683
1539131652457010,0.7019150072480898,0.45777065690094787,-0.09155413138023505
1539131652473019,0.5798428320745188,0.6408789196611906,0.03051804379333589
1539131652489028,0.3967345693140487,0.5798428320745188,-0.09155413138023505
1539131652505036,0.2746623941404778,0.5798428320745188,-0.2746623941404778
1539131652521045,0.2746623941404778,0.7629510948347615,-0.45777065690094787
1539131652537054,0.213626306553806,1.0681315327688026,-0.6408789196611906
1539131652553063,0.213626306553806,1.1902037079423735,-0.9460593575952316
1539131652569072,0.213626306553806,1.2512397955290453,-1.1902037079423735
1539131652585081,0.09155413138023505,1.2512397955290453,-1.2512397955290453
1539131652601090,-0.09155413138023505,1.2512397955290453,-1.3122758831159445
1539131652617098,-0.213626306553806,1.3733119707026162,-1.1902037079423735
1539131652633107,-0.33569848172737693,1.4343480582895154,-1.2512397955290453
1539131652649116,-0.45777065690094787,1.4343480582895154,-1.1291676203554744
1539131652665125,-0.5188067444876197,1.3733119707026162,-1.0681315327688026
1539131652681134,-0.45777065690094787,1.1902037079423735,-1.0070954451819034
1539131652697143,-0.213626306553806,0.8239871824216607,-0.8850232700083325
1539131652713165,-0.03051804379333589,1.0681315327688026,-0.7629510948347615
1539131652729174,0.09155413138023505,1.0070954451819034,-0.5188067444876197
1539131652745183,0.15259021896690683,0.6408789196611906,-0.3967345693140487
1539131652761191,0.09155413138023505,0.7629510948347615,-0.33569848172737693
1539131652777200,-0.03051804379333589,1.0681315327688026,-0.3967345693140487
1539131652793209,0.03051804379333589,1.3733119707026162,-0.33569848172737693
1539131652809218,-0.09155413138023505,1.6174563210497581,-0.15259021896690683
1539131652825227,-0.09155413138023505,1.6174563210497581,-0.03051804379333589
1539131652841236,-0.03051804379333589,1.2512397955290453,-0.03051804379333589
1539131652857245,-0.09155413138023505,0.8850232700083325,-0.15259021896690683
1539131652873253,-0.09155413138023505,0.6408789196611906,-0.2746623941404778
1539131652889262,-0.15259021896690683,0.3967345693140487,-0.45777065690094787
1539131652905271,-0.33569848172737693,0.45777065690094787,-0.5188067444876197
1539131652921280,-0.45777065690094787,0.5798428320745188,-0.3967345693140487
1539131652937289,-0.45777065690094787,0.7629510948347615,-0.33569848172737693
1539131652953298,-0.3967345693140487,1.1291676203554744,-0.2746623941404778
1539131652969307,-0.2746623941404778,1.4343480582895154,-0.15259021896690683
1539131652985315,-0.09155413138023505,1.3122758831159445,-0.03051804379333589
1539131653001324,-0.09155413138023505,0.8850232700083325,0.15259021896690683
1539131653017333,-0.09155413138023505,0.3967345693140487,0.2746623941404778
1539131653033325,-0.15259021896690683,0.15259021896690683,0.45777065690094787
1539131653049334,-0.2746623941404778,0.03051804379333589,0.7019150072480898
1539131653065343,-0.2746623941404778,0.09155413138023505,0.9460593575952316
1539131653081351,-0.45777065690094787,0.15259021896690683,1.0070954451819034
1539131653097360,-0.6408789196611906,-0.09155413138023505,0.8850232700083325
1539131653113369,-0.8850232700083325,-0.15259021896690683,0.7629510948347615
1539131653129378,-1.1902037079423735,-0.2746623941404778,0.6408789196611906
1539131653145387,-1.3122758831159445,-0.45777065690094787,0.5798428320745188
1539131653161396,-1.3733119707026162,-0.7019150072480898,0.5188067444876197
1539131653177405,-1.5564202334630863,-0.9460593575952316,0.5188067444876197
1539131653193413,-1.8005645838102282,-1.4953841458761872,0.5188067444876197
1539131653209422,-2.166781109330941,-1.6174563210497581,0.6408789196611906
1539131653225431,-2.5940337224383256,-1.5564202334630863,0.6408789196611906
1539131653241440,-2.8992141603723667,-1.3733119707026162,0.5798428320745188
1539131653257449,-3.2043945983061803,-1.1291676203554744,0.45777065690094787
1539131653273458,-3.3264667734797513,-0.5188067444876197,0.3967345693140487
1539131653289466,-3.2654306858930795,-0.09155413138023505,0.213626306553806
1539131653305475,-3.2654306858930795,0.15259021896690683,-0.09155413138023505
1539131653321484,-3.1433585107195086,0.09155413138023505,-0.5188067444876197
1539131653337493,-2.9602502479590385,-0.213626306553806,-0.9460593575952316
1539131653353515,-2.8381780727854675,-0.5798428320745188,-1.3733119707026162
1539131653369524,-2.5940337224383256,-1.1291676203554744,-1.6784924086366573
1539131653385533,-2.3498893720911838,-1.6174563210497581,-1.6174563210497581
1539131653401542,-2.105745021744042,-1.8005645838102282,-1.3733119707026162
1539131653417551,-1.8616006713969,-1.2512397955290453,-0.9460593575952316
1539131653433560,-1.6784924086366573,-0.45777065690094787,-0.6408789196611906
1539131653449568,-1.4343480582895154,0.3967345693140487,-0.45777065690094787
1539131653465577,-1.1902037079423735,1.0681315327688026,-0.5188067444876197
1539131653481586,-0.8850232700083325,1.4953841458761872,-0.8239871824216607
1539131653497595,-0.7019150072480898,2.105745021744042,-1.2512397955290453
1539131653513604,-0.6408789196611906,2.655069810025225,-1.739528496223329
1539131653529613,-0.6408789196611906,2.5940337224383256,-2.410925459678083
1539131653545621,-0.7019150072480898,2.166781109330941,-3.1433585107195086
1539131653561630,-0.7019150072480898,1.4343480582895154,-3.7537193865873633
1539131653577639,-0.6408789196611906,1.1291676203554744,-4.180971999694748
1539131653593648,-0.5188067444876197,1.3122758831159445,-4.180971999694748
1539131653609657,-0.2746623941404778,1.4953841458761872,-3.814755474174035
1539131653625666,0.09155413138023505,1.2512397955290453,-3.3875028610666504
1539131653641675,0.45777065690094787,1.1902037079423735,-3.0212863355459376
1539131653657683,0.8239871824216607,1.0681315327688026,-2.7161058976118966
1539131653673706,1.0681315327688026,1.0681315327688026,-2.532997634851654
1539131653689715,1.3733119707026162,1.2512397955290453,-2.5940337224383256
1539131653705723,1.4953841458761872,1.6174563210497581,-2.532997634851654
1539131653721732,1.739528496223329,2.04470893415737,-2.532997634851654
1539131653737741,1.983672846570471,2.532997634851654,-2.4719615472647547
1539131653753750,2.105745021744042,2.8992141603723667,-2.3498893720911838
1539131653769759,2.04470893415737,3.0823224231326094,-2.166781109330941
1539131653785768,1.8005645838102282,3.0212863355459376,-1.8005645838102282
1539131653801777,1.5564202334630863,2.7161058976118966,-1.5564202334630863
1539131653817785,1.0681315327688026,2.4719615472647547,-1.3733119707026162
1539131653833794,0.5188067444876197,2.04470893415737,-1.1291676203554744
1539131653849803,0.03051804379333589,1.4343480582895154,-0.8850232700083325
1539131653865812,-0.5188067444876197,0.8850232700083325,-0.45777065690094787
1539131653881821,-0.9460593575952316,0.03051804379333589,-0.03051804379333589
1539131653897830,-1.4343480582895154,-0.8850232700083325,0.45777065690094787
1539131653913838,-1.8005645838102282,-1.8005645838102282,0.9460593575952316
1539131653929847,-2.227817196917613,-2.4719615472647547,1.3733119707026162
1539131653945856,-2.4719615472647547,-2.655069810025225,1.6784924086366573
1539131653961865,-2.5940337224383256,-2.3498893720911838,1.9226367589837992
1539131653977874,-2.655069810025225,-1.739528496223329,1.983672846570471
1539131653993866,-2.532997634851654,-1.2512397955290453,1.983672846570471
1539131654009874,-2.410925459678083,-0.8239871824216607,1.8005645838102282
1539131654025883,-2.105745021744042,-0.45777065690094787,1.5564202334630863
1539131654041892,-1.8005645838102282,-0.15259021896690683,1.3733119707026162
1539131654057901,-1.4953841458761872,0.09155413138023505,1.0681315327688026
1539131654073910,-1.1902037079423735,0.33569848172737693,0.7629510948347615
1539131654089919,-0.8850232700083325,0.7019150072480898,0.5188067444876197
1539131654105928,-0.7629510948347615,1.1291676203554744,0.2746623941404778
1539131654121936,-0.6408789196611906,1.5564202334630863,-0.15259021896690683
1539131654137945,-0.6408789196611906,1.8005645838102282,-0.45777065690094787
1539131654153954,-0.7019150072480898,1.9226367589837992,-0.8239871824216607
1539131654169963,-0.8239871824216607,1.9226367589837992,-1.3122758831159445
1539131654185972,-1.0070954451819034,1.8005645838102282,-1.8005645838102282
1539131654201981,-1.2512397955290453,1.6174563210497581,-2.227817196917613
1539131654217990,-1.4343480582895154,1.4953841458761872,-2.7771419851987957
1539131654233998,-1.8005645838102282,1.0681315327688026,-3.2654306858930795
1539131654250007,-1.983672846570471,0.5188067444876197,-3.570611123826893
1539131654266016,-2.166781109330941,0.2746623941404778,-3.7537193865873633
1539131654282025,-2.166781109330941,0.2746623941404778,-3.692683299000464
1539131654298034,-2.166781109330941,0.33569848172737693,-3.6316472114137923
1539131654314026,-1.983672846570471,0.213626306553806,-3.4485389486533222
1539131654330034,-1.739528496223329,0.09155413138023505,-3.2654306858930795
1539131654346043,-1.4343480582895154,0.09155413138023505,-3.0823224231326094
1539131654362052,-1.0681315327688026,0.3967345693140487,-2.8992141603723667
1539131654378061,-0.7019150072480898,0.7629510948347615,-2.655069810025225
1539131654394070,-0.3967345693140487,1.0070954451819034,-2.4719615472647547
1539131654410079,-0.09155413138023505,1.1902037079423735,-2.288853284504512
1539131654426087,0.09155413138023505,1.3733119707026162,-2.3498893720911838
1539131654442096,0.213626306553806,1.5564202334630863,-2.3498893720911838
1539131654458105,0.3967345693140487,1.5564202334630863,-2.3498893720911838
1539131654474114,0.45777065690094787,1.4953841458761872,-2.3498893720911838
1539131654490123,0.5798428320745188,1.5564202334630863,-2.227817196917613
1539131654506132,0.8239871824216607,1.8616006713969,-2.04470893415737
1539131654522141,1.2512397955290453,2.227817196917613,-1.739528496223329
1539131654538149,1.6174563210497581,2.4719615472647547,-1.3733119707026162
1539131654554158,2.166781109330941,2.655069810025225,-0.9460593575952316
1539131654570167,2.532997634851654,2.7771419851987957,-0.6408789196611906
1539131654586176,2.8992141603723667,2.8381780727854675,-0.09155413138023505
1539131654602185,3.2043945983061803,2.7161058976118966,0.3967345693140487
1539131654618194,3.3264667734797513,2.655069810025225,0.8239871824216607
1539131654634216,3.2654306858930795,2.532997634851654,1.1902037079423735
1539131654650225,3.0212863355459376,2.410925459678083,1.4343480582895154
1539131654666234,2.655069810025225,2.105745021744042,1.5564202334630863
1539131654682242,1.9226367589837992,1.8005645838102282,1.4953841458761872
1539131654698251,1.0070954451819034,1.3122758831159445,1.1291676203554744
1539131654714260,0.03051804379333589,0.7019150072480898,0.6408789196611906
1539131654730269,-0.7019150072480898,0.03051804379333589,0.15259021896690683
1539131654746278,-1.2512397955290453,-0.09155413138023505,-0.2746623941404778
1539131654762287,-1.3733119707026162,0.3967345693140487,-0.6408789196611906
1539131654778296,-1.3122758831159445,1.1291676203554744,-0.7019150072480898
1539131654794304,-0.8850232700083325,1.739528496223329,-0.5188067444876197
1539131654810313,-0.3967345693140487,2.105745021744042,-0.33569848172737693
1539131654826322,0.15259021896690683,2.105745021744042,-0.15259021896690683
1539131654842331,0.8239871824216607,1.739528496223329,0.03051804379333589
1539131654858340,1.3122758831159445,1.6784924086366573,0.33569848172737693
1539131654874349,1.5564202334630863,1.8616006713969,0.6408789196611906
1539131654890358,1.4343480582895154,1.983672846570471,0.8239871824216607
1539131654906366,1.1902037079423735,1.739528496223329,0.9460593575952316
1539131654922375,0.7629510948347615,1.739528496223329,0.8239871824216607
1539131654938384,0.2746623941404778,1.8616006713969,0.7019150072480898
1539131654954376,0.03051804379333589,1.8616006713969,0.5188067444876197
1539131654970385,-0.213626306553806,1.6784924086366573,0.33569848172737693
1539131654986394,-0.45777065690094787,1.6174563210497581,0.15259021896690683
1539131655002402,-0.7019150072480898,1.5564202334630863,-0.15259021896690683
1539131655018411,-0.8239871824216607,1.3733119707026162,-0.3967345693140487
1539131655034420,-0.8239871824216607,1.2512397955290453,-0.5798428320745188
1539131655050429,-0.7629510948347615,1.2512397955290453,-0.7019150072480898
1539131655066438,-0.5798428320745188,1.4343480582895154,-0.5188067444876197
1539131655082447,-0.2746623941404778,1.6784924086366573,-0.213626306553806
1539131655098456,0.09155413138023505,1.6784924086366573,-0.03051804379333589
1539131655114464,0.33569848172737693,1.739528496223329,0.09155413138023505
1539131655130473,0.5798428320745188,1.8005645838102282,0.213626306553806
1539131655146482,0.7019150072480898,1.739528496223329,0.15259021896690683
1539131655162491,0.6408789196611906,1.6174563210497581,-0.03051804379333589
1539131655178500,0.45777065690094787,1.4343480582895154,-0.213626306553806
1539131655194509,0.33569848172737693,1.3122758831159445,-0.33569848172737693
1539131655210518,0.2746623941404778,1.3733119707026162,-0.45777065690094787
1539131655226526,0.33569848172737693,1.6174563210497581,-0.33569848172737693
1539131655242535,0.5188067444876197,1.6784924086366573,-0.15259021896690683
1539131655258544,0.7019150072480898,1.4343480582895154,0.09155413138023505
1539131655274566,0.8239871824216607,0.9460593575952316,0.213626306553806
1539131655290575,0.8850232700083325,0.45777065690094787,0.213626306553806
1539131655306584,0.8850232700083325,0.2746623941404778,0.09155413138023505
1539131655322593,0.9460593575952316,0.3967345693140487,0.03051804379333589
1539131655338602,1.0070954451819034,1.0070954451819034,0.09155413138023505
1539131655354611,1.0070954451819034,1.6174563210497581,0.15259021896690683
1539131655370619,0.8239871824216607,2.105745021744042,0.09155413138023505
1539131655386628,0.5798428320745188,2.04470893415737,-0.15259021896690683
1539131655402637,0.3967345693140487,1.8616006713969,-0.3967345693140487
1539131655418646,0.2746623941404778,1.4343480582895154,-0.6408789196611906
1539131655434655,0.2746623941404778,1.2512397955290453,-0.7019150072480898
1539131655450664,0.33569848172737693,1.2512397955290453,-0.5188067444876197
1539131655466673,0.3967345693140487,1.2512397955290453,-0.33569848172737693
1539131655482681,0.3967345693140487,1.1291676203554744,-0.09155413138023505
1539131655498690,0.3967345693140487,1.1291676203554744,0.15259021896690683
1539131655514699,0.3967345693140487,1.2512397955290453,0.2746623941404778
1539131655530708,0.2746623941404778,1.1902037079423735,0.3967345693140487
1539131655546717,0.15259021896690683,1.0070954451819034,0.33569848172737693
1539131655562726,0.03051804379333589,1.1902037079423735,0.15259021896690683
1539131655578734,-0.03051804379333589,1.739528496223329,-0.03051804379333589
1539131655594757,-0.09155413138023505,2.166781109330941,-0.213626306553806
1539131655610766,-0.09155413138023505,2.227817196917613,-0.2746623941404778
1539131655626774,-0.213626306553806,2.04470893415737,-0.45777065690094787
1539131655642783,-0.2746623941404778,1.8005645838102282,-0.45777065690094787
1539131655658792,-0.3967345693140487,1.6784924086366573,-0.5188067444876197
1539131655674801,-0.5188067444876197,1.4953841458761872,-0.5798428320745188
1539131655690810,-0.5188067444876197,1.3122758831159445,-0.45777065690094787
1539131655706819,-0.45777065690094787,1.1902037079423735,-0.33569848172737693
1539131655722828,-0.33569848172737693,1.1902037079423735,-0.213626306553806
1539131655738836,-0.213626306553806,1.3733119707026162,-0.09155413138023505
1539131655754845,-0.03051804379333589,1.3733119707026162,-0.03051804379333589
1539131655770854,0.09155413138023505,1.1291676203554744,-0.03051804379333589
1539131655786863,0.213626306553806,0.7629510948347615,-0.09155413138023505
1539131655802872,0.33569848172737693,0.45777065690094787,-0.09155413138023505
1539131655818881,0.5188067444876197,0.45777065690094787,-0.03051804379333589
1539131655834890,0.6408789196611906,0.5798428320745188,0.09155413138023505
1539131655850898,0.7019150072480898,0.7629510948347615,0.213626306553806
1539131655866907,0.7629510948347615,0.9460593575952316,0.15259021896690683
1539131655882916,0.7019150072480898,1.0681315327688026,-0.09155413138023505
1539131655898925,0.6408789196611906,1.4343480582895154,-0.33569848172737693
1539131655914917,0.5188067444876197,1.6784924086366573,-0.45777065690094787
1539131655930925,0.45777065690094787,1.6784924086366573,-0.5188067444876197
1539131655946934,0.3967345693140487,1.6174563210497581,-0.6408789196611906
1539131655962943,0.2746623941404778,1.3733119707026162,-0.7019150072480898
1539131655978952,0.15259021896690683,1.0681315327688026,-0.7629510948347615
1539131655994961,0.03051804379333589,1.0070954451819034,-0.7629510948347615
1539131656010970,-0.15259021896690683,1.1291676203554744,-0.7019150072480898
1539131656026979,-0.213626306553806,1.4343480582895154,-0.5798428320745188
1539131656042987,-0.15259021896690683,1.6174563210497581,-0.5188067444876197
1539131656058996,-0.09155413138023505,1.6174563210497581,-0.3967345693140487
1539131656075005,0.09155413138023505,1.4953841458761872,-0.2746623941404778
1539131656091014,0.15259021896690683,1.4343480582895154,-0.15259021896690683
1539131656107023,0.2746623941404778,1.0681315327688026,-0.03051804379333589
1539131656123032,0.213626306553806,0.8239871824216607,0.09155413138023505
1539131656139041,0.09155413138023505,0.7629510948347615,0.09155413138023505
1539131656155049,-0.15259021896690683,0.8239871824216607,-0.03051804379333589
1539131656171058,-0.45777065690094787,1.0681315327688026,-0.213626306553806
1539131656187067,-0.6408789196611906,1.1291676203554744,-0.45777065690094787
1539131656203076,-0.5798428320745188,1.0681315327688026,-0.6408789196611906
1539131656219085,-0.45777065690094787,1.2512397955290453,-0.6408789196611906
1539131656235107,-0.2746623941404778,1.3733119707026162,-0.5188067444876197
1539131656251116,0.09155413138023505,1.4343480582895154,-0.33569848172737693
1539131656267125,0.3967345693140487,1.3122758831159445,-0.213626306553806
1539131656283134,0.5188067444876197,1.3122758831159445,-0.15259021896690683
1539131656299142,0.5798428320745188,1.3733119707026162,-0.09155413138023505
1539131656315151,0.5798428320745188,1.4953841458761872,0.03051804379333589
1539131656331160,0.45777065690094787,1.5564202334630863,0.09155413138023505
1539131656347169,0.33569848172737693,1.739528496223329,0.15259021896690683
1539131656363178,0.213626306553806,1.8005645838102282,0.213626306553806
1539131656379187,0.15259021896690683,1.6174563210497581,0.03051804379333589
1539131656395196,0.09155413138023505,1.3733119707026162,-0.09155413138023505
1539131656411204,0.15259021896690683,1.1291676203554744,-0.2746623941404778
1539131656427213,0.2746623941404778,1.0681315327688026,-0.3967345693140487
1539131656443222,0.3967345693140487,1.2512397955290453,-0.45777065690094787
1539131656459231,0.45777065690094787,1.1902037079423735,-0.5188067444876197
1539131656475240,0.5188067444876197,1.3733119707026162,-0.5798428320745188
1539131656491249,0.5188067444876197,1.4343480582895154,-0.7019150072480898
1539131656507258,0.3967345693140487,1.3733119707026162,-0.8850232700083325
1539131656523266,0.2746623941404778,1.1902037079423735,-0.9460593575952316
1539131656539275,0.213626306553806,1.1902037079423735,-1.0070954451819034
1539131656555297,0.213626306553806,1.1902037079423735,-1.0070954451819034
1539131656571306,0.213626306553806,1.3122758831159445,-1.0070954451819034
1539131656587315,0.33569848172737693,1.4953841458761872,-0.8850232700083325
1539131656603324,0.33569848172737693,1.3122758831159445,-0.8239871824216607
1539131656619333,0.3967345693140487,1.0070954451819034,-0.7629510948347615
1539131656635342,0.3967345693140487,0.7629510948347615,-0.7019150072480898
1539131656651351,0.5188067444876197,0.5798428320745188,-0.5798428320745188
1539131656667359,0.5188067444876197,0.5188067444876197,-0.5188067444876197
1539131656683368,0.3967345693140487,0.7019150072480898,-0.33569848172737693
1539131656699377,0.33569848172737693,1.0681315327688026,-0.09155413138023505
1539131656715386,0.213626306553806,1.2512397955290453,-0.03051804379333589
1539131656731395,-0.09155413138023505,1.3122758831159445,0.03051804379333589
1539131656747404,-0.2746623941404778,1.1902037079423735,-0.03051804379333589
1539131656763413,-0.5188067444876197,1.0070954451819034,-0.15259021896690683
1539131656779421,-0.7019150072480898,1.0070954451819034,-0.33569848172737693
1539131656795430,-0.8239871824216607,1.3122758831159445,-0.5188067444876197
1539131656811439,-0.8239871824216607,1.6784924086366573,-0.5188067444876197
1539131656827448,-0.7629510948347615,2.04470893415737,-0.5188067444876197
1539131656843457,-0.6408789196611906,2.227817196917613,-0.5188067444876197
1539131656859466,-0.6408789196611906,2.105745021744042,-0.45777065690094787
1539131656875488,-0.45777065690094787,1.9226367589837992,-0.5188067444876197
1539131656891497,-0.3967345693140487,1.6174563210497581,-0.3967345693140487
1539131656907506,-0.3967345693140487,1.3733119707026162,-0.2746623941404778
1539131656923514,-0.33569848172737693,1.1902037079423735,-0.15259021896690683
1539131656939523,-0.213626306553806,1.0070954451819034,0.03051804379333589
1539131656955532,-0.213626306553806,1.0070954451819034,0.213626306553806
1539131656971541,-0.15259021896690683,1.0070954451819034,0.3967345693140487
1539131656987550,-0.15259021896690683,0.9460593575952316,0.5188067444876197
1539131657003559,-0.09155413138023505,0.8239871824216607,0.5188067444876197
1539131657019568,0.03051804379333589,0.8239871824216607,0.45777065690094787
1539131657035576,0.15259021896690683,0.8239871824216607,0.33569848172737693
1539131657051585,0.33569848172737693,0.8239871824216607,0.15259021896690683
1539131657067594,0.45777065690094787,0.8239871824216607,0.15259021896690683
1539131657083603,0.6408789196611906,0.8850232700083325,0.15259021896690683
1539131657099612,0.7019150072480898,0.8850232700083325,0.09155413138023505
1539131657115621,0.8850232700083325,0.9460593575952316,0.03051804379333589
1539131657131630,0.9460593575952316,1.0070954451819034,-0.15259021896690683
1539131657147638,0.9460593575952316,1.1291676203554744,-0.2746623941404778
1539131657163647,0.9460593575952316,1.1902037079423735,-0.45777065690094787
1539131657179656,0.8239871824216607,1.3733119707026162,-0.6408789196611906
1539131657195648,0.5798428320745188,1.4343480582895154,-0.7019150072480898
1539131657211657,0.33569848172737693,1.4953841458761872,-0.7629510948347615
1539131657227666,0.09155413138023505,1.3733119707026162,-0.7629510948347615
1539131657243674,-0.09155413138023505,1.2512397955290453,-0.8239871824216607
1539131657259683,-0.33569848172737693,1.1902037079423735,-0.7629510948347615
1539131657275692,-0.3967345693140487,1.0070954451819034,-0.6408789196611906
1539131657291701,-0.3967345693140487,0.8850232700083325,-0.45777065690094787
1539131657307710,-0.33569848172737693,0.8239871824216607,-0.33569848172737693
1539131657323719,-0.213626306553806,1.0070954451819034,-0.213626306553806
1539131657339728,-0.15259021896690683,1.0070954451819034,-0.09155413138023505
1539131657355736,-0.09155413138023505,0.8850232700083325,-0.03051804379333589
1539131657371745,-0.09155413138023505,0.9460593575952316,-0.09155413138023505
1539131657387754,-0.09155413138023505,1.0070954451819034,-0.15259021896690683
1539131657403763,-0.2746623941404778,1.0070954451819034,-0.2746623941404778
1539131657419772,-0.3967345693140487,1.0681315327688026,-0.33569848172737693
1539131657435781,-0.5798428320745188,1.1902037079423735,-0.5188067444876197
1539131657451789,-0.6408789196611906,1.1291676203554744,-0.7019150072480898
1539131657467798,-0.7019150072480898,1.1291676203554744,-0.7629510948347615
1539131657483807,-0.7019150072480898,1.1902037079423735,-0.7629510948347615
1539131657499816,-0.6408789196611906,1.1902037079423735,-0.7629510948347615
1539131657515838,-0.6408789196611906,1.3122758831159445,-0.6408789196611906
1539131657531847,-0.5798428320745188,1.4343480582895154,-0.5188067444876197
1539131657547856,-0.5798428320745188,1.3733119707026162,-0.45777065690094787
1539131657563865,-0.3967345693140487,1.3733119707026162,-0.3967345693140487
1539131657579874,-0.33569848172737693,1.1902037079423735,-0.33569848172737693
1539131657595883,-0.213626306553806,1.0681315327688026,-0.2746623941404778
1539131657611891,-0.03051804379333589,1.0681315327688026,-0.15259021896690683
1539131657627900,0.15259021896690683,0.8850232700083325,-0.03051804379333589
1539131657643909,0.213626306553806,0.8239871824216607,-0.03051804379333589
1539131657659918,0.3967345693140487,0.6408789196611906,-0.09155413138023505
1539131657675927,0.5188067444876197,0.5798428320745188,-0.03051804379333589
1539131657691936,0.5798428320745188,0.5798428320745188,-0.09155413138023505
1539131657707944,0.6408789196611906,0.6408789196611906,-0.09155413138023505
1539131657723953,0.7019150072480898,0.8850232700083325,-0.03051804379333589
1539131657739962,0.6408789196611906,1.1902037079423735,-0.15259021896690683
1539131657755971,0.5188067444876197,1.1902037079423735,-0.213626306553806
1539131657771980,0.45777065690094787,1.1291676203554744,-0.33569848172737693
1539131657787989,0.3967345693140487,1.0681315327688026,-0.3967345693140487
1539131657803998,0.213626306553806,1.1291676203554744,-0.5188067444876197
1539131657820006,0.15259021896690683,1.1291676203554744,-0.5188067444876197
1539131657836029,0.03051804379333589,1.1902037079423735,-0.5188067444876197
1539131657852038,-0.03051804379333589,1.2512397955290453,-0.45777065690094787
1539131657868046,-0.09155413138023505,1.4343480582895154,-0.33569848172737693
1539131657884055,-0.213626306553806,1.5564202334630863,-0.213626306553806
1539131657900064,-0.2746623941404778,1.4953841458761872,-0.15259021896690683
1539131657916073,-0.2746623941404778,1.5564202334630863,-0.15259021896690683
1539131657932082,-0.213626306553806,1.3733119707026162,-0.213626306553806
1539131657948091,-0.15259021896690683,1.1902037079423735,-0.09155413138023505
1539131657964100,0.09155413138023505,1.1291676203554744,-0.09155413138023505
1539131657980108,0.09155413138023505,1.2512397955290453,0.03051804379333589
1539131657996117,0.09155413138023505,1.0070954451819034,0.03051804379333589
1539131658012126,-0.09155413138023505,0.8239871824216607,-0.15259021896690683
1539131658028135,-0.2746623941404778,0.8239871824216607,-0.3967345693140487
1539131658044144,-0.45777065690094787,1.0681315327688026,-0.6408789196611906
1539131658060153,-0.45777065690094787,1.3122758831159445,-0.8239871824216607
1539131658076161,-0.45777065690094787,1.739528496223329,-0.8850232700083325
1539131658092170,-0.33569848172737693,1.983672846570471,-0.9460593575952316
1539131658108179,-0.213626306553806,1.9226367589837992,-0.9460593575952316
1539131658124188,-0.15259021896690683,1.5564202334630863,-0.9460593575952316
1539131658140197,-0.09155413138023505,1.1902037079423735,-0.8850232700083325
1539131658156189,0.03051804379333589,1.0070954451819034,-0.7019150072480898
1539131658172197,-0.03051804379333589,1.0681315327688026,-0.5188067444876197
1539131658188206,0.09155413138023505,1.0681315327688026,-0.33569848172737693
1539131658204215,0.213626306553806,1.1291676203554744,-0.15259021896690683
1539131658220224,0.3967345693140487,1.2512397955290453,-0.03051804379333589
1539131658236233,0.45777065690094787,1.3122758831159445,0.03051804379333589
1539131658252242,0.5798428320745188,1.2512397955290453,0.09155413138023505
1539131658268251,0.7019150072480898,1.0070954451819034,0.03051804379333589
1539131658284259,0.7019150072480898,1.0070954451819034,0.03051804379333589
1539131658300268,0.7019150072480898,1.0070954451819034,-0.09155413138023505
1539131658316277,0.6408789196611906,0.9460593575952316,-0.09155413138023505
1539131658332286,0.5798428320745188,1.0681315327688026,-0.03051804379333589
1539131658348295,0.3967345693140487,1.1902037079423735,0.03051804379333589
1539131658364304,0.2746623941404778,1.3733119707026162,0.03051804379333589
1539131658380313,0.09155413138023505,1.3122758831159445,-0.09155413138023505
1539131658396321,0.03051804379333589,1.1291676203554744,-0.213626306553806
1539131658412330,-0.09155413138023505,0.8239871824216607,-0.3967345693140487
1539131658428339,-0.2746623941404778,0.7019150072480898,-0.5798428320745188
1539131658444348,-0.33569848172737693,0.7629510948347615,-0.7629510948347615
1539131658460357,-0.33569848172737693,0.8850232700083325,-0.8239871824216607
1539131658476379,-0.33569848172737693,1.1902037079423735,-0.8850232700083325
1539131658492388,-0.33569848172737693,1.5564202334630863,-0.8850232700083325
1539131658508397,-0.3967345693140487,1.6174563210497581,-0.7629510948347615
1539131658524406,-0.33569848172737693,1.4953841458761872,-0.7629510948347615
1539131658540414,-0.33569848172737693,1.3733119707026162,-0.7019150072480898
1539131658556423,-0.2746623941404778,1.2512397955290453,-0.5798428320745188
1539131658572432,-1.6174563210497581,6.195162890058782,-2.5940337224383256
1539131658588441,-1.0681315327688026,-10.772869459067579,-1.983672846570471
1539131658604450,0.6408789196611906,4.852368963149502,-0.3967345693140487
1539131658620459,-1.3122758831159445,-4.9134050507361735,2.04470893415737
1539131658636468,1.0681315327688026,2.288853284504512,5.0354772259097444
1539131658652476,-5.462729839017356,7.11070420386045,3.2043945983061803
1539131658668485,-15.289539940489703,10.162508583199724,-4.119935912108076
1539131658684494,-26.764324406805372,13.336385137712568,-14.190890363927565
1539131658700503,-39.64293888761745,22.247653925383247,-22.125581750209676
1539131658716512,-51.17875944151979,24.567025253681095,-31.464103150988194
1539131658732521,-59.845883878843324,20.23346303501944,-41.22987716487387
1539131658748530,-65.27809567406734,9.491111619745197,-50.56839856565193
1539131658764538,-67.59746700236519,-3.6316472114137923,-58.99137865262833
1539131658780547,-67.35332265201805,-13.76363775082018,-63.81322957198449
1539131658796569,-65.21705958648045,-17.303730830853738,-65.64431219958806
1539131658812578,-62.28732738231474,-18.341344319828977,-65.64431219958806
1539131658828587,-58.747234302281186,-16.1440451667047,-63.14183260852974
1539131658844596,-54.10849164568549,-11.20012207217519,-57.77065690089262
1539131658860605,-48.310063324940984,-3.997863736934505,-49.16456855115598
1539131658876614,-41.71816586556815,4.303044174868319,-38.1170366979477
1539131658892623,-35.00419623102175,11.20012207217519,-27.496757457846797
1539131658908631,-29.08369573510322,16.388189517051842,-18.82963302052326
1539131658924640,-23.7125200274661,19.378957808804444,-11.20012207217519
1539131658940649,-17.48683909361398,18.70756084534969,-4.058899824521177
1539131658956658,-9.67421988250544,13.275349050125897,2.655069810025225
1539131658972667,-0.213626306553806,4.730296787975931,9.67421988250544
1539131658988676,9.918364232852582,-3.692683299000464,16.754406042572555
1539131659004685,19.684138246738257,-10.345616845960194,23.468375677118956
1539131659020693,28.412298771648693,-15.228503852903032,29.816128786144645
1539131659036702,36.469062333104375,-19.073777370870403,35.61455710688938
1539131659052711,44.098573281452445,-20.965896086060866,41.16884107728674
1539131659068720,50.812542915999074,-20.599679560540153,46.35690852216362
1539131659084729,56.48889906157001,-17.059586480506596,51.056687266346216
1539131659100738,61.37178606851285,-11.01701380941472,55.45128557259477
1539131659116729,65.64431219958806,-4.180971999694748,59.17448691538857
1539131659132738,69.24544136720851,1.1902037079423735,61.982146944380474
1539131659148747,71.80895704585373,4.242008087281647,63.263904783703765
1539131659164756,73.33485923552325,5.706874189364498,63.20286869611664
1539131659180765,73.94522011139088,5.95101853971164,61.79903868162046
1539131659196774,73.51796749828372,5.279621576256886,59.05241474021477
1539131659212782,72.11413748378754,3.570611123826893,55.51232166018144
1539131659228791,69.97787441824994,1.1291676203554744,51.483939879453374
1539131659244800,67.17021438925804,-0.7019150072480898,46.784161135271006
1539131659260809,63.56908522163758,-1.6784924086366573,41.8402380407415
1539131659276818,59.23552300297524,-2.04470893415737,36.71320668345152
1539131659292827,54.352635996032404,-1.5564202334630863,31.89135576409535
1539131659308836,49.10353246356908,-0.8850232700083325,27.130540932326085
1539131659324844,43.48821240558459,0.03051804379333589,22.369726100556818
1539131659340853,37.506675822079615,1.2512397955290453,17.48683909361398
1539131659356862,31.280994888227497,2.4719615472647547,12.4208438239109
1539131659372871,24.933241779201808,3.3264667734797513,6.9886320286868795
1539131659388880,18.463416495002548,3.570611123826893,1.5564202334630863
1539131659404889,12.054627298390187,3.2654306858930795,-3.875791561760934
1539131659420898,5.76791027695117,2.7161058976118966,-9.246967269398056
1539131659436920,-0.2746623941404778,2.410925459678083,-14.068818188753994
1539131659452929,-6.256198977645454,2.227817196917613,-18.95170519569683
1539131659468937,-11.993591210803288,1.739528496223329,-23.407339589532285
1539131659484946,-17.36476691844041,0.9460593575952316,-27.191577019912984
1539131659500955,-22.49179827573039,0.3967345693140487,-30.36545357442583
1539131659516964,-27.374685282673227,0.33569848172737693,-32.928969253071045
1539131659532973,-32.01342793926915,0.5798428320745188,-35.00419623102175
1539131659548982,-36.34699015793103,0.5798428320745188,-36.4690623331046
1539131659564991,-40.1922636758984,0.33569848172737693,-37.2625314717327
1539131659580999,-43.427176317998146,0.15259021896690683,-37.50667582207984
1539131659597008,-46.05172808422981,0.2746623941404778,-37.2625314717327
1539131659613017,-48.06591897459384,0.5798428320745188,-36.591134508278174
1539131659629026,-49.34767681391622,0.8850232700083325,-35.492484931716035
1539131659645035,-49.774929427023835,1.0070954451819034,-34.088654917219856
1539131659661044,-49.652857251850264,1.0681315327688026,-32.19653620202962
1539131659677053,-48.85938811322194,0.2746623941404778,-30.060273136491787
1539131659693061,-47.51659418631266,-0.3967345693140487,-27.61882963302037
1539131659709070,-45.62447547112242,-0.7629510948347615,-24.872205691615136
1539131659725079,-43.244068055237676,-0.8850232700083325,-21.881437399862534
1539131659741088,-40.37537193865887,-0.8239871824216607,-18.646524757763018
1539131659757110,-37.07942320897246,-0.7629510948347615,-15.228503852903032
1539131659773119,-33.35622186617843,-0.9460593575952316,-11.871519035629717
1539131659789128,-29.26680399786369,-1.1902037079423735,-8.45349813076973
1539131659805137,-24.811169604028237,-1.5564202334630863,-5.157549401083315
1539131659821146,-20.17242694743254,-1.983672846570471,-1.9226367589837992
1539131659837154,-15.411612115663274,-2.5940337224383256,1.1902037079423735
1539131659853163,-10.467689021133765,-3.0212863355459376,4.180971999694748
1539131659869172,-5.3406576638437855,-3.1433585107195086,7.11070420386045
1539131659885181,-0.2746623941404778,-2.9602502479590385,9.85732814526591
1539131659901190,4.669260700389032,-2.7771419851987957,12.298771648737329
1539131659917199,9.369039444571627,-2.166781109330941,14.496070801861606
1539131659933208,13.702601663233281,-1.2512397955290453,16.510261692225413
1539131659949216,17.853055619134693,-0.09155413138023505,18.219272144655406
1539131659965225,21.57625696192872,0.8850232700083325,19.439993896391115
1539131659981234,24.872205691615136,1.8005645838102282,20.23346303501944
1539131659997243,27.557793545433697,2.3498893720911838,20.721751735713724
1539131660013252,29.694056610971074,2.410925459678083,20.843823910887295
1539131660029261,31.280994888227497,2.166781109330941,20.538643472953254
1539131660045270,32.13550011444249,1.9226367589837992,19.867246509498727
1539131660061278,32.379644464789635,1.3733119707026162,18.70756084534969
1539131660077270,32.257572289616064,1.0070954451819034,17.181658655680167
1539131660093279,32.07446402685582,-0.5798428320745188,15.228503852903032
1539131660109288,31.95239185168225,-1.4343480582895154,13.336385137712568
