Timestamp (microseconds),Accel X (g),Accel Y (g),Accel Z (g)
1539732869049682,0.25897611963073164,0.018493934538795997,0.9842069123369193
1539732869065683,0.281925688563363,0.006652933546959616,0.9766384374761579
1539732869081685,0.3081712062256807,0.02288853284504455,0.9707789730678265
1539732869097686,0.3334401464866099,0.050476844434271584,0.9590600442511636
1539732869113687,0.35895323109788624,0.07745479514763076,0.933058670939193
1539732869129688,0.37103837644006976,0.0869764248111693,0.9333028152895402
1539732869145690,0.3833676661326013,0.0663462272068358,0.9231708247501338
1539732869161691,0.37726405737392277,0.03839169909208806,0.9412375066758223
1539732869177692,0.37311360341802047,0.0365606164644845,0.9530785076676587
1539732869193693,0.38324559395742774,0.049256122682535874,0.9411154345006487
1539732869209694,0.3936217288471813,0.04632639047837017,0.9386739909971773
1539732869225696,0.4079041733424891,0.043030441748683756,0.9311055161364159
1539732869241697,0.40473029678797623,0.03692683299000521,0.9430685893034259
1539732869257698,0.40851453421835693,0.02020294499122599,0.9563744563973451
1539732869273699,0.42194247348744973,0.012878614480811734,0.9713893339436943
1539732869289701,0.429266803997864,0.009948882276646032,0.978591592278935
1539732869305702,0.4308537422751204,3.0518043793392735E-4,0.9596704051270315
1539732869321703,0.4169375143053333,0.0012817578393224949,0.9412375066758223
1539732869337704,0.3851987487602049,0.023498893720912406,0.9405050736247809
1539732869353706,0.3591973754482334,0.05951018539711583,0.9340352483405816
1539732869369720,0.3096360723277636,0.09881742580300568,0.9503929198138401
1539732869385721,0.25421530479896237,0.10150301365682424,0.9918974593728542
1539732869401723,0.21930266269932108,0.011413748378728883,1.0108186465247577
1539732869417724,0.2276035706111239,-0.12481879911497673,1.0049591821164263
1539732869433725,0.2763103685053787,-0.20502021820401328,0.973464560921645
1539732869449726,0.33746852826733775,-0.16534676127260228,0.9369649805447473
1539732869465727,0.4069275959411005,-0.06463721675440626,0.9002212558175025
1539732869481729,0.45465781643396674,0.009216449225604606,0.8826428625925082
1539732869497730,0.4757763027389945,0.027405203326466676,0.8852063782711532
1539732869513731,0.4859082932784009,0.005310139620050336,0.8930189974822618
1539732869529732,0.49042496375982303,-0.03179980163271523,0.8976577401388575
1539732869545734,0.5045853360799573,-0.0604867627985044,0.8816662851911197
1539732869561735,0.5055619134813458,-0.07196154726482051,0.8670176241702903
1539732869577736,0.5116655222400244,-0.062439917601281536,0.8576180666819253
1539732869593737,0.5161821927214465,-0.050720988784618726,0.8491950865949489
1539732869609738,0.5137407492179751,-0.04364080262455161,0.8408941786831461
1539732869625740,0.5077592126344701,-0.03668268863965807,0.8362554360265504
1539732869641741,0.49823758297093157,-0.03411917296101308,0.8439459830624854
1539732869657742,0.5026321812771801,-0.030212863355458808,0.8540779736018917
1539732869673743,0.5149614709697108,-0.019714656290531707,0.8634775310902567
1539732869689727,0.5260700389105057,-0.0214236667429617,0.8751964599069204
1539732869705729,0.5189898527504386,-0.035095750362401645,0.893507286182956
1539732869721730,0.4766308079652095,-0.04827954528114731,0.9263447013046466
1539732869737731,0.4320744640268561,-0.04596017395284946,0.9551537346456094
1539732869753732,0.4044861524376291,-0.03350881208514522,0.9672388799877929
1539732869769734,0.3847104600595106,-0.010315098802166744,0.96406500343328
1539732869785735,0.3784847791256585,0.015075913633936011,0.9547875181200887
1539732869801736,0.3591973754482334,0.03533989471274879,0.9600366216525522
1539732869817737,0.3504081788357363,0.049500267032883016,0.9585717555504694
1539732869833738,0.3535820553902491,0.05426108186465228,0.9556420233463037
1539732869849740,0.36774242771038335,0.05743495841916513,0.9470969710841537
1539732869865741,0.38666361486228773,0.059754329747462975,0.937331197070268
1539732869881742,0.39716182192721483,0.0672007324330508,0.9253681239032581
1539732869897743,0.3964293888761734,0.0764782177462422,0.9234149691004809
1539732869913745,0.3981383993286034,0.09149309529259142,0.9245136186770431
1539732869929746,0.40204470893415767,0.10443274586098994,0.9257343404287788
1539732869945747,0.3998474097810334,0.10064850843060924,0.9279316395819031
1539732869961748,0.40094605935759553,0.09552147707331926,0.9207293812466624
1539732869977749,0.40582894636453837,0.09759670405126997,0.9218280308232245
1539732869993751,0.40582894636453837,0.10150301365682424,0.9279316395819031
1539732870009857,0.4010681315327691,0.10406652933546923,0.9386739909971773
1539732870025859,0.39374380102235484,0.09771877622644354,0.9455100328068973
1539732870041860,0.3952086671244377,0.10089265278095638,0.944167238879988
1539732870057862,0.4015564202334634,0.1117570763714042,0.9368429083695737
1539732870073864,0.4099794003204398,0.11151293202105705,0.9314717326619366
1539732870089865,0.40973525597009264,0.10516517891203137,0.9303730830853745
1539732870105867,0.4014343480582898,0.0966201266498814,0.9329365987640195
1539732870121869,0.3921568627450984,0.09039444571602928,0.9379415579461359
1539732870137870,0.384588387884337,0.0869764248111693,0.9403830014496073
1539732870153872,0.3830014496070806,0.08575570305943359,0.9380636301213094
1539732870169874,0.38397802700846917,0.0844129091325243,0.9361104753185323
1539732870185876,0.3792172121766999,0.08380254825665645,0.9403830014496073
1539732870201877,0.3716487373159376,0.0785534447241929,0.9423361562523844
1539732870217879,0.36981765468833405,0.06683451590753009,0.939894712748913
1539732870233881,0.3704280155642019,0.07464713511863863,0.9331807431143666
1539732870249882,0.37201495384145833,0.10162508583199781,0.934767681391623
1539732870265884,0.3838559548332956,0.12616159304188646,0.9262226291294731
1539732870281886,0.39032578011749486,0.1381246662088964,0.928786144808118
1539732870297887,0.3876401922636763,0.13421835660334214,0.9279316395819031
1539732870313889,0.37994964522774133,0.12664988174258074,0.928786144808118
1539732870329986,0.37738612954909634,0.12298771648737272,0.9375753414206152
1539732870345988,0.38947127489127986,0.11786068513008274,0.9375753414206152
1539732870361991,0.4039978637369348,0.10492103456168422,0.9389181353475244
1539732870377993,0.4225528343633176,0.08624399176012787,0.9309834439612423
1539732870393995,0.42389562829022687,0.06305027847714939,0.9457541771572444
1539732870409997,0.42096589608606116,0.05816739147020655,0.9486839093614101
1539732870425999,0.4098573281452662,0.05999847409781012,0.9430685893034259
1539732870442001,0.3964293888761734,0.057068741893644415,0.9495384145876251
1539732870458004,0.3884946974898913,0.056946669718470844,0.941603723201343
1539732870474006,0.38397802700846917,0.06073090714885154,0.9325703822384988
1539732870490008,0.38495460440985774,0.06317235065232296,0.9240253299763488
1539732870506010,0.3805600061036092,0.06292820630197582,0.9228046082246131
1539732870522012,0.37640955214770777,0.062195773250934394,0.9250019073777374
1539732870538015,0.3793392843518735,0.0499885557335773,0.9286640726329445
1539732870554017,0.3960631723506527,0.039124132143129486,0.9206073090714888
1539732870570019,0.40839246204318336,0.04742504005493231,0.9218280308232245
1539732870586021,0.4132753490501262,0.0604867627985044,0.9112077515831238
1539732870602023,0.4091248950942248,0.06024261844815726,0.9217059586480509
1539732870618025,0.4044861524376291,0.058289463645380124,0.9394064240482187
1539732870634028,0.40167849240863696,0.07244983596551435,0.9412375066758223
1539732870650116,0.3930113679713134,0.0844129091325243,0.9435568780041201
1539732870666118,0.39154650186923057,0.09967193102922067,0.9378194857709623
1539732870682120,0.4007019150072484,0.12530708781567146,0.9262226291294731
1539732870698122,0.4103456168459605,0.1276264591439693,0.9243915465018695
1539732870714124,0.42182040131227616,0.10443274586098994,0.9217059586480509
1539732870730126,0.4393987945372704,0.0785534447241929,0.9152361333638517
1539732870746129,0.4397650110627911,0.052918287937743,0.9130388342107274
1539732870762131,0.4212100404364083,0.040100709544518054,0.9219501029983981
1539732870778133,0.4082703898680098,0.042664225223163044,0.9319600213626309
1539732870794135,0.4024109254596784,0.03826962691691449,0.9325703822384988
1539732870810137,0.4065613794155798,0.02545204852368954,0.9224383916990924
1539732870826140,0.40546272983901765,0.011291676203555312,0.9043717097734039
1539732870842142,0.39789425497825626,0.0109254596780346,0.9102311741817353
1539732870858144,0.39069199664301557,0.030823224231326662,0.9226825360494395
1539732870874146,0.3930113679713134,0.0424200808728159,0.9324483100633252
1539732870890148,0.3964293888761734,0.034851606012054503,0.9383077744716566
1539732870906150,0.3950865949492641,0.028259708552681673,0.9395284962233923
1539732870922153,0.3930113679713134,0.02642862592507811,0.9456321049820708
1539732870938155,0.3784847791256585,0.0394903486686502,0.9556420233463037
1539732870954157,0.37653162432288134,0.06195162890058725,0.952712291142138
1539732870970214,0.3776302738994435,0.062317845426107965,0.9575951781490808
1539732870986217,0.3808041504539563,0.05780117494468584,0.955275806820783
1539732871002220,0.38397802700846917,0.05658045319295013,0.954421301594568
1539732871018222,0.39288929579613985,0.05633630884260299,0.9505149919890137
1539732871034225,0.4010681315327691,0.05523765926604085,0.9430685893034259
1539732871050228,0.40766002899214193,0.053284504463263715,0.9361104753185323
1539732871066230,0.41010147249561335,0.055725947966735134,0.9335469596398873
1539732871082233,0.41046768902113406,0.049256122682535874,0.9265888456549938
1539732871098236,0.41425192645151476,0.045593957427328746,0.9243915465018695
1539732871114238,0.41437399862668833,0.049134050507362304,0.9267109178301673
1539732871130241,0.41217669947356406,0.05120927748531301,0.9276874952315559
1539732871146244,0.41132219424734906,0.049378194857709445,0.9224383916990924
1539732871162246,0.4070496681162741,0.05242999923704872,0.9251239795529109
1539732871178249,0.3997253376058598,0.055848020141908705,0.9289082169832916
1539732871194252,0.38959334706645343,0.05548180361638799,0.9280537117570766
1539732871210254,0.3792172121766999,0.05401693751430514,0.9326924544136723
1539732871226257,0.37360189211871475,0.052918287937743,0.9402609292744337
1539732871242260,0.38104829480430347,0.04962233920805659,0.9384298466468302
1539732871258262,0.4003356984817277,0.03985656519417091,0.9308613717860688
1539732871274265,0.41095597772182835,0.03680476081483164,0.9286640726329445
1539732871290374,0.41266498817425834,0.044129091325245895,0.928786144808118
1539732871306378,0.41046768902113406,0.05352864881361086,0.9273212787060352
1539732871322381,0.4112001220721755,0.045593957427328746,0.9219501029983981
1539732871338384,0.4003356984817277,0.031189440756847375,0.9317158770122838
1539732871354387,0.3976501106279091,0.029480430304417382,0.9314717326619366
1539732871370390,0.39496452277409055,0.0327763790341038,0.9374532692454416
1539732871386393,0.4032654306858934,0.03472953383688093,0.9336690318150609
1539732871402396,0.4064393072404062,0.035095750362401645,0.9378194857709623
1539732871418399,0.4119325551232169,0.03814755474174092,0.9400167849240866
1539732871434403,0.4203555352101933,0.03997863736934448,0.9395284962233923
1539732871450406,0.41766994735637475,0.03704890516517878,0.9392843518730452
1539732871466409,0.4179140917067219,0.04180971999694805,0.9413595788509959
1539732871482412,0.41010147249561335,0.04742504005493231,0.9409933623254751
1539732871498415,0.3985046158541241,0.04119935912108019,0.948439765011063
1539732871514418,0.4041199359121084,0.03179980163271523,0.9427023727779051
1539732871530421,0.4124208438239112,0.024963759822995257,0.9319600213626309
1539732871546424,0.41474021515220905,0.028381780727855244,0.9276874952315559
1539732871562428,0.4079041733424891,0.03448538948653379,0.9253681239032581
1539732871578431,0.40668345159075336,0.03460746166170736,0.9271992065308616
1539732871594434,0.4146181429770355,0.019104295414663852,0.9236591134508281
1539732871610534,0.4132753490501262,0.007019150072480329,0.9340352483405816
1539732871626538,0.4108339055466548,0.0014038300144960658,0.9365987640192266
1539732871642542,0.4102235446707869,0.0012817578393224949,0.9412375066758223
1539732871658545,0.4098573281452662,0.0025024795910582043,0.9503929198138401
1539732871674549,0.40204470893415767,0.001159685664148924,0.9534447241931794
1539732871690552,0.3830014496070806,0.0021362630655374915,0.9617456321049822
1539732871706556,0.37067215991454905,0.01751735713740743,0.9579613946746015
1539732871722560,0.3604180971999691,0.023254749370565264,0.9480735484855423
1539732871738563,0.36346990157930836,0.0038452735179674846,0.9374532692454416
1539732871754567,0.3747005416952769,-0.014709697108415298,0.9285420004577709
1539732871770570,0.387151903562982,-0.009094377050431035,0.9160906385900667
1539732871786574,0.4093690394445719,-0.005920500495918191,0.9031509880216682
1539732871802578,0.4459906919966432,-0.010559243152513886,0.8815442130159461
1539732871818581,0.47345693141069667,-0.006530861371786045,0.8654306858930338
1539732871834585,0.4850537880521859,0.0060425726710917615,0.8621347371633474
1539732871850588,0.49030289158464946,0.010315098802166744,0.8633554589150831
1539732871866592,0.4889600976577402,0.016906996261539575,0.8655527580682074
1539732871882596,0.48493171587701234,0.015686274509803866,0.8792248416876483
1539732871898599,0.4838330663004502,0.0060425726710917615,0.8859388113221947
1539732871914603,0.4826123445487145,-0.001037613488975353,0.892652780956741
1539732871930664,0.4704051270313574,-0.015075913633936011,0.9153582055390252
1539732871946667,0.4691844052796217,-0.03045700770580595,0.9285420004577709
1539732871962671,0.46588845654993527,-0.037659266041046635,0.9291523613336388
1539732871978675,0.4459906919966432,-0.02252231631952384,0.943312733653773
1539732871994678,0.42304112306401187,-0.002746623941405346,0.951857785915923
1539732872010682,0.40497444113832337,0.008239871824216038,0.9470969710841537
1539732872026685,0.39166857404440414,0.022278171969176697,0.9383077744716566
1539732872042689,0.3787289234760056,0.03289845120927737,0.934767681391623
1539732872058693,0.3757991912718399,0.04229800869764233,0.9348897535667966
1539732872074696,0.38068207827878275,0.040222781719691625,0.9290302891584652
1539732872090700,0.38825055313954415,0.02801556420233453,0.9217059586480509
1539732872106703,0.39288929579613985,0.02911421377889667,0.9179217212176702
1539732872122707,0.3998474097810334,0.03448538948653379,0.9210955977721831
1539732872138711,0.41254291599908477,0.03033493553063238,0.9247577630273902
1539732872154714,0.4132753490501262,0.017151140611886717,0.9345235370412759
1539732872170718,0.4158388647287712,0.017151140611886717,0.9418478675516901
1539732872186721,0.42096589608606116,0.0289921416037231,0.9378194857709623
1539732872202725,0.4170595864805069,0.02276646066987098,0.9519798580910965
1539732872218729,0.41852445258258975,0.012146181429770309,0.9530785076676587
1539732872234732,0.40424200808728195,0.008972304875257464,0.9689478904402229
1539732872250793,0.40973525597009264,0.024719615472648115,0.9540550850690472
1539732872266797,0.41388570992599405,0.054505226214999425,0.952712291142138
1539732872282801,0.41937895780880474,0.09332417792019498,0.9257343404287788
1539732872298805,0.397405966277562,0.1334859235523007,0.9210955977721831
1539732872314809,0.36896314946211906,0.16266117341878417,0.9358663309681852
1539732872330814,0.34552529182879343,0.20294499122606258,0.9270771343556881
1539732872346818,0.33246356908522134,0.26654459449149304,0.8982681010147253
1539732872362822,0.35553521019302625,0.3010910200656136,0.870801861600671
1539732872378826,0.36932936598763977,0.2675211718928816,0.862256809338521
1539732872394830,0.36395819028000265,0.21258869306477468,0.8776379034103918
1539732872410834,0.3537041275654227,0.1747463187609677,0.8903334096284432
1539732872426838,0.35980773632410123,0.1835355153734648,0.8908216983291375
1539732872442842,0.3449149309529256,0.19916075379568188,0.908033875028611
1539732872458846,0.33405050736247777,0.18829633020523406,0.9359884031433587
1539732872474850,0.32611581597619566,0.16021972991531275,0.9440451667048144
1539732872490854,0.3136644541084914,0.13617151140611927,0.966628519111925
1539732872506858,0.3041428244449529,0.12079041733424845,0.976882581826505
1539732872522863,0.28961623559929794,0.10650797283894065,0.9898222323949035
1539732872538867,0.2826581216144044,0.09674219882505497,0.9944609750514992
1539732872554871,0.2781414511329823,0.07953002212558147,0.9970244907301442
1539732872570922,0.26642252231631947,0.05865568017090084,1.0099641412985427
1539732872586927,0.2499427786678874,0.03582818341344307,1.0093537804226749
1539732872602931,0.2348058289463646,0.02655069810025168,0.9980010681315328
1539732872618935,0.21344319829098968,0.03155565728236809,1.0012970168612192
1539732872634939,0.20355535210193043,0.04132143129625376,0.9987335011825742
1539732872650943,0.21234454871442754,0.0365606164644845,0.9934843976501107
1539732872666947,0.2310215915159839,0.019348439765010994,0.9901884489204242
1539732872682951,0.25397116044861523,0.0060425726710917615,0.9844510566872664
1539732872698955,0.2687418936446173,0.00457770656900891,0.9781033035782407
1539732872714959,0.269962615396353,0.006897077897306758,0.9809109636072328
1539732872730963,0.2556801709010452,0.0042114900434881974,0.9922636758983749
1539732872746967,0.242374303807126,0.0018921187151903496,1.0012970168612192
1539732872762972,0.23163195239185175,0.009948882276646032,1.0052033264667735
1539732872778976,0.21820401312275894,0.010437170977340315,1.0045929655909056
1539732872794980,0.20770580605783184,0.010315098802166744,1.008743419546807
1539732872810984,0.19830624856946688,0.010803387502861028,1.006179903868162
1539732872826988,0.19330128938735047,0.009094377050431035,1.0122835126268406
1539732872842992,0.1948882276646069,0.0023804074158846333,1.0117952239261463
1539732872858996,0.1957427328908219,-0.015075913633936011,1.0102082856488899
1539732872875000,0.20379949645227757,-0.025085831998168828,1.0026398107881285
1539732872891021,0.20941481651026184,-0.022278171969176697,0.9940947585259785
1539732872907025,0.20636301213092256,-0.020935378042267416,0.9947051194018464
1539732872923030,0.20685130083161685,-0.028259708552681673,0.99140917067216
1539732872939034,0.205386434729534,-0.03436331731136022,0.9925078202487221
1539732872955038,0.20599679560540185,-0.03155565728236809,0.9953154802777142
1539732872971042,0.21283283741512182,-0.02423132677195383,0.9926298924238957
1539732872987046,0.20587472343022828,-0.02423132677195383,1.00337224383917
1539732873003050,0.20184634164950044,-0.02410925459678026,1.0153353170061798
1539732873019054,0.20929274433508827,-0.020935378042267416,1.0063019760433356
1539732873035058,0.21234454871442754,-0.020935378042267416,1.0009308003356985
1539732873051062,0.204531929503319,-0.024475471122300974,1.0103303578240634
1539732873067066,0.20782787823300541,-0.03033493553063238,1.0050812542916
1539732873083070,0.2066071564812697,-0.03802548256656735,1.0065461203936827
1539732873099074,0.20880445563439398,-0.03607232776379021,1.0043488212405585
1539732873115079,0.21136797131303897,-0.03936827649347663,0.9980010681315328
1539732873131083,0.21368734264133682,-0.049256122682535874,0.9899443045700771
1539732873147087,0.21197833218890683,-0.054383154039825854,0.9934843976501107
1539732873163091,0.21612878614480824,-0.053772793163958,0.9886015106431678
1539732873179095,0.2158846417944611,-0.05474937056534657,0.9860379949645228
1539732873195099,0.21600671396963467,-0.05145342183566015,0.9860379949645228
1539732873211151,0.21454184786755182,-0.058533607995727266,0.9846952010376135
1539732873227155,0.20965896086060898,-0.06353856717784412,0.9940947585259785
1539732873243160,0.20770580605783184,-0.05938811322194226,0.9932402532997635
1539732873259164,0.20428778515297186,-0.05902189669642155,0.9981231403067063
1539732873275169,0.20514229037918685,-0.06121919584954583,0.9967803463797971
1539732873291174,0.21307698176546896,-0.06475928892957983,0.9903105210955978
1539732873307178,0.21905851834897394,-0.07025253681239052,0.9881132219424735
1539732873323183,0.2121004043640804,-0.0783093003738462,0.9992217898832685
1539732873339187,0.20770580605783184,-0.07342641336690336,1.001052872510872
1539732873355192,0.20428778515297186,-0.06939803158617552,1.000808728160525
1539732873371196,0.206240939955749,-0.07196154726482051,1.0015411612115663
1539732873387201,0.20611886778057542,-0.07525749599450693,0.9998321507591363
1539732873403205,0.20758373388265827,-0.07684443427176335,1.0064240482185092
1539732873419210,0.20440985732814543,-0.07354848554207694,1.0021515220874342
1539732873435215,0.2057526512550547,-0.0678110933089191,1.0021515220874342
1539732873451219,0.205386434729534,-0.0640268558785384,1.010452429999237
1539732873467224,0.2103913939116504,-0.0648813611047534,1.0066681925688563
1539732873483228,0.21319905394064254,-0.06927595941100195,1.005325398641947
1539732873499233,0.20904859998474112,-0.06988632028686981,1.0119172961013199
1539732873515237,0.204531929503319,-0.06768902113374553,1.0169222552834363
1539732873531280,0.1961089494163426,-0.06842145418478696,1.0199740596627755
1539732873547285,0.18890669108110192,-0.07171740291447337,1.0254673075455862
1539732873563289,0.18670939192797764,-0.07757686732280478,1.0265659571221484
1539732873579294,0.1881742580300605,-0.07891966124971406,1.024979018844892
1539732873595298,0.18951705195696977,-0.0896620126649883,1.0251010910200655
1539732873611303,0.19598687724116903,-0.10516517891203181,1.0247348744945448
1539732873627308,0.2074616617074847,-0.11786068513008319,1.0191195544365605
1539732873643312,0.21893644617380037,-0.11541924162661177,1.0291294728007934
1539732873659317,0.22882429236285962,-0.10565346761272609,1.0426794842450597
1539732873675321,0.23871213855191886,-0.09356832227054257,1.051712825207904
1539732873691326,0.25421530479896237,-0.0972304875257497,1.0543984130617226
1539732873707330,0.27313649195086587,-0.10418860151064324,1.0740520332646675
1539732873723335,0.29840543221179505,-0.11102464332036321,1.0987106126497288
1539732873739339,0.3611505302510105,-0.10809491111619751,1.0338902876325626
1539732873755344,0.22992294193942175,-0.17010757610437155,0.9740749217975129
1539732873771349,0.6541237506675825,-0.18744182497901862,1.1110399023422595
1539732873787353,1.1615777828641187,-0.4042420080872815,0.9964141298542764
1539732873803358,1.1761043717097737,-0.7389639124132144,0.856275272755016
1539732873819362,1.1305714503700317,-1.174151216906996,0.8469977874418246
1539732873835367,0.6286106660563062,-1.4154879072251467,0.9651636530098422
1539732873851410,0.8427252613107497,-1.414267185473411,0.9608911268787672
1539732873867414,0.8739757381551838,-1.2132143129625392,0.903761348897536
1539732873883419,0.8957045853360803,-1.0126497291523613,0.7619134813458457
1539732873899423,0.8313725490196076,-0.7383535515373465,0.605661097123674
1539732873915428,0.754711223010605,-0.5438925764858471,0.48285648889906163
1539732873931432,0.7189440756847487,-0.3718928816662852,0.41559472037842404
1539732873947437,0.6726787212939653,-0.3228198672465097,0.42304112306401187
1539732873963441,0.6162813763637747,-0.541084916456855,0.613351644159609
1539732873979446,0.6874494544899674,-0.3178149080643933,0.5034866865033951
1539732873995451,0.6310521095597776,-0.35614557106889455,0.5551232166018156
1539732874011455,0.5615930418860149,-0.44452582589456036,0.5077592126344701
1539732874027460,0.7290760662241551,-0.5761196307316703,0.5297322041657129
1539732874043464,0.6907454032196538,-0.6792706187533377,0.5070267795834287
1539732874059469,0.7635004196231021,-0.7752193484397649,0.47895017929350736
1539732874075473,0.7404287785152972,-0.8476081483176929,0.4690623331044481
1539732874091478,0.7545891508354314,-0.8865491721980621,0.44916456855115605
1539732874107483,0.7658197909514,-0.7987792782482641,0.458564126039521
1539732874123487,0.7735103379873349,-0.7150377660791944,0.45929655909056244
1539732874139492,0.7886472877088577,-0.6890363927672238,0.5133745326924544
1539732874155496,0.7898680094605934,-0.6548561837186235,0.5387655451285571
1539732874171569,0.7620355535210193,-0.6045624475471123,0.5547570000762949
1539732874187574,0.7373769741359579,-0.5668421454184789,0.6098115510795754
1539732874203580,0.7199206530861373,-0.555855649652857,0.6538796063172354
1539732874219585,0.6787823300526439,-0.5142290379186694,0.6728007934691389
1539732874235590,0.6801251239795532,-0.4218204013122757,0.6577859159227897
1539732874251595,0.6597390707255668,-0.34442664225223174,0.6433813992523083
1539732874267600,0.6470435645075154,-0.32001220721751755,0.6343480582894641
1539732874283605,0.6041962310215911,-0.33856717784390034,0.661692225528344
1539732874299610,0.5863736934462498,-0.33514915693904035,0.7014877546349281
1539732874315615,0.6232394903486682,-0.3020675974670022,0.7069810025177388
1539732874331620,0.647165636682689,-0.2604409857328145,0.6915999084458688
1539732874347625,0.6122529945830468,-0.21405355916685753,0.6753643091477839
1539732874363630,0.608224612802319,-0.17022964827954512,0.6576638437476161
1539732874379635,0.6018768596932933,-0.13983367666132596,0.6542458228427561
1539732874395640,0.6372777904936298,-0.14447241931792165,0.6269016556038762
1539732874411645,0.5917448691538869,-0.15716792553597303,0.6034637979705497
1539732874427650,0.5568322270542456,-0.15973144121461802,0.5736781872281984
1539732874443655,0.5340047302967879,-0.15326161593041876,0.5474326695658807
1539732874459660,0.5528038452735178,-0.1619287403677423,0.5387655451285571
1539732874475665,0.6510719462882433,-0.17804226749065366,0.5358358129243914
1539732874491729,0.7584954604409857,-0.16168459601739515,0.5224078736552986
1539732874507734,0.8386968795300218,-0.12262149996185245,0.5016556038757916
1539732874523739,0.8413824673838404,-0.12469672693980316,0.5382772564278628
1539732874539744,0.8559090562294953,-0.12799267566948958,0.6094453345540547
1539732874555750,0.9153582055390252,-0.10284580758373396,0.696116578927291
1539732874571755,0.9636987869077593,-0.07891966124971406,0.804516670481422
1539732874587760,0.9926298924238957,-0.092591744869154,0.8777599755855654
1539732874603765,0.9770046540016786,-0.08892957961394687,0.8642099641412981
1539732874619770,1.3190508888380252,0.008972304875257464,0.7711909666590371
1539732874635775,1.2564278629739833,0.15838864728770918,0.6321507591363398
1539732874651780,1.1809872587167165,0.16778820477607415,0.5767299916075377
1539732874667785,1.019851987487602,0.24786755168993668,0.5027542534523537
1539732874683790,0.8198977645532919,0.38202487220569203,0.44501411459525464
1539732874699795,0.6228732738231475,0.47809567406729236,0.4070496681162741
1539732874715800,0.44745555809872606,0.5366903181506064,0.35638971541924125
1539732874731805,0.3191577019913021,0.6276340886549177,0.20233463035019472
1539732874747810,0.27692072938124657,0.602243076218814,0.08538948653391287
1539732874763815,0.2048981460288397,0.21930266269932108,0.07586785687037434
1539732874779820,0.17962920576791053,-0.30597390707255645,0.2003814755474176
1539732874795825,0.23553826199740602,-0.7176012817578394,0.5873502708476384
1539732874811859,0.35638971541924125,-0.24896620126649882,0.8573739223315782
1539732874827864,0.4162050812542919,0.814160372320134,1.019851987487602
1539732874843870,0.1742580300602734,1.5860227359426258,0.9158464942397195
1539732874859875,0.10052643625543567,1.255695429922942,0.7562981612878614
1539732874875881,0.21368734264133682,0.6102998397802697,0.6400854505226219
1539732874891886,0.21393148699168396,0.5571984435797663,0.39447623407339627
1539732874907892,0.024841687647821686,0.941603723201343,0.26178377965972377
1539732874923897,-0.2923018234531165,0.9849393453879607,0.6736552986953539
1539732874939903,0.36151674677653123,0.9042496375982303,1.0965133134966045
1539732874955908,0.5123979552910658,0.9677271686884872,0.6648661020828568
1539732874971914,0.3246509498741128,1.0703898680094603,0.2573891813534752
1539732874987919,0.2764324406805523,1.181963836118105,-0.0357061112382695
1539732875003925,0.21857022964827966,1.1050583657587545,-0.17853055619134794
1539732875019930,0.17914091706721624,0.9464866102082858,-0.11688410772869462
1539732875035936,0.20965896086060898,0.8972915236133368,0.04315251392385733
1539732875051941,0.25226214999618524,0.8601815823605703,0.23334096284428174
1539732875067947,0.2726482032501716,0.8216067750057219,0.3578545815213241
1539732875083953,0.2864423590447851,0.8643320363164717,0.3570000762951091
1539732875099958,0.2977950713359272,0.987136644541085,0.2604409857328145
1539732875115964,0.3032883192187379,1.0749065384908825,0.16510261692225559
1539732875131988,0.2985275043869686,1.0847943846799417,0.11480888075074347
1539732875147994,0.279362172884718,1.0316929884794384,0.11920347905699202
1539732875163999,0.24310673685816742,0.9679713130388343,0.15545891508354348
1539732875180005,0.2171053635461968,0.9064469367513546,0.20221255817502115
1539732875196010,0.21234454871442754,0.8906996261539639,0.22272068360418107
1539732875212016,0.21808194094758537,0.9094987411306938,0.2153963530937668
1539732875228021,0.20904859998474112,0.9291523613336388,0.20013733119707044
1539732875244027,0.20856031128404684,0.9307392996108952,0.18756389715419264
1539732875260032,0.20965896086060898,0.9236591134508281,0.19830624856946688
1539732875276038,0.22211032272831321,0.9047379262989246,0.22113374532692465
1539732875292043,0.2318760967421989,0.8842298008697647,0.23700312809948887
1539732875308049,0.24176394293125814,0.8916762035553525,0.2435950255588617
1539732875324054,0.24847791256580454,0.9163347829404138,0.22149996185244536
1539732875340060,0.2427405203326467,0.931349660486763,0.16217288471808988
1539732875356065,0.24249637598229956,0.9333028152895402,0.11541924162661132
1539732875372071,0.24493781948577098,0.9312275883115895,0.13324177920195357
1539732875388076,0.2533607995727474,0.9326924544136723,0.17328145265888484
1539732875404082,0.24725719081406883,0.9359884031433587,0.1826810101472498
1539732875420087,0.2385900663767453,0.939894712748913,0.1532616159304192
1539732875436093,0.23077744716563675,0.9469748989089801,0.12909132524605216
1539732875452118,0.2339513237201496,0.9580834668497751,0.12005798428320702
1539732875468123,0.23163195239185175,0.97773708705272,0.11114671549553634
1539732875484129,0.22565041580834677,0.9793240253299764,0.10284580758373352
1539732875500134,0.2208896009765775,0.9655298695353629,0.10028229190508853
1539732875516140,0.22577248798352034,0.9319600213626309,0.10638590066376707
1539732875532145,0.23834592202639815,0.943312733653773,0.10394445716029566
1539732875548151,0.24603646906233312,0.942458228427558,0.0945448996719307
1539732875564156,0.24689097428854812,0.9258564126039524,0.08783093003738429
1539732875580162,0.25519188220035094,0.9239032578011752,0.07953002212558147
1539732875596167,0.25897611963073164,0.9419699397268637,0.0642710002288851
1539732875612173,0.2594644083314259,0.9594262607766844,0.05914396887159512
1539732875628178,0.2599526970321202,0.9689478904402229,0.05645838101777656
1539732875644184,0.2632486457618066,0.9724879835202564,0.05621423666742942
1539732875660189,0.26361486228732733,0.9715114061188679,0.05523765926604085
1539732875676195,0.2666666666666666,0.9704127565423057,0.04986648355840373
1539732875692200,0.2625162127107652,0.9719996948195622,0.03704890516517878
1539732875708206,0.25690089265278093,0.9706569008926529,0.025574120698863112
1539732875724211,0.2566567483024338,0.9638208590829329,0.021789883268482413
1539732875740217,0.26312657358663305,0.9595483329518579,0.039124132143129486
1539732875756222,0.2743572137026016,0.9610131990539408,0.05865568017090084
1539732875772247,0.2835126268406194,0.9627222095063708,0.06817730983443937
1539732875788252,0.2868085755703058,0.96919203479057,0.06817730983443937
1539732875804258,0.2833905546654458,0.9629663538567179,0.05645838101777656
1539732875820263,0.2831464103150987,0.9605249103532465,0.05792324711985941
1539732875836269,0.2974288548104065,0.96577401388571,0.06707866025787723
1539732875852275,0.30170138094148147,0.9562523842221715,0.07757686732280433
1539732875868280,0.2915693904020751,0.9571068894483865,0.06549172198062081
1539732875884286,0.28619821469443796,0.9621118486305029,0.044251163500419466
1539732875900291,0.28253604943923083,0.9636987869077593,0.041687647821774476
1539732875916297,0.2838788433661401,0.9641870756084536,0.05401693751430514
1539732875932302,0.28290226596475154,0.9601586938277258,0.05792324711985941
1539732875948308,0.277653162432288,0.9539330128938737,0.04876783398184159
1539732875964313,0.2704509040970473,0.9447775997558558,0.03985656519417091
1539732875980319,0.26861982146944374,0.9431906614785994,0.03961242084382377
1539732875996324,0.26947432669565874,0.9499046311131458,0.05011062790875087
1539732876012330,0.26483558403906304,0.9555199511711301,0.06121919584954583
1539732876028335,0.26398107881284805,0.9633325703822386,0.0613412680247194
1539732876044341,0.2697184710460059,0.9630884260318915,0.05474937056534657
1539732876060346,0.27154955367360945,0.9582055390249486,0.04852368963149445
1539732876076352,0.2695963988708323,0.9513694972152287,0.05267414358739586
1539732876092376,0.26105134660868234,0.9464866102082858,0.061097123674372256
1539732876108382,0.2590981918059052,0.9485618371862365,0.06475928892957938
1539732876124387,0.2586099031052109,0.9540550850690472,0.06182955672541368
1539732876140393,0.26056305790798806,0.9558861676966508,0.06402685587853796
1539732876156398,0.2632486457618066,0.9511253528648815,0.06817730983443937
1539732876172404,0.274235141527428,0.9453879606317237,0.07672236209658934
1539732876188409,0.2688639658197909,0.9434348058289466,0.07232776379034078
1539732876204415,0.2650797283894102,0.9500267032883194,0.055970092317082276
1539732876220420,0.2600747692072938,0.954421301594568,0.05242999923704872
1539732876236426,0.2658121614404516,0.9567406729228658,0.056946669718470844
1539732876252431,0.26263828488593877,0.947585259784848,0.0634164950026701
1539732876268437,0.25299458304722666,0.945876249332418,0.059632257572289404
1539732876284443,0.24029907682917528,0.9442893110551616,0.05609216449225585
1539732876300448,0.24884412909132525,0.9524681467917908,0.05609216449225585
1539732876316454,0.25885404745555807,0.952712291142138,0.06207370107576082
1539732876332459,0.26361486228732733,0.9550316624704358,0.06268406195162868
1539732876348465,0.2667887388418402,0.9573510337987337,0.059754329747462975
1539732876364470,0.26935225452048517,0.9600366216525522,0.059632257572289404
1539732876380476,0.26825360494392303,0.9623559929808501,0.06439307240405867
1539732876396481,0.26947432669565874,0.964919508659495,0.06878767071030722
1539732876412506,0.26849774929427017,0.9633325703822386,0.06964217593652222
1539732876428512,0.26898603799496446,0.9619897764553293,0.0659800106813151
1539732876444518,0.2653238727397573,0.9604028381780729,0.0651255054551001
1539732876460524,0.2649576562142366,0.9583276112001222,0.06195162890058725
1539732876476530,0.2649576562142366,0.9530785076676587,0.06268406195162868
1539732876492536,0.26349279011215376,0.947585259784848,0.06817730983443937
1539732876508542,0.26019684138246735,0.9495384145876251,0.06182955672541368
1539732876524548,0.24933241779201953,0.937331197070268,0.058411535820553695
1539732876540554,0.2511635004196231,0.9439230945296408,0.05255207141222229
1539732876556560,0.2520180056458381,0.946730754558633,0.05487144274052014
1539732876572566,0.25299458304722666,0.951857785915923,0.06207370107576082
1539732876588572,0.2533607995727474,0.9571068894483865,0.05865568017090084
1539732876604578,0.2586099031052109,0.9638208590829329,0.05645838101777656
1539732876620584,0.2587319752803845,0.9669947356374458,0.05011062790875087
1539732876636590,0.25433737697413594,0.9633325703822386,0.0424200808728159
1539732876652596,0.24835584039063097,0.9555199511711301,0.046814679179064456
1539732876668602,0.24982070649271382,0.9506370641641873,0.05218585488670158
1539732876684608,0.25299458304722666,0.9491721980621044,0.05682459754329727
1539732876700614,0.25433737697413594,0.950148775463493,0.059754329747462975
1539732876716620,0.25177386129549095,0.9336690318150609,0.055725947966735134
1539732876732635,0.2545815213244831,0.9329365987640195,0.04693675135423803
1539732876748641,0.25934233615625235,0.9486839093614101,0.0327763790341038
1539732876764647,0.2592202639810788,0.9626001373311972,0.03204394598306237
1539732876780653,0.2592202639810788,0.9732204165712979,0.045471885252155175
1539732876796659,0.25885404745555807,0.9699244678416115,0.050598916609445155
1539732876812665,0.25799954222934307,0.9556420233463037,0.053162432288090145
1539732876828671,0.25519188220035094,0.9408712901503016,0.04754711223010588
1539732876844677,0.2562905317769131,0.9368429083695737,0.039124132143129486
1539732876860683,0.2604409857328145,0.9453879606317237,0.03472953383688093
1539732876876689,0.26556801709010447,0.9563744563973451,0.02911421377889667
1539732876892695,0.26947432669565874,0.9633325703822386,0.028625925078202386
1539732876908701,0.2688639658197909,0.9569848172732129,0.031189440756847375
1539732876924707,0.26654459449149304,0.9477073319600215,0.02911421377889667
1539732876940713,0.26483558403906304,0.9452658884565501,0.026184481574730967
1539732876956719,0.2650797283894102,0.9536888685435265,0.03057907988097952
1539732876972725,0.27106126497291516,0.9660181582360572,0.03997863736934448
1539732876988731,0.26825360494392303,0.9628442816815443,0.050476844434271584
1539732877004737,0.27277027542534515,0.9586938277256429,0.042786297398336615
1539732877020743,0.2726482032501716,0.9611352712291144,0.03057907988097952
1539732877036749,0.2813153276874951,0.9645532921339743,0.025696192874036683
1539732877052765,0.28033875028610655,0.9613794155794615,0.03070115205615309
1539732877068771,0.276798657206073,0.9594262607766844,0.03607232776379021
1539732877084777,0.27020675974670016,0.9575951781490808,0.0327763790341038
1539732877100782,0.272526131074998,0.9542992294193944,0.03607232776379021
1539732877116788,0.2821698329137101,0.9532005798428322,0.03704890516517878
1539732877132794,0.28241397726405726,0.9550316624704358,0.03546196688792236
1539732877148800,0.28290226596475154,0.9580834668497751,0.029480430304417382
1539732877164806,0.2842450598916608,0.9619897764553293,0.02777141985198739
1539732877180812,0.28412298771648725,0.9451438162813766,0.04083314259555948
1539732877196818,0.2838788433661401,0.9567406729228658,0.036316472114137355
1539732877212824,0.2842450598916608,0.9641870756084536,0.03204394598306237
1539732877228830,0.2830243381399251,0.9633325703822386,0.022156099794003126
1539732877244836,0.281925688563363,0.9573510337987337,0.026306553749904538
1539732877260842,0.279362172884718,0.9500267032883194,0.02935835812924381
1539732877276848,0.28155947203784226,0.9439230945296408,0.033875028610665936
1539732877292854,0.28632028686961153,0.9270771343556881,0.05011062790875087
1539732877308860,0.2857099259937437,0.9401388570992602,0.024475471122300974
1539732877324866,0.2838788433661401,0.9479514763103687,0.022034027618829555
1539732877340872,0.2880292973220415,0.9451438162813766,0.015686274509803866
1539732877356878,0.2847333485923551,0.9422140840772109,0.024353398947127403
1539732877372894,0.27826352330815585,0.9378194857709623,0.03045700770580595
1539732877388900,0.2695963988708323,0.9428244449530787,0.03302052338445094
1539732877404906,0.2728923476005187,0.9456321049820708,0.03265430685893023
1539732877420912,0.27606622415503157,0.9400167849240866,0.04058899824521234
1539732877436918,0.2864423590447851,0.9517357137407494,0.030823224231326662
1539732877452924,0.2902265964751658,0.9528343633173115,0.027649347676813818
1539732877468930,0.2898603799496451,0.9533226520180058,0.015442130159456724
1539732877484936,0.29120317387655437,0.9502708476386665,0.0012817578393224949
1539732877500942,0.28961623559929794,0.950148775463493,3.0518043793392735E-4
1539732877516948,0.29217975127794293,0.9472190432593273,0.00323491264209963
1539732877532954,0.29462119478141435,0.949294270237278,0.008117799649042468
1539732877548960,0.29840543221179505,0.9541771572442208,0.008117799649042468
1539732877564966,0.3028000305180436,0.9550316624704358,0.0037232013427939137
1539732877580972,0.30353246356908503,0.952712291142138,5.493247882810692E-4
1539732877596978,0.30353246356908503,0.942458228427558,0.009460593575951748
1539732877612984,0.3074387731746393,0.9362325474937059,0.018249790188448856
1539732877628990,0.31122301060502,0.9376974135957887,0.017273212787060288
1539732877644996,0.31146715495536714,0.9457541771572444,0.010803387502861028
1539732877661002,0.31134508278019357,0.9550316624704358,0.007629510948348184
1539732877677008,0.3057297627222093,0.9558861676966508,0.006897077897306758
1539732877693054,0.2995040817883572,0.9494163424124515,0.003112840466926059
1539732877709060,0.2982833600366215,0.9406271457999544,0.001159685664148924
1539732877725066,0.30096894789044004,0.9358663309681852,-5.493247882810692E-4
1539732877741072,0.28998245212481866,0.9337911039902345,-0.003356984817273201
1539732877757078,0.3053635461966886,0.9401388570992602,0.012878614480811734
1539732877773084,0.3134203097581443,0.9419699397268637,0.0022583352407110624
1539732877789090,0.30048065918974576,0.9569848172732129,-0.011413748378728883
1539732877805096,0.3141527428091857,0.9572289616235601,0.008606088349736751
1539732877821102,0.30463111314564717,0.9457541771572444,-0.0021362630655374915
1539732877837108,0.29217975127794293,0.933913176165408,0.0040894178683146265
1539732877853114,0.2947432669565879,0.934767681391623,0.017883573662928143
1539732877869120,0.2986495765621422,0.9413595788509959,0.02398718242160669
1539732877885126,0.2960860608834972,0.950148775463493,0.02008087281605242
1539732877901132,0.29498741130693507,0.9511253528648815,0.009460593575951748
1539732877917138,0.2955977721828029,0.9417257953765166,0.0042114900434881974
1539732877933144,0.2990157930876629,0.9345235370412759,0.009094377050431035
1539732877949150,0.3015793087663079,0.9358663309681852,0.018005645838101714
1539732877965156,0.30096894789044004,0.9372091248950944,0.0214236667429617
1539732877981162,0.3020675974670022,0.9405050736247809,0.017029068436713146
1539732877997168,0.30389868009460574,0.9409933623254751,0.013000686655985305
1539732878013183,0.30841535057602787,0.9473411154345008,0.011779964904249596
1539732878029189,0.30719462882429216,0.9485618371862365,0.014587624933241727
1539732878045195,0.30463111314564717,0.9469748989089801,0.015197985809109582
1539732878061201,0.3037766079194322,0.9401388570992602,0.015320057984283153
1539732878077207,0.312077515831235,0.9408712901503016,0.00970473792629889
1539732878093213,0.31854734111543426,0.9413595788509959,0.010437170977340315
1539732878109219,0.31317616540779714,0.9375753414206152,0.007751583123521755
1539732878125225,0.30926985580224287,0.9362325474937059,0.006408789196612474
1539732878141231,0.30341039139391146,0.9481956206607158,0.007263294422827471
1539732878157237,0.2886396581979094,0.9523460746166172,0.029602502479590953
1539732878173243,0.27911802853437084,0.9445334554055087,0.044007019150072324
1539732878189249,0.27875181200885013,0.9341573205157552,0.03533989471274879
1539732878205255,0.28583199816891725,0.9326924544136723,0.014465552758068156
1539732878221261,0.2965743495841915,0.9429465171282523,0.010193026626993174
1539732878237267,0.3024338139925229,0.9545433737697415,0.024353398947127403
1539732878253273,0.3037766079194322,0.9562523842221715,0.04058899824521234
1539732878269279,0.3010910200656136,0.9507591363393608,0.033630884260318794
1539732878285285,0.2991378652628365,0.944167238879988,0.019592584115358136
1539732878301291,0.3003585870145722,0.9409933623254751,0.009216449225604606
1539732878317297,0.30426489662012646,0.9403830014496073,0.007873655298695326
1539732878333313,0.3087815671015486,0.9392843518730452,0.012024109254596738
1539732878349319,0.30634012359807716,0.9409933623254751,0.014465552758068156
1539732878365325,0.2999923704890515,0.9412375066758223,0.010070954451819603
1539732878381331,0.29510948348210864,0.9427023727779051,0.005920500495918191
1539732878397337,0.2982833600366215,0.946730754558633,0.003112840466926059
1539732878413343,0.2926680399786372,0.9442893110551616,0.006286717021438903
1539732878429349,0.2952315556572822,0.9446555275806823,0.006408789196612474
1539732878445355,0.3023117418173493,0.944167238879988,0.008728160524910322
1539732878461361,0.310368505378805,0.9496604867627987,0.018127718013275285
1539732878477367,0.31146715495536714,0.9508812085145344,0.020691233691920274
1539732878493373,0.30975814450293715,0.9489280537117573,0.00970473792629889
1539732878509379,0.3010910200656136,0.942458228427558,0.012024109254596738
1539732878525385,0.30084687571526647,0.9417257953765166,0.019836728465705278
1539732878541391,0.31097886625467286,0.9442893110551616,0.028870069428549527
1539732878557397,0.3124437323567557,0.9480735484855423,0.02923628595407024
1539732878573403,0.3075608453498129,0.9494163424124515,0.015686274509803866
1539732878589408,0.3023117418173493,0.945876249332418,0.0060425726710917615
1539732878605414,0.3024338139925229,0.9444113832303351,0.0071412222476539
1539732878621420,0.30609597924773,0.9479514763103687,0.013244831006332447
1539732878637426,0.3040207522697793,0.9496604867627987,0.013977264057373873
1539732878653473,0.30096894789044004,0.9457541771572444,0.008972304875257464
1539732878669479,0.29803921568627434,0.9397726405737394,0.009460593575951748
1539732878685485,0.3028000305180436,0.9396505683985659,0.00848401617456318
1539732878701492,0.30060273136491933,0.9396505683985659,0.006897077897306758
1539732878717498,0.2962081330586708,0.9402609292744337,0.002868696116578917
1539732878733505,0.29633020523384435,0.939040207522698,0.002990768291752488
1539732878749511,0.2995040817883572,0.9418478675516901,0.005676356145571049
1539732878765518,0.3012130922407872,0.9439230945296408,0.005554283970397478
1539732878781524,0.29755092698558006,0.9396505683985659,0.002990768291752488
1539732878797531,0.30353246356908503,0.9386739909971773,3.0518043793392735E-4
1539732878813537,0.3081712062256807,0.9392843518730452,-0.0022583352407110624
1539732878829544,0.31097886625467286,0.9295185778591595,-0.0014038300144960658
1539732878845550,0.30634012359807716,0.950148775463493,-0.011291676203555312
1539732878861557,0.3020675974670022,0.9644312199588008,-0.015320057984283153
1539732878877563,0.3012130922407872,0.9645532921339743,-0.008239871824216038
1539732878893570,0.30048065918974576,0.9560082398718244,-0.0109254596780346
1539732878909576,0.2977950713359272,0.9405050736247809,-0.014099336232547444
1539732878925583,0.29340047302967864,0.9298847943846802,-0.017883573662928143
1539732878941589,0.2924238956282901,0.9278095674067295,-0.018127718013275285
1539732878957595,0.2947432669565879,0.9337911039902345,-0.007629510948348184
1539732878973602,0.306950484473945,0.9169451438162817,0.011535820553902454
1539732878989608,0.3015793087663079,0.9290302891584652,0.00982681010147246
1539732879005615,0.2990157930876629,0.9573510337987337,-0.02130159456778813
1539732879021621,0.2964522774090179,0.9605249103532465,-0.02923628595407024
1539732879037628,0.2998702983138779,0.9503929198138401,-0.022278171969176697
1539732879053634,0.3074387731746393,0.9386739909971773,-0.007385366598001042
1539732879069641,0.3029221026932172,0.9352559700923173,-0.005920500495918191
1539732879085647,0.2965743495841915,0.9418478675516901,-0.022156099794003126
1539732879101654,0.29462119478141435,0.9533226520180058,-0.02532997634851597
1539732879117660,0.3032883192187379,0.9555199511711301,-0.019714656290531707
1539732879133667,0.30560769054703574,0.9491721980621044,-0.013366903181506018
1539732879149673,0.29962615396353076,0.9438010223544673,-0.016540779736018862
1539732879165680,0.29169146257724865,0.9405050736247809,-0.023376821545738835
1539732879181686,0.2918135347524222,0.9429465171282523,-0.024475471122300974
1539732879197692,0.30133516441596075,0.9473411154345008,-0.015075913633936011
1539732879213699,0.30048065918974576,0.9479514763103687,-0.013000686655985305
1539732879229705,0.3012130922407872,0.9457541771572444,-0.01483176928358887
1539732879245712,0.30341039139391146,0.945021744106203,-0.019714656290531707
1539732879261718,0.30170138094148147,0.947585259784848,-0.020813305867093845
1539732879277725,0.2999923704890515,0.948439765011063,-0.019714656290531707
1539732879293731,0.29840543221179505,0.9486839093614101,-0.01995880064087885
1539732879309738,0.29974822613870433,0.9474631876096744,-0.018249790188448856
1539732879325744,0.29889372091248934,0.944167238879988,-0.01629663538567172
1539732879341751,0.30353246356908503,0.9434348058289466,-0.023620965896085977
1539732879357757,0.30341039139391146,0.9456321049820708,-0.03057907988097952
1539732879373764,0.30255588616769646,0.9479514763103687,-0.03314259555962451
1539732879389770,0.31183337148088786,0.946730754558633,-0.02252231631952384
1539732879405777,0.3250171663996335,0.9457541771572444,-0.010681315327687457
1539732879421783,0.3334401464866099,0.9395284962233923,-0.009582665751125319
1539732879437790,0.3220874341954678,0.9352559700923173,-0.020691233691920274
1539732879453796,0.30060273136491933,0.9248798352025638,-0.01886015106431671
1539732879469802,0.2864423590447851,0.9087663080796524,-0.01239032578011745
1539732879485809,0.28119325551232155,0.8992446784161139,-0.006530861371786045
1539732879501815,0.28168154421301583,0.9207293812466624,-0.026306553749904538
1539732879517822,0.2888838025482565,0.9564965285725187,-0.04449530785076661
1539732879533828,0.30060273136491933,0.9741969939726864,-0.052063782711528006
1539732879549835,0.30182345311665504,0.97773708705272,-0.04779125658045302
1539732879565841,0.3002365148393986,0.9673609521629665,-0.0319218738078888
1539732879581848,0.3100022888532843,0.9513694972152287,-0.028137636377508102
1539732879597854,0.31866941329060783,0.9372091248950944,-0.03314259555962451
1539732879613861,0.3167162584878307,0.9291523613336388,-0.04510566872663446
1539732879629867,0.3036545357442586,0.928786144808118,-0.051819638361180864
1539732879645874,0.2965743495841915,0.933913176165408,-0.0567025253681237
1539732879661880,0.29877164873731576,0.9414816510261694,-0.049500267032883016
1539732879677887,0.2982833600366215,0.9413595788509959,-0.03729304951552592
1539732879693893,0.30511940184634145,0.9403830014496073,-0.031189440756847375
1539732879709900,0.30951400015259,0.9414816510261694,-0.0252079041733424
1539732879725906,0.3145189593347064,0.9405050736247809,-0.03057907988097952
1539732879741912,0.31354238193331785,0.9383077744716566,-0.03802548256656735
1539732879757919,0.3162279697871364,0.936476691844053,-0.044129091325245895
1539732879773925,0.30719462882429216,0.9353780422674909,-0.046814679179064456
1539732879789932,0.29925993743801005,0.9392843518730452,-0.05804531929503298
1539732879805938,0.2902265964751658,0.9362325474937059,-0.06988632028686981
1539732879821945,0.2947432669565879,0.9378194857709623,-0.07147325856412623
1539732879837951,0.3125658045319293,0.946730754558633,-0.0567025253681237
1539732879853958,0.32526131074998066,0.9534447241931794,-0.041687647821774476
1539732879869964,0.32196536202029424,0.9547875181200887,-0.03472953383688093
1539732879885971,0.3157396810864421,0.9558861676966508,-0.04522774090180803
1539732879901977,0.31097886625467286,0.9545433737697415,-0.05999847409781012
1539732879917984,0.30853742275120144,0.9511253528648815,-0.07293812466620908
1539732879933990,0.3096360723277636,0.948439765011063,-0.07611200122072193
1539732879949997,0.3136644541084914,0.9445334554055087,-0.06793316548409267
1539732879966003,0.3141527428091857,0.938185702296483,-0.055970092317082276
1539732879982010,0.315495536736095,0.9378194857709623,-0.053284504463263715
1539732879998016,0.31183337148088786,0.9423361562523844,-0.055970092317082276
1539732880014022,0.3136644541084914,0.9464866102082858,-0.06475928892957983
1539732880030029,0.31476310368505356,0.9468528267338066,-0.06988632028686981
1539732880046035,0.31525139238574784,0.9422140840772109,-0.06524757763027411
1539732880062042,0.3183031967650871,0.9378194857709623,-0.05889982452124798
1539732880078048,0.3212329289692528,0.9341573205157552,-0.056946669718470844
1539732880094055,0.3175707637140457,0.9374532692454416,-0.05743495841916513
1539732880110061,0.3141527428091857,0.9397726405737394,-0.0604867627985044
1539732880126068,0.31061264972915215,0.9406271457999544,-0.0686655985351341
1539732880142074,0.31122301060502,0.9392843518730452,-0.07257190814068837
1539732880158081,0.3081712062256807,0.9372091248950944,-0.07598992904554835
1539732880174087,0.305241474021515,0.9307392996108952,-0.07318226901655622
1539732880190094,0.3031662470435643,0.9270771343556881,-0.06805523765926624
1539732880206100,0.3045090409704736,0.9286640726329445,-0.0613412680247194
1539732880222107,0.305241474021515,0.933913176165408,-0.05389486533913157
1539732880238113,0.30463111314564717,0.9350118257419702,-0.0567025253681237
1539732880254119,0.3032883192187379,0.9351338979171437,-0.06414892805371197
1539732880270126,0.30133516441596075,0.9336690318150609,-0.0678110933089191
1539732880286132,0.30218966964217575,0.9378194857709623,-0.0736705577172505
1539732880302139,0.30048065918974576,0.9353780422674909,-0.06964217593652267
1539732880318145,0.29962615396353076,0.9341573205157552,-0.0613412680247194
1539732880334152,0.3037766079194322,0.9353780422674909,-0.05804531929503298
1539732880350158,0.2985275043869686,0.9359884031433587,-0.055970092317082276
1539732880366165,0.2953536278324558,0.9291523613336388,-0.05804531929503298
1539732880382171,0.2962081330586708,0.9306172274357216,-0.05889982452124798
1539732880398178,0.3041428244449529,0.9342793926909287,-0.06182955672541368
1539732880414184,0.2995040817883572,0.9378194857709623,-0.05792324711985941
1539732880430191,0.2985275043869686,0.9403830014496073,-0.054627298390172996
1539732880446197,0.2976729991607536,0.9362325474937059,-0.060975051499198685
1539732880462204,0.30011444266422505,0.9289082169832916,-0.06121919584954583
1539732880478210,0.3091477836270693,0.9308613717860688,-0.05804531929503298
1539732880494217,0.306950484473945,0.9358663309681852,-0.06060883497367797
1539732880510223,0.30048065918974576,0.9396505683985659,-0.06414892805371197
1539732880526229,0.3012130922407872,0.9442893110551616,-0.07000839246204338
1539732880542236,0.3031662470435643,0.944167238879988,-0.0707408255130848
1539732880558242,0.30133516441596075,0.9380636301213094,-0.0695201037613491
1539732880574279,0.2973067826352329,0.9358663309681852,-0.06829938200961339
1539732880590286,0.29596398870832363,0.9325703822384988,-0.07013046463721695
1539732880606292,0.29510948348210864,0.9359884031433587,-0.06744487678339839
1539732880622299,0.3036545357442586,0.9406271457999544,-0.0678110933089191
1539732880638305,0.3053635461966886,0.9468528267338066,-0.06195162890058725
1539732880654312,0.30463111314564717,0.9505149919890137,-0.06451514457923269
1539732880670318,0.3002365148393986,0.9470969710841537,-0.0686655985351341
1539732880686325,0.3036545357442586,0.9453879606317237,-0.07196154726482051
1539732880702331,0.3074387731746393,0.937331197070268,-0.06829938200961339
1539732880718338,0.3065842679484243,0.9341573205157552,-0.06439307240405912
1539732880734344,0.3041428244449529,0.934767681391623,-0.06207370107576082
1539732880750351,0.30353246356908503,0.9386739909971773,-0.059632257572289404
1539732880766357,0.30389868009460574,0.9411154345006487,-0.06060883497367797
1539732880782364,0.3037766079194322,0.9430685893034259,-0.06475928892957983
1539732880798370,0.3048752574959943,0.9314717326619366,-0.06353856717784412
1539732880814376,0.30426489662012646,0.9318379491874573,-0.06536964980544768
1539732880830383,0.3049973296711679,0.9342793926909287,-0.06842145418478696
1539732880846389,0.3070725566491186,0.9342793926909287,-0.07281605249103551
1539732880862396,0.30926985580224287,0.9359884031433587,-0.07598992904554835
1539732880878402,0.30353246356908503,0.9342793926909287,-0.08441290913252475
1539732880894439,0.3036545357442586,0.933913176165408,-0.08770885786221116
1539732880910446,0.3040207522697793,0.9337911039902345,-0.08526741435873975
1539732880926452,0.3107347219043257,0.9387960631723509,-0.08282597085526833
1539732880942459,0.3153734645609214,0.9400167849240866,-0.08160524910353262
1539732880958465,0.32074464026855853,0.9440451667048144,-0.0875867856870376
1539732880974472,0.31635004196231,0.9459983215075916,-0.09149309529259186
1539732880990478,0.31219958800640857,0.943312733653773,-0.1018692301823454
1539732881006485,0.3053635461966886,0.9395284962233923,-0.10138094148165111
1539732881022491,0.3124437323567557,0.9350118257419702,-0.093446250095369
1539732881038498,0.3162279697871364,0.9331807431143666,-0.08160524910353262
1539732881054504,0.31635004196231,0.9276874952315559,-0.08087281605249119
1539732881070510,0.30951400015259,0.9245136186770431,-0.0875867856870376
1539732881086517,0.30560769054703574,0.9245136186770431,-0.09295796139467472
1539732881102523,0.3124437323567557,0.9282978561074238,-0.08990615701533544
1539732881118530,0.3141527428091857,0.9295185778591595,-0.08270389868009476
1539732881134536,0.31183337148088786,0.9337911039902345,-0.07977416647592905
1539732881150543,0.31403067063401213,0.9387960631723509,-0.08172732127870619
1539732881166549,0.31635004196231,0.9428244449530787,-0.08685435263599617
1539732881182556,0.3132982375829707,0.944167238879988,-0.09271381704432757
1539732881198562,0.31268787670710285,0.9394064240482187,-0.09820706492713827
1539732881214569,0.31183337148088786,0.9311055161364159,-0.09649805447470827
1539732881230575,0.3107347219043257,0.9269550621805145,-0.08953994048981473
1539732881246582,0.310368505378805,0.928786144808118,-0.08612191958495474
1539732881262588,0.31122301060502,0.9367208361944002,-0.08465705348287189
1539732881278595,0.3107347219043257,0.9384298466468302,-0.09100480659189758
1539732881294601,0.308659494926375,0.9387960631723509,-0.09698634317540256
1539732881310608,0.3058518348973829,0.9363546196688795,-0.0980849927519647
1539732881326614,0.30841535057602787,0.9346456092164495,-0.09112687876707115
1539732881342620,0.3117112993057143,0.9309834439612423,-0.07965209430075548
1539732881358627,0.31268787670710285,0.9320820935378045,-0.08038452735179691
1539732881374633,0.31146715495536714,0.9340352483405816,-0.08429083695735118
1539732881390640,0.3124437323567557,0.9342793926909287,-0.08868543526359973
1539732881406646,0.31403067063401213,0.9361104753185323,-0.09161516746776543
1539732881422653,0.3153734645609214,0.9387960631723509,-0.09478904402227828
1539732881438659,0.31317616540779714,0.9411154345006487,-0.09210345616845972
1539732881454666,0.3124437323567557,0.9348897535667966,-0.08807507438773188
1539732881470672,0.3150072480354007,0.9286640726329445,-0.08636606393530188
1539732881486679,0.31525139238574784,0.9274433508812088,-0.08709849698634331
1539732881502685,0.3153734645609214,0.9309834439612423,-0.08917372396429402
1539732881518692,0.31805905241474,0.9370870527199209,-0.09039444571602973
1539732881534698,0.32782482642862565,0.9378194857709623,-0.0896620126649883
1539732881550705,0.32574959945067494,0.9286640726329445,-0.08844129091325259
1539732881566711,0.31976806286716997,0.9252460517280845,-0.09491111619745185
1539732881582718,0.3195239185168228,0.9271992065308616,-0.10516517891203181
1539732881598724,0.3203784237430378,0.928786144808118,-0.10675211718928823
1539732881614730,0.3179369802395664,0.9303730830853745,-0.10577553978789966
1539732881630737,0.3162279697871364,0.9292744335088123,-0.10614175631342038
1539732881646743,0.3200122072175171,0.9340352483405816,-0.09979400320439469
1539732881662750,0.3251392385748071,0.9359884031433587,-0.09735255970092327
1539732881678756,0.3229419394216828,0.9334248874647137,-0.09771877622644398
1539732881694763,0.3205004959182114,0.9289082169832916,-0.10650797283894109
1539732881710769,0.32025635156786425,0.9252460517280845,-0.10760662241550323
1539732881726776,0.3296559090562292,0.9253681239032581,-0.10113679713130397
1539732881742782,0.3380788891432056,0.9306172274357216,-0.09613183794918756
1539732881758789,0.3394216830701149,0.9317158770122838,-0.09405661097123685
1539732881774795,0.33990997177080917,0.9295185778591595,-0.09662012664988184
1539732881790802,0.3380788891432056,0.9245136186770431,-0.10040436408026254
1539732881806808,0.3317311360341799,0.9232928969253074,-0.10431067368581681
1539732881822815,0.3288014038300142,0.9259784847791259,-0.10992599374380108
1539732881838821,0.32660410467688994,0.9204852368963152,-0.1060196841382468
1539732881854828,0.3288014038300142,0.9239032578011752,-0.10711833371480894
1539732881870834,0.33246356908522134,0.9271992065308616,-0.11285572594796678
1539732881886840,0.3335622186617835,0.9303730830853745,-0.12152285038529032
1539732881902847,0.3313649195086592,0.9331807431143666,-0.1328755626764324
1539732881918853,0.32562752727550137,0.9355001144426645,-0.13763637750820168
1539732881934860,0.32745860990310494,0.9368429083695737,-0.1354390783550774
1539732881950866,0.3364919508659492,0.9333028152895402,-0.12298771648737317
1539732881966873,0.34454871442740487,0.9232928969253074,-0.11224536507209892
1539732881982879,0.34332799267566916,0.9170672159914552,-0.10809491111619751
1539732881998886,0.33966582742046203,0.9168230716411081,-0.10968184939345393
1539732882014892,0.33881132219424703,0.9228046082246131,-0.11554131380178534
1539732882030899,0.33881132219424703,0.9243915465018695,-0.11847104600595104
1539732882046905,0.3427176317998013,0.9188982986190588,-0.11432059205004963
1539732882062912,0.3452811474784463,0.9143816281376367,-0.10626382848859395
1539732882078918,0.34674601358052914,0.9124284733348595,-0.10699626153963537
1539732882094925,0.3428397039749749,0.9110856794079503,-0.10943770504310679
1539732882110931,0.340520332646677,0.9146257724879838,-0.11932555123216604
1539732882126937,0.3351491569390399,0.9149919890135045,-0.1115129320210575
1539732882142944,0.32733653772793136,0.9164568551155874,-0.10760662241550323
1539732882158950,0.3200122072175171,0.9241474021515224,-0.10492103456168467
1539732882174957,0.32233157854581496,0.9318379491874573,-0.10260166323338682
1539732882190963,0.3305104142824442,0.931349660486763,-0.09906157015335326
1539732882206970,0.3325856412603949,0.9357442587930116,-0.10943770504310679
1539732882222976,0.3361257343404285,0.9331807431143666,-0.11956969558251318
1539732882238983,0.33575951781490776,0.9196307316701002,-0.11944762340733961
1539732882254989,0.3444266422522313,0.9066910811017017,-0.11712825207904176
1539732882270996,0.3428397039749749,0.900343327992676,-0.11346608682383463
1539732882287002,0.3401541161211563,0.9047379262989246,-0.11725032425421533
1539732882303009,0.33783474479285847,0.9173113603418024,-0.12054627298390175
1539732882319015,0.34161898222323916,0.9350118257419702,-0.12640573739223315
1539732882335022,0.3392996108949413,0.9408712901503016,-0.12213321126115817
1539732882351028,0.3394216830701149,0.936476691844053,-0.11541924162661177
1539732882367035,0.3390554665445942,0.9259784847791259,-0.11493095292591748
1539732882383041,0.3384451056687263,0.9153582055390252,-0.11505302510109106
1539732882399047,0.349065384908827,0.9124284733348595,-0.11566338597695891
1539732882415054,0.3570000762951091,0.9143816281376367,-0.11578545815213248
1539732882431060,0.3587090867475391,0.916578927290761,-0.11688410772869462
1539732882447067,0.35138475623712484,0.9202410925459681,-0.11554131380178534
1539732882463073,0.34381628137636344,0.9196307316701002,-0.1152971694514382
1539732882479080,0.33832303349355275,0.9202410925459681,-0.11676203555352105
1539732882495086,0.34381628137636344,0.9250019073777374,-0.1173723964293889
1539732882511093,0.3480888075074384,0.9224383916990924,-0.1203021286335546
1539732882527099,0.342229343099107,0.9179217212176702,-0.12384222171358816
1539732882543106,0.3419851987487599,0.9145037003128103,-0.13116655222400242
1539732882559112,0.33868925001907346,0.9129167620355538,-0.1333638513771267
1539732882575119,0.3411306935225449,0.916578927290761,-0.13434042877851526
1539732882591125,0.3385671778438999,0.916578927290761,-0.1299458304722667
1539732882607132,0.33331807431143634,0.9169451438162817,-0.12860303654535743
1539732882623138,0.3373464560921642,0.9192645151445795,-0.12518501564049744
1539732882639145,0.3418631265735863,0.9243915465018695,-0.11810482948043033
1539732882655151,0.34637979705500843,0.9218280308232245,-0.11212329289692535
1539732882671157,0.34418249790188415,0.9208514534218359,-0.11383230334935535
1539732882687164,0.34345006485084273,0.9240253299763488,-0.11956969558251318
1539732882703170,0.3444266422522313,0.9247577630273902,-0.12530708781567101
1539732882719177,0.34332799267566916,0.9230487525749602,-0.127016098268101
1539732882735183,0.3428397039749749,0.9188982986190588,-0.12530708781567101
1539732882751190,0.34345006485084273,0.9125505455100331,-0.11920347905699247
1539732882767196,0.3419851987487599,0.9104753185320824,-0.11676203555352105
1539732882783203,0.34296177615014845,0.913160906385901,-0.1144426642252232
1539732882799209,0.34418249790188415,0.9193865873197531,-0.11480888075074391
1539732882815246,0.343083848325322,0.9215838864728774,-0.11309987029831392
1539732882831253,0.3402761882963299,0.9132829785610745,-0.11187914854657821
1539732882847259,0.3364919508659492,0.9090104524299996,-0.1060196841382468
1539732882863266,0.34003204394598274,0.9124284733348595,-0.11322194247348749
1539732882879272,0.34088654917219774,0.9096208133058674,-0.11773861295490962
1539732882895279,0.34467078660257844,0.9121843289845124,-0.11761654077973605
1539732882911285,0.3452811474784463,0.9146257724879838,-0.11688410772869462
1539732882927291,0.34711223010604986,0.9121843289845124,-0.10797283894102394
1539732882943298,0.3494316014343477,0.9077897306782639,-0.10663004501411466
1539732882959304,0.348210879682612,0.9042496375982303,-0.11456473640039677
1539732882975311,0.3523613336385134,0.9093766689555203,-0.12774853131914243
1539732882991317,0.35602349889372054,0.9218280308232245,-0.14361791409170666
1539732883007324,0.36395819028000265,0.9235370412756545,-0.16559090562294942
1539732883023330,0.3621271076523991,0.9198748760204474,-0.17560082398718224
1539732883039337,0.3602960250247955,0.9168230716411081,-0.18426794842450578
1539732883055343,0.3511406118867777,0.9169451438162817,-0.18304722667277007
1539732883071350,0.34247348744945416,0.9159685664148931,-0.1732814526588844
1539732883087356,0.3373464560921642,0.913160906385901,-0.16827649347676799
1539732883103363,0.33868925001907346,0.9102311741817353,-0.16546883344777585
1539732883119369,0.349065384908827,0.903761348897536,-0.1602197299153123
1539732883135376,0.35260547798886055,0.8968032349126425,-0.15973144121461802
1539732883151382,0.3544365606164641,0.8932631418326089,-0.16327153429465158
1539732883167389,0.35211718928816627,0.9002212558175025,-0.16437018387121372
1539732883183395,0.3506523231860834,0.917433432516976,-0.16424811169604014
1539732883199401,0.3495536736095213,0.9290302891584652,-0.16583504997329657
1539732883215408,0.3519951171129927,0.9292744335088123,-0.16620126649881728
1539732883231414,0.35297169451438126,0.914015411612116,-0.162294956893263
1539732883247421,0.35297169451438126,0.9007095445181967,-0.16217288471808944
1539732883263427,0.35687800411993553,0.900343327992676,-0.16913099870298298
1539732883279434,0.3570000762951091,0.9091325246051731,-0.17206073090714868
1539732883295440,0.3571221484702827,0.9215838864728774,-0.17376974135957868
1539732883311447,0.35431448844129054,0.9202410925459681,-0.17059586480506583
1539732883327453,0.3506523231860834,0.9126726176852067,-0.16375982299534586
1539732883343460,0.3460135805294877,0.9030289158464946,-0.15716792553597303
1539732883359466,0.34637979705500843,0.898634317540246,-0.15155260547798877
1539732883375473,0.34625772487983486,0.9049820706492717,-0.15155260547798877
1539732883391479,0.349065384908827,0.9164568551155874,-0.14837872892347592
1539732883407486,0.3510185397116041,0.9230487525749602,-0.14837872892347592
1539732883423492,0.3515068284122984,0.9209735255970095,-0.14862287327382306
1539732883439499,0.352483405813687,0.9149919890135045,-0.15497062638284875
1539732883455505,0.3519951171129927,0.9118181124589917,-0.16339360646982515
1539732883471511,0.35126268406195127,0.9109636072327767,-0.1715724422064544
1539732883487518,0.34918745708400056,0.914869916838331,-0.17755397878995938
1539732883503524,0.34674601358052914,0.9169451438162817,-0.17438010223544653
1539732883519531,0.3466239414053556,0.9179217212176702,-0.17267109178301654
1539732883535537,0.34967574578469485,0.9124284733348595,-0.16510261692225514
1539732883551544,0.34747844663157057,0.9060807202258339,-0.16437018387121372
1539732883567550,0.347356374456397,0.9059586480506603,-0.16437018387121372
1539732883583557,0.34540321965361986,0.908888380254826,-0.16717784390020585
1539732883599563,0.3449149309529256,0.9145037003128103,-0.164858472571908
1539732883615570,0.3468680857557027,0.9181658655680174,-0.16375982299534586
1539732883631576,0.35089646753643056,0.9179217212176702,-0.16180666819256873
1539732883647583,0.34930952925917413,0.9118181124589917,-0.1581445029373616
1539732883663589,0.3477225909819177,0.9043717097734039,-0.16266117341878372
1539732883679596,0.3449149309529256,0.9010757610437174,-0.16546883344777585
1539732883695602,0.34589150835431415,0.9030289158464946,-0.17145037003128083
1539732883711609,0.347356374456397,0.9107194628824296,-0.17438010223544653
1539732883727615,0.34918745708400056,0.9152361333638517,-0.16974135957885084
1539732883743621,0.35053025101090984,0.912306401159686,-0.16559090562294942
1539732883759628,0.35126268406195127,0.9104753185320824,-0.16083009079118016
1539732883775665,0.3523613336385134,0.9116960402838181,-0.16388189517051943
1539732883791671,0.3540703440909434,0.9086442359044788,-0.17169451438162797
1539732883807678,0.35175097276264555,0.9041275654230567,-0.17486839093614082
1539732883823684,0.3556572823681998,0.9051041428244453,-0.17767605096513295
1539732883839691,0.3548027771419848,0.9033951323720153,-0.1765774013885708
1539732883855697,0.3515068284122984,0.9062027924010074,-0.17218280308232226
1539732883871704,0.3469901579308763,0.9032730601968417,-0.1757228961623558
1539732883887710,0.3435721370260163,0.9042496375982303,-0.17230487525749583
1539732883903717,0.35089646753643056,0.908888380254826,-0.1686427100022887
1539732883919723,0.3532158388647284,0.9116960402838181,-0.16473640039673443
1539732883935730,0.3502861066605627,0.9120622568093388,-0.16559090562294942
1539732883951736,0.3502861066605627,0.9084000915541317,-0.16876478217746227
1539732883967743,0.3497978179598684,0.9070572976272224,-0.1694972152285037
1539732883983749,0.34760051880674414,0.9025406271458003,-0.16925307087815655
1539732883999755,0.34723430228122343,0.9051041428244453,-0.16961928740367727
1539732884015762,0.3485770962081327,0.9068131532768753,-0.16827649347676799
1539732884031768,0.34882124055847985,0.9079118028534374,-0.16925307087815655
1539732884047775,0.3444266422522313,0.9081559472037846,-0.16375982299534586
1539732884063781,0.3457694361791406,0.9093766689555203,-0.1652246890974287
1539732884079788,0.3449149309529256,0.9068131532768753,-0.161440451667048
1539732884095794,0.3440604257267106,0.9051041428244453,-0.16388189517051943
1539732884111801,0.3444266422522313,0.9108415350576031,-0.1660791943236437
1539732884127807,0.3468680857557027,0.9121843289845124,-0.1703517204547187
1539732884143814,0.3480888075074384,0.9119401846341653,-0.16546883344777585
1539732884159820,0.34711223010604986,0.9084000915541317,-0.15887693598840302
1539732884175827,0.3486991683833063,0.9096208133058674,-0.15326161593041876
1539732884191833,0.35089646753643056,0.9087663080796524,-0.1572899977111466
1539732884207840,0.347356374456397,0.9062027924010074,-0.16046387426565945
1539732884223846,0.34540321965361986,0.9040054932478832,-0.1619287403677423
1539732884239853,0.3461356527046613,0.9019302662699324,-0.16534676127260228
1539732884255859,0.3444266422522313,0.9069352254520489,-0.16559090562294942
1539732884271865,0.3443045700770577,0.9082780193789581,-0.1610742351415273
1539732884287872,0.34625772487983486,0.9093766689555203,-0.1602197299153123
1539732884303878,0.35004196231021556,0.9087663080796524,-0.16095216296635373
1539732884319885,0.35126268406195127,0.9081559472037846,-0.161440451667048
1539732884335891,0.3518730449378191,0.9110856794079503,-0.1644922560463873
1539732884351898,0.3485770962081327,0.9121843289845124,-0.16327153429465158
1539732884367904,0.3489433127336534,0.9121843289845124,-0.15875486381322945
1539732884383911,0.3495536736095213,0.9104753185320824,-0.15863279163805588
1539732884399917,0.34967574578469485,0.9091325246051731,-0.15912108033875016
1539732884415924,0.3518730449378191,0.9077897306782639,-0.16327153429465158
1539732884431930,0.35419241626611697,0.9090104524299996,-0.16168459601739515
1539732884447937,0.35590142671854696,0.9074235141527431,-0.16131837949187444
1539732884463943,0.353337911039902,0.9049820706492717,-0.16412603952086657
1539732884479950,0.35223926146333984,0.9057145037003131,-0.16595712214847014
1539732884495956,0.34882124055847985,0.903761348897536,-0.16974135957885084
1539732884511963,0.35089646753643056,0.9041275654230567,-0.16632333867399085
1539732884527969,0.3486991683833063,0.9048599984740981,-0.16058594644083302
1539732884543975,0.346501869230182,0.8991226062409403,-0.15912108033875016
1539732884559982,0.34637979705500843,0.9090104524299996,-0.164858472571908
1539732884575988,0.3554131380178527,0.918287937743191,-0.17059586480506583
1539732884591995,0.35724422064545625,0.9202410925459681,-0.1732814526588844
1539732884608001,0.3552910658426791,0.9154802777141988,-0.17084000915541298
1539732884624008,0.350774395361257,0.9077897306782639,-0.1727931639581901
1539732884640014,0.347356374456397,0.9036392767223624,-0.17438010223544653
1539732884656021,0.3544365606164641,0.9058365758754867,-0.16424811169604014
1539732884672027,0.35846494239719195,0.907179369802396,-0.15887693598840302
1539732884688034,0.352483405813687,0.9068131532768753,-0.16351567864499872
1539732884704040,0.3519951171129927,0.9074235141527431,-0.17206073090714868
1539732884720047,0.35223926146333984,0.9093766689555203,-0.17889677271686866
1539732884736084,0.35175097276264555,0.9125505455100331,-0.18048371099412508
1539732884752090,0.3552910658426791,0.9163347829404138,-0.1757228961623558
1539732884768097,0.35883115892271267,0.9120622568093388,-0.1707179369802394
1539732884784103,0.35590142671854696,0.9030289158464946,-0.16595712214847014
1539732884800109,0.35431448844129054,0.8979018844892046,-0.164858472571908
1539732884816116,0.35761043717097696,0.897779812314031,-0.16546883344777585
1539732884832122,0.3554131380178527,0.8979018844892046,-0.16412603952086657
1539732884848129,0.3502861066605627,0.9018081940947589,-0.16937514305333012
1539732884864135,0.34930952925917413,0.9048599984740981,-0.17059586480506583
1539732884880142,0.34967574578469485,0.9055924315251396,-0.165712977798123
1539732884896148,0.3518730449378191,0.9048599984740981,-0.1602197299153123
1539732884912155,0.35504692149233197,0.9033951323720153,-0.1585107194628823
1539732884928161,0.35724422064545625,0.9065690089265281,-0.1581445029373616
1539732884944168,0.3566338597695884,0.908033875028611,-0.15655756466010518
1539732884960174,0.3557793545433734,0.9079118028534374,-0.16095216296635373
1539732884976181,0.35602349889372054,0.9066910811017017,-0.16217288471808944
1539732884992187,0.35590142671854696,0.9036392767223624,-0.16339360646982515
1539732885008194,0.3549248493171584,0.9007095445181967,-0.16461432822156086
1539732885024200,0.35419241626611697,0.8985122453650725,-0.16595712214847014
1539732885040207,0.3549248493171584,0.9009536888685439,-0.16302738994430443
1539732885056213,0.35797665369649767,0.902052338445106,-0.164003967345693
1539732885072219,0.36017395284962195,0.9079118028534374,-0.1644922560463873
1539732885088226,0.36102845807583694,0.9116960402838181,-0.16241702906843658
1539732885104232,0.3633478294041348,0.9107194628824296,-0.15997558556496516
1539732885120239,0.36481269550621764,0.9064469367513546,-0.1593652246890973
1539732885136245,0.36432440680552336,0.907179369802396,-0.1694972152285037
1539732885152252,0.36359197375448193,0.9081559472037846,-0.17438010223544653
1539732885168258,0.3657892729076062,0.9102311741817353,-0.17474631876096725
1539732885184265,0.36725413900968906,0.9092545967803467,-0.16827649347676799
1539732885200271,0.3679865720607305,0.9090104524299996,-0.16534676127260228
1539732885216278,0.3661554894331269,0.905470359349966,-0.16705577172503228
1539732885232284,0.3649347676813912,0.9060807202258339,-0.16791027695124727
1539732885248291,0.3607843137254898,0.9051041428244453,-0.17291523613336368
1539732885264297,0.3642023346303498,0.9016861219195853,-0.1724269474326694
1539732885280304,0.36444647898069693,0.9032730601968417,-0.16961928740367727
1539732885296310,0.36102845807583694,0.8990005340657667,-0.17145037003128083
1539732885312317,0.35895323109788624,0.8999771114671553,-0.1712062256809337
1539732885328323,0.3659113450827798,0.904615854123751,-0.17438010223544653
1539732885344329,0.36554512855725907,0.904615854123751,-0.17206073090714868
1539732885360336,0.36102845807583694,0.9064469367513546,-0.1727931639581901
1539732885376342,0.3554131380178527,0.9038834210727096,-0.17474631876096725
1539732885392349,0.3552910658426791,0.9032730601968417,-0.17584496833752938
1539732885408355,0.3632257572289612,0.9077897306782639,-0.16913099870298298
1539732885424362,0.3670099946593419,0.909742885481041,-0.16302738994430443
1539732885440368,0.3637140459296555,0.9065690089265281,-0.16290531776913086
1539732885456375,0.3657892729076062,0.9035172045471889,-0.16729991607537942
1539732885472381,0.36481269550621764,0.9019302662699324,-0.17047379262989226
1539732885488388,0.36102845807583694,0.9024185549706267,-0.17047379262989226
1539732885504394,0.3623712520027462,0.9036392767223624,-0.17059586480506583
1539732885520401,0.3620050354772255,0.9024185549706267,-0.16473640039673443
1539732885536407,0.3609063859006634,0.9026626993209739,-0.163149462119478
1539732885552414,0.36066224155031623,0.9065690089265281,-0.16168459601739515
1539732885568420,0.3632257572289612,0.9098649576562146,-0.16839856565194156
1539732885584427,0.3590753032730598,0.9059586480506603,-0.17181658655680154
1539732885600433,0.35931944762340695,0.9016861219195853,-0.1712062256809337
1539732885616439,0.3561455710688941,0.9018081940947589,-0.16961928740367727
1539732885632446,0.3556572823681998,0.9055924315251396,-0.16815442130159441
1539732885648452,0.3587090867475391,0.9060807202258339,-0.16290531776913086
1539732885664459,0.3628595407034405,0.9042496375982303,-0.16168459601739515
1539732885680465,0.36346990157930836,0.9042496375982303,-0.15973144121461802
1539732885696472,0.3640802624551762,0.9047379262989246,-0.16437018387121372
1539732885712478,0.36444647898069693,0.9090104524299996,-0.17401388570992582
1539732885728485,0.3632257572289612,0.9041275654230567,-0.17694361791409152
1539732885744491,0.36432440680552336,0.902052338445106,-0.1719386587319751
1539732885760498,0.3646906233310441,0.9008316166933703,-0.16827649347676799
1539732885776504,0.3654230563820855,0.9013199053940646,-0.16925307087815655
1539732885792511,0.3650568398565648,0.9055924315251396,-0.1732814526588844
1539732885808517,0.36310368505378765,0.9102311741817353,-0.1779201953154801
1539732885824524,0.36273746852826694,0.9077897306782639,-0.17779812314030652
1539732885840530,0.3633478294041348,0.902906843671321,-0.17267109178301654
1539732885856536,0.3609063859006634,0.900343327992676,-0.17254901960784297
1539732885872543,0.3595635919737541,0.9007095445181967,-0.17169451438162797
1539732885888549,0.36102845807583694,0.9025406271458003,-0.1782864118410008
1539732885904556,0.36066224155031623,0.9053482871747924,-0.1770656900892651
1539732885920562,0.36066224155031623,0.9065690089265281,-0.1770656900892651
1539732885936569,0.35883115892271267,0.9055924315251396,-0.1753566796368351
1539732885952575,0.35590142671854696,0.9082780193789581,-0.1779201953154801
1539732885968582,0.35590142671854696,0.9096208133058674,-0.18097199969481936
1539732885984588,0.35773250934615053,0.9090104524299996,-0.17511253528648796
1539732886000595,0.35773250934615053,0.907179369802396,-0.1745021744106201
1539732886016601,0.35602349889372054,0.9025406271458003,-0.17865262836652152
1539732886032608,0.3537041275654227,0.902906843671321,-0.18060578316929865
1539732886048614,0.35468070496681126,0.9032730601968417,-0.1808499275196458
1539732886064621,0.3540703440909434,0.9044937819485774,-0.17865262836652152
1539732886080627,0.35590142671854696,0.908033875028611,-0.17853055619134794
1539732886096634,0.3566338597695884,0.908888380254826,-0.1779201953154801
1539732886112640,0.35602349889372054,0.9058365758754867,-0.18231479362172864
1539732886128646,0.34967574578469485,0.901197833218891,-0.18048371099412508
1539732886144653,0.352483405813687,0.9035172045471889,-0.1832913710231172
1539732886160659,0.3478446631570913,0.903761348897536,-0.1841458762493322
1539732886176666,0.3485770962081327,0.9055924315251396,-0.1812161440451665
1539732886192672,0.34723430228122343,0.9036392767223624,-0.1808499275196458
1539732886208679,0.34918745708400056,0.9018081940947589,-0.1799954222934308
1539732886224685,0.36102845807583694,0.904615854123751,-0.17779812314030652
1539732886240692,0.3628595407034405,0.9055924315251396,-0.17267109178301654
1539732886256698,0.36054016937514266,0.9041275654230567,-0.18182650492103436
1539732886272705,0.35846494239719195,0.9022964827954532,-0.18426794842450578
1539732886288711,0.35431448844129054,0.9030289158464946,-0.1867093919279772
1539732886304718,0.34845502403295914,0.9055924315251396,-0.1867093919279772
1539732886320724,0.3451590753032727,0.9055924315251396,-0.18609903105210934
1539732886336761,0.34540321965361986,0.9049820706492717,-0.18597695887693577
1539732886352768,0.34381628137636344,0.9026626993209739,-0.1854886701762415
1539732886368775,0.34332799267566916,0.9019302662699324,-0.1881742580300605
1539732886384782,0.3478446631570913,0.902052338445106,-0.18683146410315077
1539732886400789,0.343083848325322,0.9021744106202796,-0.1837796597238115
1539732886416796,0.34345006485084273,0.902906843671321,-0.18451209277485292
1539732886432803,0.3419851987487599,0.9019302662699324,-0.19085984588387905
1539732886448810,0.34332799267566916,0.9019302662699324,-0.18841840238040763
1539732886464817,0.34589150835431415,0.9030289158464946,-0.18780804150453978
1539732886480824,0.3468680857557027,0.9013199053940646,-0.18451209277485292
1539732886496831,0.3468680857557027,0.9013199053940646,-0.18097199969481936
1539732886512838,0.34760051880674414,0.903761348897536,-0.18023956664377794
1539732886528844,0.34552529182879343,0.9069352254520489,-0.18243686579690221
1539732886544851,0.34796673533226485,0.908033875028611,-0.1885404745555812
1539732886560858,0.3477225909819177,0.9077897306782639,-0.1902494850080112
1539732886576865,0.3460135805294877,0.9047379262989246,-0.18951705195696977
1539732886592872,0.34589150835431415,0.9019302662699324,-0.1846341649500265
1539732886608879,0.346501869230182,0.9032730601968417,-0.18146028839551365
1539732886624886,0.34674601358052914,0.902052338445106,-0.1850003814755472
1539732886640893,0.34674601358052914,0.9060807202258339,-0.18487830930037363
1539732886656921,0.3469901579308763,0.9068131532768753,-0.18866254673075478
1539732886672928,0.3451590753032727,0.9074235141527431,-0.19000534065766406
1539732886688935,0.34674601358052914,0.9048599984740981,-0.18841840238040763
1539732886704942,0.34845502403295914,0.9057145037003131,-0.1885404745555812
1539732886720949,0.3494316014343477,0.9052262149996189,-0.19134813458457334
1539732886736956,0.3502861066605627,0.905470359349966,-0.19549858854047475
1539732886752963,0.352483405813687,0.9076676585030903,-0.1961089494163426
1539732886768970,0.35419241626611697,0.9090104524299996,-0.19757381551842546
1539732886784977,0.3562676432440677,0.9079118028534374,-0.1961089494163426
1539732886800984,0.35797665369649767,0.9091325246051731,-0.19269092851148262
1539732886816990,0.3591973754482334,0.9102311741817353,-0.19830624856946688
1539732886832997,0.35773250934615053,0.9094987411306938,-0.19916075379568188
1539732886849004,0.35419241626611697,0.9081559472037846,-0.1986724650949876
1539732886865011,0.3504081788357363,0.9059586480506603,-0.19183642328526762
1539732886881018,0.3548027771419848,0.9052262149996189,-0.18915083543144906
1539732886897025,0.35260547798886055,0.9068131532768753,-0.19073777370870548
1539732886913032,0.34345006485084273,0.9007095445181967,-0.19159227893492048
1539732886929039,0.3360036621652549,0.8955825131609068,-0.1893949797817962
1539732886945046,0.33917753871976775,0.895216296635386,-0.18451209277485292
1539732886961053,0.3375906004425113,0.8924086366063939,-0.17718776226443866
1539732886977050,0.3414969100480656,0.8958266575112539,-0.1694972152285037
1539732886993057,0.34039826047150346,0.9047379262989246,-0.1753566796368351
1539732887009064,0.3411306935225449,0.9075455863279167,-0.1820706492713815
1539732887025071,0.3461356527046613,0.9086442359044788,-0.18451209277485292
1539732887041078,0.3432059205004956,0.8976577401388575,-0.17975127794308365
1539732887057085,0.33124284733348563,0.8863050278477154,-0.17022964827954512
1539732887073092,0.3237964446478978,0.8854505226215004,-0.16437018387121372
1539732887089099,0.3259937438010221,0.8924086366063939,-0.1610742351415273
1539732887105106,0.32953383688105564,0.9033951323720153,-0.1552147707331959
1539732887121113,0.3355153734645606,0.902052338445106,-0.1476462958724345
1539732887137120,0.3390554665445942,0.904615854123751,-0.15423819333180733
1539732887153127,0.346501869230182,0.9070572976272224,-0.16803234912642084
1539732887169134,0.3480888075074384,0.9085221637293053,-0.19098191805905262
1539732887185141,0.34760051880674414,0.9082780193789581,-0.2100251773861297
1539732887201148,0.34796673533226485,0.9193865873197531,-0.1995269703212026
1539732887217155,0.3515068284122984,0.9256122682536052,-0.17962920576791008
1539732887233162,0.3573662928206298,0.928786144808118,-0.16766613260090013
1539732887249168,0.36444647898069693,0.9308613717860688,-0.17401388570992582
1539732887265175,0.3650568398565648,0.9075455863279167,-0.17633325703822367
1539732887281182,0.3557793545433734,0.9053482871747924,-0.18841840238040763
1539732887297180,0.34760051880674414,0.9055924315251396,-0.1923247119859619
1539732887313187,0.34540321965361986,0.908033875028611,-0.1858548867017622
1539732887329194,0.34711223010604986,0.9190203707942324,-0.18194857709620793
1539732887345201,0.3460135805294877,0.9119401846341653,-0.1715724422064544
1539732887361208,0.340520332646677,0.902052338445106,-0.16644541084916442
1539732887377215,0.3411306935225449,0.9008316166933703,-0.16559090562294942
1539732887393221,0.3435721370260163,0.9092545967803467,-0.17145037003128083
1539732887409228,0.3457694361791406,0.9175555046921495,-0.17730983443961224
1539732887425235,0.3469901579308763,0.9209735255970095,-0.1765774013885708
1539732887441242,0.3480888075074384,0.9116960402838181,-0.1736476691844051
1539732887457249,0.343938353551537,0.9040054932478832,-0.17206073090714868
1539732887473256,0.3401541161211563,0.9069352254520489,-0.1732814526588844
1539732887489263,0.3392996108949413,0.9154802777141988,-0.17547875181200867
1539732887505270,0.33795681696803204,0.9219501029983981,-0.17352559700923154
1539732887521277,0.3327077134355685,0.9187762264438852,-0.1694972152285037
1539732887537284,0.3327077134355685,0.9093766689555203,-0.16717784390020585
1539732887553291,0.33575951781490776,0.9009536888685439,-0.16424811169604014
1539732887569298,0.3414969100480656,0.898634317540246,-0.15802243076218803
1539732887585305,0.3406424048218506,0.9093766689555203,-0.16009765774013873
1539732887601312,0.3322194247348742,0.9181658655680174,-0.16424811169604014
1539732887617309,0.3267261768520635,0.9253681239032581,-0.17059586480506583
1539732887633316,0.33124284733348563,0.919996948195621,-0.1644922560463873
1539732887649323,0.33881132219424703,0.9066910811017017,-0.15838864728770874
1539732887665330,0.3451590753032727,0.9075455863279167,-0.16058594644083302
1539732887681337,0.3674982833600362,0.928786144808118,-0.16083009079118016
1539732887697344,0.392278934920272,0.9568627450980394,-0.17425803006027296
1539732887713351,0.40387579156176123,0.9613794155794615,-0.18780804150453978
1539732887729358,0.39154650186923057,0.9429465171282523,-0.20990310521095612
1539732887745365,0.36725413900968906,0.9069352254520489,-0.21771572442206466
1539732887761372,0.34796673533226485,0.8793469138628218,-0.21173418783855968
1539732887777379,0.33038834210727064,0.8676279850461581,-0.18731975280384505
1539732887793386,0.30682841229877145,0.8734874494544895,-0.1627832455939573
1539732887809393,0.2888838025482565,0.8905775539787903,-0.14703593499656664
1539732887825400,0.2876630807965208,0.9052262149996189,-0.13641565575646597
1539732887841406,0.2888838025482565,0.9102311741817353,-0.1366598001068131
1539732887857413,0.29596398870832363,0.9058365758754867,-0.14166475928892952
1539732887873420,0.29974822613870433,0.901197833218891,-0.1488670176241702
1539732887889427,0.30682841229877145,0.9047379262989246,-0.1576562142366673
1539732887905434,0.3205004959182114,0.919996948195621,-0.15997558556496516
1539732887921441,0.33331807431143634,0.9346456092164495,-0.16632333867399085
1539732887937469,0.3411306935225449,0.9413595788509959,-0.16998550392919798
1539732887953476,0.33038834210727064,0.9341573205157552,-0.17474631876096725
1539732887969483,0.3218432898451207,0.9221942473487452,-0.18133821622034008
1539732887985490,0.32660410467688994,0.9137712672617688,-0.1791409170672158
1539732888001497,0.33966582742046203,0.9137712672617688,-0.16595712214847014
1539732888017504,0.3452811474784463,0.9119401846341653,-0.15667963683527875
1539732888033511,0.33990997177080917,0.9120622568093388,-0.1569237811856259
1539732888049518,0.33698023956664347,0.9164568551155874,-0.1677882047760737
1539732888065525,0.3314869916838328,0.9208514534218359,-0.17315938048371082
1539732888081532,0.32782482642862565,0.9212176699473567,-0.17059586480506583
1539732888097539,0.3296559090562292,0.9225604638742659,-0.15704585336079946
1539732888113546,0.33246356908522134,0.9218280308232245,-0.14520485236896308
1539732888129552,0.3377126726176849,0.9236591134508281,-0.14618142977035165
1539732888145559,0.344792858777752,0.9223163195239188,-0.16046387426565945
1539732888161566,0.3565117875944148,0.9171892881666288,-0.1770656900892651
1539732888177573,0.35394827191576983,0.9098649576562146,-0.19391165026321833
1539732888193580,0.345647364003967,0.8992446784161139,-0.19452201113908618
1539732888209587,0.3504081788357363,0.8859388113221947,-0.17511253528648796
1539732888225594,0.35431448844129054,0.8832532234683761,-0.16205081254291587
1539732888241601,0.34833295185778557,0.8828870069428554,-0.162294956893263
1539732888257599,0.34345006485084273,0.8887464713511868,-0.17669947356374438
1539732888273605,0.3494316014343477,0.9025406271458003,-0.18646524757763006
1539732888289612,0.35553521019302625,0.9062027924010074,-0.18646524757763006
1539732888305619,0.3628595407034405,0.898634317540246,-0.18646524757763006
1539732888321626,0.36444647898069693,0.8902113374532696,-0.19183642328526762
1539732888337633,0.3650568398565648,0.8966811627374689,-0.19159227893492048
1539732888353640,0.35773250934615053,0.911451895933471,-0.19122606240939977
1539732888369647,0.34882124055847985,0.9245136186770431,-0.18719768062867148
1539732888385654,0.3406424048218506,0.9389181353475244,-0.18439002059967935
1539732888401661,0.3485770962081327,0.9512474250400551,-0.16644541084916442
1539732888417668,0.3548027771419848,0.9483176928358894,-0.16534676127260228
1539732888433675,0.3300221255817499,0.9265888456549938,-0.17206073090714868
1539732888449682,0.2981612878614479,0.8927748531319146,-0.18780804150453978
1539732888465689,0.28705271992065295,0.8615243762874796,-0.1850003814755472
1539732888481696,0.3075608453498129,0.8552986953536275,-0.15887693598840302
1539732888497703,0.3363698786907756,0.8705577172503238,-0.131288624399176
1539732888513710,0.34967574578469485,0.8982681010147253,-0.11602960250247962
1539732888529717,0.34930952925917413,0.9217059586480509,-0.1299458304722667
1539732888545724,0.349065384908827,0.9335469596398873,-0.16009765774013873
1539732888561730,0.34747844663157057,0.9376974135957887,-0.18524452582589435
1539732888577728,0.35419241626611697,0.9273212787060352,-0.19977111467154973
1539732888593735,0.3574883649958034,0.9108415350576031,-0.201113908598459
1539732888609742,0.35309376668955483,0.9032730601968417,-0.18634317540245648
1539732888625749,0.34552529182879343,0.9021744106202796,-0.17315938048371082
1539732888641756,0.34418249790188415,0.908033875028611,-0.1627832455939573
1539732888657763,0.33917753871976775,0.9162127107652402,-0.15863279163805588
1539732888673770,0.3289234760051878,0.9247577630273902,-0.16388189517051943
1539732888689777,0.32159914549477353,0.9261005569542995,-0.17291523613336368
1539732888705783,0.3262378881513692,0.9261005569542995,-0.17145037003128083
1539732888721790,0.3432059205004956,0.9308613717860688,-0.15924315251392374
1539732888737797,0.35394827191576983,0.9412375066758223,-0.1450827801937895
1539732888753804,0.3554131380178527,0.9340352483405816,-0.1447165636682688
1539732888769811,0.36432440680552336,0.9359884031433587,-0.16437018387121372
1539732888785818,0.37640955214770777,0.9281757839322502,-0.18536659800106792
1539732888801825,0.37360189211871475,0.9138933394369424,-0.20172426947432687
1539732888817832,0.35687800411993553,0.8898451209277489,-0.205386434729534
1539732888833839,0.3410086213473713,0.8679942015716788,-0.20123598077363258
1539732888849846,0.3367360952162963,0.8688487067978938,-0.18890669108110192
1539732888865853,0.3411306935225449,0.8832532234683761,-0.17975127794308365
1539732888881860,0.3423514152742806,0.9048599984740981,-0.1749904631113144
1539732888897857,0.33954375524528846,0.9223163195239188,-0.17523460746166153
1539732888913864,0.3406424048218506,0.9242694743266959,-0.18219272144655507
1539732888929871,0.33966582742046203,0.9262226291294731,-0.18756389715419264
1539732888945878,0.3402761882963299,0.9241474021515224,-0.19684138246738403
1539732888961885,0.3351491569390399,0.9179217212176702,-0.20758373388265827
1539732888977892,0.34076447699702417,0.9085221637293053,-0.20929274433508827
1539732888993899,0.34369420920118987,0.8996108949416346,-0.20148012512397973
1539732889009906,0.34161898222323916,0.8972915236133368,-0.18927290760662263
1539732889025913,0.33405050736247777,0.899488822766461,-0.17816433966582723
1539732889041920,0.3322194247348742,0.9040054932478832,-0.17804226749065366
1539732889057927,0.33197528038452706,0.9130388342107274,-0.18536659800106792
1539732889073934,0.3284351873044935,0.9147478446631574,-0.19049362935835834
1539732889089941,0.3200122072175171,0.9101091020065617,-0.20135805294880615
1539732889105948,0.3157396810864421,0.9022964827954532,-0.203677424277104
1539732889121955,0.3258716716258485,0.8953383688105596,-0.18744182497901862
1539732889137961,0.35004196231021556,0.8953383688105596,-0.17462424658579367
1539732889153968,0.35553521019302625,0.8965590905622953,-0.16815442130159441
1539732889169975,0.3347829404135192,0.9010757610437174,-0.1931792172121769
1539732889185982,0.3150072480354007,0.9093766689555203,-0.21283283741512182
1539732889201989,0.3196459906919964,0.9068131532768753,-0.20428778515297186
1539732889217987,0.33331807431143634,0.9119401846341653,-0.18512245365072078
1539732889233994,0.3477225909819177,0.918287937743191,-0.1741359578850994
1539732889250001,0.34259555962462773,0.9196307316701002,-0.17804226749065366
1539732889266008,0.33295185778591563,0.9275654230563823,-0.20099183642328544
1539732889282014,0.3259937438010221,0.928786144808118,-0.21954680704966822
1539732889298021,0.33246356908522134,0.9176775768673231,-0.22626077668421463
1539732889314028,0.3377126726176849,0.899488822766461,-0.21905851834897394
1539732889330035,0.33783474479285847,0.8874036774242775,-0.21356527046616325
1539732889346042,0.33588158999008133,0.8858167391470211,-0.21063553826199755
1539732889362049,0.3363698786907756,0.9027847714961474,-0.2116121156633861
1539732889378056,0.3306324864576178,0.9224383916990924,-0.21832608529793252
1539732889394063,0.31989013504234354,0.9303730830853745,-0.2238193331807432
1539732889410070,0.3187914854657814,0.9184100099183645,-0.21942473487449465
1539732889426077,0.3247730220492864,0.8968032349126425,-0.21441977569237824
1539732889442084,0.3289234760051878,0.8808117799649047,-0.20892652780956755
1539732889458091,0.33026626993209707,0.8826428625925082,-0.20770580605783184
1539732889474098,0.3323414969100478,0.8988784618905932,-0.20843823910887327
1539732889490105,0.3317311360341799,0.9143816281376367,-0.21698329137102323
1539732889506112,0.3296559090562292,0.9239032578011752,-0.22247653925383393
1539732889522119,0.3263599603265428,0.9175555046921495,-0.22601663233386748
1539732889538147,0.3327077134355685,0.9076676585030903,-0.22613870450904106
1539732889554154,0.3314869916838328,0.9008316166933703,-0.22211032272831321
1539732889570160,0.3300221255817499,0.9022964827954532,-0.21722743572137038
1539732889586167,0.33026626993209707,0.902052338445106,-0.20941481651026184
1539732889602174,0.33038834210727064,0.9038834210727096,-0.20856031128404684
1539732889618181,0.3275806820782785,0.9070572976272224,-0.20782787823300541
1539732889634188,0.3288014038300142,0.911451895933471,-0.19745174334325188
1539732889650195,0.33246356908522134,0.9127946898603803,-0.18780804150453978
1539732889666202,0.3284351873044935,0.9135271229114217,-0.18487830930037363
1539732889682209,0.31512932021057427,0.9087663080796524,-0.19244678416113548
1539732889698216,0.3087815671015486,0.8957045853360803,-0.18536659800106792
1539732889714223,0.3098802166781107,0.8800793469138632,-0.17962920576791008
1539732889730230,0.30218966964217575,0.8689707789730674,-0.17682154573891795
1539732889746237,0.306950484473945,0.8740978103303574,-0.18048371099412508
1539732889762244,0.31561760891126855,0.8939955748836503,-0.18060578316929865
1539732889778251,0.31854734111543426,0.909742885481041,-0.19293507286182976
1539732889794258,0.3220874341954678,0.9113298237582974,-0.1998931868467233
1539732889810265,0.31598382543678927,0.8972915236133368,-0.20929274433508827
1539732889826272,0.3175707637140457,0.8914320592050053,-0.2296787975890746
1539732889842279,0.3268482490272371,0.8928969253070882,-0.24176394293125814
1539732889858307,0.35016403448538913,0.900343327992676,-0.24310673685816742
1539732889874313,0.3776302738994435,0.9102311741817353,-0.2410315098802167
1539732889890320,0.3872739757381556,0.9055924315251396,-0.23419546807049674
1539732889906327,0.3757991912718399,0.9069352254520489,-0.2456702525368124
1539732889922334,0.3611505302510105,0.9021744106202796,-0.26141756313420306
1539732889938341,0.35773250934615053,0.9047379262989246,-0.2645914396887159
1539732889954348,0.36566720073243264,0.9096208133058674,-0.2537270160982681
1539732889970355,0.3624933241779198,0.9103532463569088,-0.2368810559243153
1539732889986362,0.3573662928206298,0.9107194628824296,-0.23065537499046318
1539732890002369,0.34967574578469485,0.9042496375982303,-0.23614862287327387
1539732890018376,0.3418631265735863,0.8974135957885103,-0.24408331425955598
1539732890034383,0.3389333943694206,0.8859388113221947,-0.24982070649271382
1539732890050390,0.34552529182879343,0.8853284504463268,-0.25348287174792095
1539732890066397,0.3511406118867777,0.8854505226215004,-0.25055313954375524
1539732890082404,0.34796673533226485,0.8872816052491039,-0.24542610818646526
1539732890098411,0.3432059205004956,0.882154573891814,-0.24164187075608456
1539732890114418,0.3356374456397342,0.8755626764324411,-0.2401770046540017
1539732890130425,0.3344167238879985,0.8748302433813988,-0.23675898374914173
1539732890146432,0.3361257343404285,0.8823987182421611,-0.23456168459601745
1539732890162438,0.33624780651560204,0.8891126878767075,-0.23443961242084388
1539732890178436,0.33453879606317205,0.900343327992676,-0.23736934462500958
1539732890194443,0.33710231174181704,0.9053482871747924,-0.2410315098802167
1539732890210450,0.342229343099107,0.9057145037003131,-0.24591439688715955
1539732890226457,0.3432059205004956,0.8979018844892046,-0.24676890211337454
1539732890242464,0.34345006485084273,0.8878919661249718,-0.25421530479896237
1539732890258471,0.3502861066605627,0.8881361104753189,-0.2516517891203174
1539732890274478,0.3611505302510105,0.8953383688105596,-0.24725719081406883
1539732890290485,0.36273746852826694,0.9073014419775696,-0.24982070649271382
1539732890306491,0.36054016937514266,0.917433432516976,-0.25091935606927596
1539732890322498,0.35553521019302625,0.9162127107652402,-0.25421530479896237
1539732890338505,0.3562676432440677,0.9077897306782639,-0.2592202639810788
1539732890354512,0.35980773632410123,0.8972915236133368,-0.2632486457618066
1539732890370519,0.3640802624551762,0.8863050278477154,-0.2653238727397573
1539732890386526,0.3637140459296555,0.8714122224765388,-0.2764324406805523
1539732890402533,0.35968566414892766,0.8556649118791482,-0.2809491111619744
1539732890418540,0.3504081788357363,0.859693293659876,-0.28668650339513224
1539732890434547,0.34454871442740487,0.8592050049591817,-0.27618829633020514
1539732890450554,0.3440604257267106,0.865674830243381,-0.24896620126649882
1539732890466561,0.3480888075074384,0.8743419546807045,-0.22870222018768604
1539732890482568,0.3461356527046613,0.8817883573662932,-0.22149996185244536
1539732890498565,0.34637979705500843,0.8893568322270546,-0.22284275577935464
1539732890514572,0.3609063859006634,0.9010757610437174,-0.22955672541390104
1539732890530579,0.35602349889372054,0.9090104524299996,-0.23358510719462888
1539732890546586,0.34723430228122343,0.9040054932478832,-0.2318760967421989
1539732890562593,0.34259555962462773,0.9044937819485774,-0.2313878080415046
1539732890578600,0.3443045700770577,0.9031509880216682,-0.2313878080415046
1539732890594607,0.34161898222323916,0.893507286182956,-0.23871213855191886
1539732890610614,0.33124284733348563,0.8814221408407725,-0.24090943770504314
1539732890626621,0.32538338292515423,0.8637216754406039,-0.24115358205539028
1539732890642628,0.33282978561074206,0.855420767528801,-0.23321889066910817
1539732890658635,0.3428397039749749,0.8698252841992824,-0.22540627145799963
1539732890674642,0.35223926146333984,0.8964370183871218,-0.22247653925383393
1539732890690649,0.3616388189517048,0.9124284733348595,-0.22980086976424818
1539732890706656,0.37775234607461705,0.9177996490424967,-0.24371709773403527
1539732890722663,0.3960631723506527,0.9118181124589917,-0.2548256656748302
1539732890738669,0.4015564202334634,0.9043717097734039,-0.2671549553673609
1539732890754676,0.3917906462195777,0.8955825131609068,-0.276798657206073
1539732890770683,0.38019378957808847,0.8863050278477154,-0.2687418936446173
1539732890786690,0.38104829480430347,0.8780041199359125,-0.25812161440451664
1539732890802697,0.38617532616159345,0.8719005111772331,-0.24090943770504314
1539732890818695,0.38446631570916345,0.8748302433813988,-0.2276035706111239
1539732890834702,0.37323567559319404,0.8719005111772331,-0.2334630350194553
1539732890850709,0.3671320668345155,0.8694590676737617,-0.2499427786678874
1539732890866716,0.37531090257114563,0.8715342946517124,-0.26178377965972377
1539732890882722,0.38617532616159345,0.8672617685206374,-0.2709391927977416
1539732890898729,0.391424429694057,0.8649423971923396,-0.27399099717708086
1539732890914736,0.3964293888761734,0.8688487067978938,-0.2735027084763866
1539732890930743,0.3986266880292977,0.8698252841992824,-0.27032883192187374
1539732890946750,0.39960326543068625,0.8731212329289688,-0.26776531624322875
1539732890962757,0.3833676661326013,0.8679942015716788,-0.2704509040970473
1539732890978764,0.36981765468833405,0.8572518501564046,-0.27985046158541227
1539732890994771,0.3654230563820855,0.8455329213397418,-0.2822919050888837
1539732891010778,0.37238117036697904,0.8341802090485997,-0.27496757457846943
1539732891026785,0.37897306782635276,0.840650034332799,-0.2592202639810788
1539732891042792,0.3690852216372926,0.8468757152666511,-0.25885404745555807
1539732891058799,0.3659113450827798,0.8551766231784539,-0.26349279011215376
1539732891074806,0.3838559548332956,0.8627450980392153,-0.2654459449149309
1539732891090813,0.39447623407339627,0.8583504997329667,-0.27582207980468443
1539732891106820,0.3960631723506527,0.8401617456321047,-0.28412298771648725
1539732891122827,0.3919127183947513,0.8327153429465168,-0.2909590295262072
1539732891138855,0.3902037079423213,0.833813992523079,-0.3037766079194322
1539732891154862,0.3986266880292977,0.8411383230334932,-0.29962615396353076
1539732891170868,0.4048523689631498,0.8505378805218582,-0.3007248035400929
1539732891186875,0.4053406576638441,0.8593270771343553,-0.30609597924773
1539732891202882,0.3976501106279091,0.852002746623941,-0.32599374380102253
1539732891218889,0.40497444113832337,0.830395971618219,-0.3454032196536203
1539732891234896,0.4093690394445719,0.8031738765545127,-0.35834287022201883
1539732891250903,0.42487220569161543,0.7938963912413213,-0.3407644769970246
1539732891266910,0.4358587014572368,0.8120851453421833,-0.31146715495536714
1539732891282917,0.43231860837720326,0.8443121995880061,-0.29047074082551294
1539732891298924,0.42475013351644186,0.8644541084916453,-0.29132524605172794
1539732891314931,0.430975814450294,0.8686045624475467,-0.3152513923857483
1539732891330938,0.42230869001297044,0.8683604180971995,-0.35492484931715884
1539732891346945,0.41437399862668833,0.8568856336308839,-0.3786068513008316
1539732891362952,0.42523842221713615,0.8566414892805367,-0.3684748607614252
1539732891378959,0.432684824902724,0.863965819790951,-0.3434500648508432
1539732891394966,0.43158617532616184,0.8667734798199431,-0.317326619363699
1539732891410973,0.43195239185168255,0.861402304112306,-0.30389868009460574
1539732891426980,0.42694743266956614,0.8418707560845347,-0.29974822613870433
1539732891442987,0.41718165865568047,0.8233157854581519,-0.30060273136491933
1539732891458984,0.4098573281452662,0.8170901045242998,-0.29803921568627434
1539732891474991,0.40631723506523265,0.822705424582284,-0.29120317387655437
1539732891490998,0.4103456168459605,0.833813992523079,-0.2953536278324558
1539732891507005,0.4141298542763412,0.8394293125810632,-0.2986495765621422
1539732891523012,0.40497444113832337,0.8433356221866175,-0.29413290608072007
1539732891539019,0.39374380102235484,0.8411383230334932,-0.2852216372930494
1539732891555026,0.396551461051347,0.8439459830624854,-0.2797283894102387
1539732891571033,0.3988708323796448,0.8523689631494618,-0.2780193789578087
1539732891587040,0.39081406881818914,0.8474860761425189,-0.2809491111619744
1539732891603047,0.3793392843518735,0.8314946211947811,-0.2830243381399251
1539732891619053,0.37946135652704704,0.8074464026855876,-0.2809491111619744
1539732891635060,0.3778744182497906,0.8017090104524298,-0.270817120622568
1539732891651067,0.3650568398565648,0.8198977645532919,-0.25677882047760736
1539732891667074,0.36566720073243264,0.8483405813687339,-0.24786755168993668
1539732891683081,0.37103837644006976,0.8700694285496295,-0.2558022430762188
1539732891699088,0.3779964904249642,0.8853284504463268,-0.27692072938124657
1539732891715095,0.3843442435339899,0.892652780956741,-0.3002365148393986
1539732891731102,0.38495460440985774,0.892652780956741,-0.31964599069199684
1539732891747109,0.3859311818112463,0.8798352025635161,-0.32208743419546826
1539732891763116,0.3917906462195777,0.8574959945067517,-0.3029221026932172
1539732891779113,0.38568703746089916,0.8434576943617911,-0.27692072938124657
1539732891795120,0.38959334706645343,0.8407721065079725,-0.25592431525139236
1539732891811127,0.3938658731975284,0.8595712214847024,-0.25214007782101167
1539732891827134,0.40424200808728195,0.8764171816586561,-0.2611734187838559
1539732891843141,0.40888075074387764,0.8765392538338297,-0.2692301823453116
1539732891859148,0.4169375143053333,0.8773937590600447,-0.2797283894102387
1539732891875155,0.41596093690394476,0.8789806973373011,-0.29010452429999223
1539732891891162,0.4060730907148855,0.869092851148241,-0.2897383077744715
1539732891907169,0.4041199359121084,0.8576180666819253,-0.2885175860227358
1539732891923176,0.40473029678797623,0.8524910353246353,-0.27985046158541227
1539732891939183,0.4099794003204398,0.8505378805218582,-0.26935225452048517
1539732891955190,0.40387579156176123,0.8518806744487675,-0.2730144197756923
1539732891971197,0.4027771419851991,0.8515144579232468,-0.281925688563363
1539732891987204,0.40497444113832337,0.8506599526970318,-0.2907148851758601
1539732892003211,0.4041199359121084,0.8487067978942546,-0.2938887617303729
1539732892019218,0.4032654306858934,0.8496833752956432,-0.2927901121538108
1539732892035225,0.4069275959411005,0.8522468909742882,-0.2852216372930494
1539732892051231,0.4069275959411005,0.8549324788281067,-0.2826581216144044
1539732892067238,0.4041199359121084,0.857984283207446,-0.28461127641718154
1539732892083245,0.4061951628900591,0.8568856336308839,-0.2881513694972151
1539732892099243,0.41132219424734906,0.854566262302586,-0.29132524605172794
1539732892115250,0.41510643167772976,0.8499275196459903,-0.29083695735103365
1539732892131257,0.41937895780880474,0.8332036316472111,-0.2822919050888837
1539732892147264,0.4187685969329369,0.8452887769893946,-0.28839551384756223
1539732892163271,0.42352941176470615,0.8444342717631796,-0.2935225452048522
1539732892179278,0.4208438239108876,0.8438239108873118,-0.3040207522697793
1539732892195284,0.4131532768749526,0.8419928282597082,-0.3143968871595333
1539732892211291,0.3921568627450984,0.8422369726100554,-0.3252613107499811
1539732892227298,0.4191348134584576,0.849439230945296,-0.3117112993057143
1539732892243305,0.44953078507667676,0.8643320363164717,-0.29376668955519936
1539732892259312,0.4368352788586254,0.8706797894254974,-0.2999923704890515
1539732892275319,0.44489204242008107,0.8581063553826196,-0.3163500419623104
1539732892291326,0.44538033112077535,0.8539559014267182,-0.3273365377279318
1539732892307333,0.4263370717936983,0.8532234683756768,-0.32806897077897323
1539732892323340,0.4225528343633176,0.8460212100404361,-0.31879148546578184
1539732892339347,0.427557793545434,0.8394293125810632,-0.3223315785458154
1539732892355354,0.4212100404364083,0.8264896620126647,-0.33685816739147034
1539732892371361,0.4032654306858934,0.8173342488746469,-0.3488212405584803
1539732892387368,0.38702983138780844,0.8166018158236055,-0.3550469214923324
1539732892403375,0.39826047150377697,0.8157473105973905,-0.3478446631570917
1539732892419403,0.4081483176928362,0.8079346913862819,-0.3344167238879989
1539732892435410,0.41437399862668833,0.7960936903944456,-0.32172121766994755
1539732892451417,0.41425192645151476,0.782299534599832,-0.3176928358892197
1539732892467424,0.38495460440985774,0.7735103379873349,-0.3223315785458154
1539732892483430,0.36261539635309337,0.7658197909514,-0.3286793316548411
1539732892499437,0.3688410772869455,0.7661860074769207,-0.32135500114442683
1539732892515444,0.3812924391546506,0.7726558327611199,-0.3228198672465097
1539732892531451,0.3792172121766999,0.779736018921187,-0.35614557106889455
1539732892547458,0.38410009918364274,0.7808346684977492,-0.38800640878919657
1539732892563465,0.3884946974898913,0.7815671015487906,-0.40241092545967794
1539732892579472,0.394842450598917,0.7858396276798656,-0.40314335851071936
1539732892595479,0.3993591210803391,0.801953154802777,-0.4050965133134965
1539732892611486,0.40216678110933124,0.8153810940718698,-0.39813839932860295
1539732892627493,0.4035095750362405,0.8306401159685661,-0.40070191500724794
1539732892643500,0.41351949340047334,0.837232013427939,-0.40521858548867007
1539732892659507,0.4452582589456018,0.8477302204928661,-0.41889066910811
1539732892675514,0.46674296177615027,0.8435797665369646,-0.4408636606393532
1539732892691521,0.46674296177615027,0.8257572289616233,-0.47101548790722525
1539732892707528,0.47064927138170454,0.798535133897917,-0.5128862439917601
1539732892723535,0.4729686427100024,0.7608148317692836,-0.5464560921644921
1539732892739563,0.4702830548561838,0.7248035400930801,-0.5714808880750746
1539732892755570,0.4530708781567103,0.7039291981383995,-0.5728236820019839
1539732892771577,0.4490424963759825,0.7082017242694745,-0.5532921339742121
1539732892787583,0.4536812390325782,0.708323796444648,-0.5349813076981764
1539732892803590,0.44794384679942034,0.7138170443274587,-0.5270466163118943
1539732892819597,0.4259708552681776,0.7123521782253759,-0.5374227512016478
1539732892835604,0.41522850385290333,0.6890363927672238,-0.5447470817120621
1539732892851611,0.42096589608606116,0.635202563515679,-0.5330281528953993
1539732892867618,0.4414740215152211,0.6077363241016247,-0.5369344625009536
1539732892883625,0.4556343938353553,0.6218966964217589,-0.5634241245136189
1539732892899632,0.4481879911497675,0.6366674296177619,-0.5983367666132602
1539732892915639,0.43866636148622895,0.6538796063172354,-0.6231174181734951
1539732892931646,0.4356145571068897,0.6575417715724425,-0.6306858930342565
1539732892947653,0.4446478980697339,0.6519264515144583,-0.63251697566186
1539732892963660,0.4549019607843139,0.6416723887998783,-0.6387426565957122
1539732892979667,0.4490424963759825,0.6278782330052648,-0.64277103837644
1539732892995674,0.45258258945601604,0.6214084077210646,-0.6392309452964064
1539732893011681,0.45673304341191745,0.6188448920424197,-0.63251697566186
1539732893027688,0.4472114137483789,0.6183566033417254,-0.6283665217059586
1539732893043695,0.4320744640268561,0.6113984893568318,-0.6240939955748837
1539732893059692,0.4208438239108876,0.5952849622339205,-0.6207980468451972
1539732893075699,0.4237735561150533,0.5950408178835733,-0.6249485008010986
1539732893091706,0.419867246509499,0.5774624246585791,-0.6286106660563058
1539732893107713,0.4196231021591519,0.5902800030518041,-0.6301976043335622
1539732893123720,0.4187685969329369,0.6041962310215911,-0.6290989547570001
1539732893139727,0.4191348134584576,0.6137178606851297,-0.6278782330052644
1539732893155734,0.4141298542763412,0.6151827267872125,-0.6382543678950179
1539732893171741,0.4141298542763412,0.6019989318684669,-0.6469214923323414
1539732893187748,0.4149843595025562,0.6002899214160369,-0.6519264515144578
1539732893203755,0.427557793545434,0.6023651483939876,-0.6428931105516136
1539732893219761,0.43073167009994684,0.6050507362478061,-0.635080491340505
1539732893235768,0.43439383535515397,0.599679560540169,-0.6267795834287022
1539732893251775,0.43231860837720326,0.5961394674601355,-0.6286106660563058
1539732893267782,0.42951094834821113,0.5935759517814905,-0.6352025635156786
1539732893283789,0.43195239185168255,0.598825055313954,-0.6400854505226214
1539732893299796,0.4379339284351875,0.6070038910505833,-0.6417944609750514
1539732893315803,0.4368352788586254,0.604806591897459,-0.6411841000991836
1539732893331810,0.43659113450827824,0.6024872205691612,-0.6431372549019607
1539732893347817,0.4368352788586254,0.5985809109636069,-0.6480201419089036
1539732893363824,0.43781185626001395,0.5938200961318376,-0.6526588845654993
1539732893379821,0.43732356755931967,0.5888151369497212,-0.6586404211490042
1539732893395828,0.43866636148622895,0.5884489204242005,-0.6625467307545585
1539732893411835,0.4418402380407418,0.5890592813000683,-0.6601052872510871
1539732893427842,0.4442816815442132,0.5913786526283662,-0.6565651941710535
1539732893443849,0.44574654764629607,0.5972381170366976,-0.6554665445944914
1539732893459856,0.4469672693980318,0.5940642404821848,-0.65302510109102
1539732893475863,0.4444037537193868,0.5850308995193405,-0.6553444724193178
1539732893491870,0.4414740215152211,0.5775844968337527,-0.655588616769665
1539732893507877,0.44293888761730393,0.5735561150530248,-0.6527809567406728
1539732893523884,0.44452582589456036,0.5753871976806284,-0.6491187914854657
1539732893539891,0.44415960936903964,0.5785610742351412,-0.6465552758068207
1539732893555898,0.43915465018692323,0.578072785534447,-0.6514381628137635
1539732893571905,0.4384222171358818,0.5775844968337527,-0.6597390707255664
1539732893587912,0.44196231021591537,0.577218280308232,-0.6612039368276492
1539732893603919,0.44672312504768463,0.579781795986877,-0.6596169985503928
1539732893619926,0.44452582589456036,0.578072785534447,-0.6548561837186235
1539732893635933,0.4409857328145268,0.5741664759288927,-0.6580300602731364
1539732893651939,0.4413519493400475,0.5696498054474706,-0.6638895246814678
1539732893667946,0.44379339284351893,0.5694056610971234,-0.6635233081559471
1539732893683953,0.4431830319676511,0.5716029602502477,-0.6618142977035171
1539732893699951,0.44623483634699035,0.5725795376516363,-0.6598611429007399
1539732893715958,0.4464789806973375,0.5728236820019834,-0.6629129472800792
1539732893731965,0.4426947432669568,0.5705043106736856,-0.6690165560387578
1539732893747972,0.4418402380407418,0.5668421454184784,-0.6665751125352863
1539732893763979,0.44208438239108894,0.5670862897688256,-0.6616922255283435
1539732893779986,0.4447699702449075,0.5684290836957349,-0.6594949263752192
1539732893795992,0.44916456855115605,0.569527733272297,-0.6614480811779964
1539732893811999,0.44415960936903964,0.5680628671702141,-0.6664530403601128
1539732893828006,0.44110780498970037,0.5648889906157013,-0.6674296177615013
1539732893844013,0.4401312275883118,0.5646448462653542,-0.6693827725642785
1539732893860020,0.4502632181277182,0.5731898985275041,-0.6688944838635842
1539732893876027,0.4523384451056689,0.569527733272297,-0.667795834287022
1539732893892034,0.44953078507667676,0.5665980010681313,-0.6638895246814678
1539732893908041,0.4439154650186925,0.5562218661783778,-0.6660868238345921
1539732893924048,0.4423285267414361,0.5550011444266421,-0.6706034943160142
1539732893940055,0.4464789806973375,0.5650110627908749,-0.6697489890897992
1539732893956062,0.4557564660105289,0.5733119707026777,-0.6647440299076828
1539732893972069,0.45160601205462747,0.5739223315785456,-0.6620584420538642
1539732893988076,0.44122987716487394,0.5653772793163956,-0.6653543907835506
1539732894004083,0.4312199588006411,0.5557335774776835,-0.6759746700236513
1539732894020111,0.42145418478675545,0.5504844739452199,-0.6781719691767756
1539732894036118,0.4196231021591519,0.5564660105287249,-0.6748760204470892
1539732894052125,0.4280460822461283,0.5696498054474706,-0.6630350194552528
1539732894068132,0.43366140230411254,0.5779507133592734,-0.6590066376745249
1539732894084138,0.4408636606393532,0.5775844968337527,-0.6568093385214007
1539732894100145,0.4484321355001146,0.5759975585564963,-0.6629129472800792
1539732894116152,0.4476997024490732,0.5641565575646599,-0.6671854734111542
1539732894132159,0.4430609597924775,0.5582970931563285,-0.6743877317463949
1539732894148166,0.4435492484931718,0.5636682688639656,-0.678904402227817
1539732894164173,0.4417181658655682,0.5625696192874035,-0.6785381857022963
1539732894180180,0.4414740215152211,0.5674525062943463,-0.6776836804760813
1539732894196187,0.4414740215152211,0.5709925993743799,-0.672068360418097
1539732894212194,0.44159609369039465,0.5679407949950406,-0.6699931334401463
1539732894228201,0.44367132066834536,0.5629358358129242,-0.6726787212939649
1539732894244208,0.4447699702449075,0.5550011444266421,-0.6721904325932706
1539732894260215,0.4439154650186925,0.5510948348210878,-0.671213855191882
1539732894276222,0.4413519493400475,0.54706645304036,-0.6714579995422292
1539732894292229,0.4387884336614025,0.5499961852445256,-0.6685282673380635
1539732894308236,0.43744563973449324,0.5530479896238649,-0.666941329060807
1539732894324243,0.4417181658655682,0.5593957427328906,-0.6658426794842449
