Timestamp (microseconds),Gyro X (°/s),Gyro Y (°/s),Gyro Z (°/s)
1539732869049682,-9.369039444571627,-5.401693751430457,-11.444266422522333
1539732869065683,-5.95101853971164,-10.467689021133765,-12.970168612191856
1539732869081685,0.213626306553806,-13.824673838406852,-13.64156557564661
1539732869097686,2.9602502479590385,-16.08300907911803,-14.312962539101136
1539732869113687,-0.5188067444876197,-17.181658655680167,-15.228503852903032
1539732869129688,-10.589761196307336,-17.54787518120088,-16.632333867398984
1539732869145690,-20.843823910887295,-16.510261692225413,-17.79201953154802
1539732869161691,-25.23842221713585,-14.496070801861606,-18.158236057068734
1539732869177692,-22.369726100556818,-12.542915999084471,-17.059586480506596
1539732869193693,-19.073777370870403,-11.01701380941472,-15.167467765316132
1539732869209694,-17.853055619134693,-9.308003356984727,-13.153276874952326
1539732869225696,-16.02197299153113,-6.927595941100208,-10.528725108720437
1539732869241697,-14.251926451514464,-4.242008087281647,-7.843137254901876
1539732869257698,-12.298771648737329,-2.532997634851654,-5.462729839017356
1539732869273699,-8.819714656290444,-1.983672846570471,-3.1433585107195086
1539732869289701,-4.486152437628789,-2.532997634851654,-0.7629510948347615
1539732869305702,-0.3967345693140487,-3.5095750362402214,1.2512397955290453
1539732869321703,3.1433585107195086,-3.6316472114137923,2.655069810025225
1539732869337704,2.655069810025225,-3.570611123826893,3.2654306858930795
1539732869353706,-7.904173342488775,-4.486152437628789,1.8616006713969
1539732869369720,-30.121309224078686,-7.17174029144735,-1.739528496223329
1539732869385721,-54.29159990844596,-14.251926451514464,-3.0212863355459376
1539732869401723,-71.32066834515899,-24.567025253681095,-0.9460593575952316
1539732869417724,-68.08575570305948,-34.271763179980326,1.2512397955290453
1539732869433725,-40.558480201419115,-40.1922636758984,3.6316472114137923
1539732869449726,-1.9226367589837992,-42.38956282902268,6.500343327992596
1539732869465727,23.163195239185143,-41.901274128328396,8.148317692835917
1539732869481729,28.473334859235365,-39.276722362096734,8.087281605249018
1539732869497730,21.026932173647538,-36.4690623331046,7.2938124666209205
1539732869513731,9.67421988250544,-33.90554665445961,6.683451590753066
1539732869529732,3.3875028610666504,-31.830319676508907,7.660028992141633
1539732869545734,4.60822461280236,-28.96162355992965,9.430075532158298
1539732869561735,11.01701380941472,-24.444953078507524,11.01701380941472
1539732869577736,18.219272144655406,-18.76859693293659,11.871519035629717
1539732869593737,21.637293049515392,-12.542915999084471,11.139085984588291
1539732869609738,20.599679560540153,-5.828946364538069,8.941786831464015
1539732869625740,16.26611734187827,1.1291676203554744,5.706874189364498
1539732869641741,9.979400320439481,7.843137254901876,1.6784924086366573
1539732869657742,5.462729839017356,13.64156557564661,-1.4953841458761872
1539732869673743,3.692683299000464,18.95170519569683,-3.3875028610666504
1539732869689727,3.2654306858930795,23.346303501945386,-3.7537193865873633
1539732869705729,6.073090714885211,26.58121614404513,-3.0823224231326094
1539732869721730,13.214312962538997,28.229190508888223,-1.8005645838102282
1539732869737731,23.102159151598244,27.61882963302037,-1.0070954451819034
1539732869753732,31.586175326161538,25.543602655069662,-0.8850232700083325
1539732869769734,37.384603646906044,23.163195239185143,-1.4343480582895154
1539732869785735,38.60532539864175,20.843823910887295,-2.7771419851987957
1539732869801736,35.67559319447605,18.341344319828977,-4.730296787975931
1539732869817737,28.900587472342977,15.045395590142562,-7.2938124666209205
1539732869833738,20.294499122606112,11.505302510109004,-10.284580758373295
1539732869849740,12.848096437018285,7.904173342488775,-13.031204699778755
1539732869865741,10.284580758373295,4.9134050507361735,-14.007782101167322
1539732869881742,11.566338597695903,2.7771419851987957,-13.397421225299468
1539732869897743,14.251926451514464,1.3733119707026162,-11.993591210803288
1539732869913745,16.2050812542916,0.09155413138023505,-10.406652933546866
1539732869929746,14.98435950255589,-1.1291676203554744,-9.063859006637585
1539732869945747,12.603952086671143,-1.983672846570471,-7.965209430075447
1539732869961748,10.772869459067579,-2.227817196917613,-6.927595941100208
1539732869977749,8.880750743877343,-1.6784924086366573,-5.889982452124741
1539732869993751,7.476920729381163,-0.45777065690094787,-4.547188525215461
1539732870009857,6.500343327992596,0.7629510948347615,-3.0212863355459376
1539732870025859,6.256198977645454,1.739528496223329,-1.4953841458761872
1539732870041860,7.2938124666209205,2.166781109330941,0.09155413138023505
1539732870057862,6.500343327992596,2.3498893720911838,1.4343480582895154
1539732870073864,3.2654306858930795,2.8381780727854675,2.288853284504512
1539732870089865,0.5798428320745188,3.3875028610666504,3.1433585107195086
1539732870105867,-0.2746623941404778,3.814755474174035,4.180971999694748
1539732870121869,0.3967345693140487,3.7537193865873633,5.157549401083315
1539732870137870,2.288853284504512,3.0212863355459376,6.256198977645454
1539732870153872,3.875791561760934,1.983672846570471,7.049668116273779
1539732870169874,4.303044174868319,1.0070954451819034,7.17174029144735
1539732870185876,3.570611123826893,-0.03051804379333589,6.9886320286868795
1539732870201877,1.6784924086366573,-1.1902037079423735,6.378271152819025
1539732870217879,1.3122758831159445,-2.166781109330941,5.584802014190927
1539732870233881,5.523765926604028,-2.4719615472647547,5.76791027695117
1539732870249882,10.467689021133765,-2.532997634851654,7.2938124666209205
1539732870265884,11.810482948043045,-2.4719615472647547,9.185931181811156
1539732870281886,9.979400320439481,-2.227817196917613,11.749446860456146
1539732870297887,7.354848554207592,-1.983672846570471,14.435034714274707
1539732870313889,5.584802014190927,-1.983672846570471,17.120622568093268
1539732870329986,4.180971999694748,-2.227817196917613,19.195849546043974
1539732870345988,1.4953841458761872,-2.7771419851987957,20.477607385366582
1539732870361991,-1.2512397955290453,-3.3875028610666504,20.538643472953254
1539732870377993,-3.3875028610666504,-3.7537193865873633,20.05035477225897
1539732870393995,-2.8381780727854675,-3.814755474174035,18.89066910811016
1539732870409997,0.2746623941404778,-3.875791561760934,17.48683909361398
1539732870425999,2.166781109330941,-4.180971999694748,15.533684290836845
1539732870442001,2.7771419851987957,-4.486152437628789,12.848096437018285
1539732870458004,2.105745021744042,-4.486152437628789,9.918364232852582
1539732870474006,-0.45777065690094787,-4.364080262455218,6.317235065232353
1539732870490008,-5.401693751430457,-4.242008087281647,2.3498893720911838
1539732870506010,-10.650797283894008,-4.058899824521177,-1.6174563210497581
1539732870522012,-13.702601663233281,-3.875791561760934,-5.0354772259097444
1539732870538015,-15.228503852903032,-4.058899824521177,-7.965209430075447
1539732870554017,-14.496070801861606,-4.303044174868319,-10.650797283894008
1539732870570019,-11.627374685282575,-3.936827649347606,-12.787060349431613
1539732870586021,-9.73525597009234,-3.3875028610666504,-14.129854276340893
1539732870602023,-10.223544670786623,-3.2043945983061803,-15.472648203250174
1539732870618025,-9.246967269398056,-3.3875028610666504,-15.899900816357558
1539732870634028,-5.828946364538069,-4.058899824521177,-14.740215152208748
1539732870650116,-2.5940337224383256,-5.2185854886702145,-11.871519035629717
1539732870666118,0.2746623941404778,-6.195162890058782,-7.904173342488775
1539732870682120,-0.03051804379333589,-6.683451590753066,-3.2654306858930795
1539732870698122,-4.730296787975931,-6.500343327992596,1.1291676203554744
1539732870714124,-9.918364232852582,-5.523765926604028,5.0354772259097444
1539732870730126,-11.688410772869474,-3.7537193865873633,8.575570305943302
1539732870746129,-9.246967269398056,-1.2512397955290453,11.566338597695903
1539732870762131,-3.6316472114137923,1.3733119707026162,13.702601663233281
1539732870778133,1.6174563210497581,2.7161058976118966,14.679179064621849
1539732870794135,5.279621576256886,3.1433585107195086,14.496070801861606
1539732870810137,5.95101853971164,3.2043945983061803,13.092240787365427
1539732870826140,5.889982452124741,4.058899824521177,10.467689021133765
1539732870842142,5.462729839017356,5.401693751430457,7.354848554207592
1539732870858144,3.3264667734797513,6.317235065232353,4.180971999694748
1539732870874146,-1.0681315327688026,6.134126802471883,1.0070954451819034
1539732870890148,-4.9134050507361735,5.096513313496644,-1.4343480582895154
1539732870906150,-4.9134050507361735,3.997863736934505,-2.410925459678083
1539732870922153,-1.983672846570471,2.7771419851987957,-2.5940337224383256
1539732870938155,1.983672846570471,1.5564202334630863,-2.7771419851987957
1539732870954157,3.4485389486533222,-0.213626306553806,-3.692683299000464
1539732870970214,0.7019150072480898,-2.166781109330941,-5.157549401083315
1539732870986217,-2.288853284504512,-3.692683299000464,-6.439307240405924
1539732871002220,-4.9134050507361735,-4.9134050507361735,-7.476920729381163
1539732871018222,-7.232776379034021,-5.889982452124741,-8.392462043183059
1539732871034225,-8.51453421835663,-6.317235065232353,-9.063859006637585
1539732871050228,-8.880750743877343,-6.134126802471883,-9.430075532158298
1539732871066230,-9.185931181811156,-5.76791027695117,-9.185931181811156
1539732871082233,-9.430075532158298,-5.3406576638437855,-8.575570305943302
1539732871098236,-7.598992904554734,-4.791332875562603,-7.537956816968062
1539732871114238,-4.730296787975931,-4.242008087281647,-5.889982452124741
1539732871130241,-2.8381780727854675,-3.936827649347606,-4.42511635004189
1539732871146244,-1.2512397955290453,-3.5095750362402214,-3.0212863355459376
1539732871162246,0.45777065690094787,-2.8992141603723667,-1.6174563210497581
1539732871178249,1.0681315327688026,-2.4719615472647547,-0.45777065690094787
1539732871194252,0.7019150072480898,-2.105745021744042,0.3967345693140487
1539732871210254,0.09155413138023505,-1.9226367589837992,0.8239871824216607
1539732871226257,-1.3733119707026162,-2.105745021744042,0.7019150072480898
1539732871242260,-2.3498893720911838,-2.410925459678083,0.5798428320745188
1539732871258262,-1.8616006713969,-2.655069810025225,0.7019150072480898
1539732871274265,-0.15259021896690683,-2.105745021744042,1.1902037079423735
1539732871290374,1.4343480582895154,-1.5564202334630863,1.739528496223329
1539732871306378,1.0070954451819034,-1.1291676203554744,2.166781109330941
1539732871322381,-0.9460593575952316,-0.7019150072480898,2.5940337224383256
1539732871338384,-1.0070954451819034,-0.15259021896690683,3.3875028610666504
1539732871354387,0.7629510948347615,0.15259021896690683,4.119935912108076
1539732871370390,2.288853284504512,0.15259021896690683,4.730296787975931
1539732871386393,2.4719615472647547,-0.33569848172737693,4.852368963149502
1539732871402396,1.983672846570471,-0.8850232700083325,4.852368963149502
1539732871418399,1.0070954451819034,-1.6174563210497581,4.42511635004189
1539732871434403,-1.0681315327688026,-2.288853284504512,3.814755474174035
1539732871450406,-3.0823224231326094,-2.5940337224383256,3.0823224231326094
1539732871466409,-3.692683299000464,-2.655069810025225,2.7771419851987957
1539732871482412,-4.303044174868319,-2.655069810025225,2.532997634851654
1539732871498415,-5.2185854886702145,-2.9602502479590385,2.532997634851654
1539732871514418,-5.096513313496644,-3.3875028610666504,2.288853284504512
1539732871530421,-3.7537193865873633,-3.0823224231326094,1.6784924086366573
1539732871546424,-2.5940337224383256,-2.4719615472647547,0.5798428320745188
1539732871562428,-3.692683299000464,-1.983672846570471,-0.8850232700083325
1539732871578431,-7.11070420386045,-1.8616006713969,-2.8381780727854675
1539732871594434,-10.101472495613052,-1.983672846570471,-4.60822461280236
1539732871610534,-11.322194247348762,-2.166781109330941,-5.95101853971164
1539732871626538,-11.566338597695903,-2.8992141603723667,-7.232776379034021
1539732871642542,-11.566338597695903,-4.058899824521177,-8.209353780422589
1539732871658545,-11.810482948043045,-5.584802014190927,-9.124895094224485
1539732871674549,-12.848096437018285,-7.537956816968062,-9.73525597009234
1539732871690552,-13.885709925993751,-10.101472495613052,-10.162508583199724
1539732871706556,-17.54787518120088,-13.519493400473038,-10.89494163424115
1539732871722560,-24.933241779201808,-17.120622568093268,-12.481879911497572
1539732871738563,-30.853742275120112,-20.05035477225897,-13.58052948805971
1539732871754567,-29.14473182269012,-21.69832913710229,-13.092240787365427
1539732871770570,-22.003509575036105,-22.308690012970146,-10.89494163424115
1539732871786574,-14.435034714274707,-22.369726100556818,-8.33142595559616
1539732871802578,-8.026245517662346,-21.27107652399468,-6.500343327992596
1539732871818581,-2.288853284504512,-18.524452582589447,-5.096513313496644
1539732871834585,1.0681315327688026,-14.618142977035177,-3.997863736934505
1539732871850588,2.288853284504512,-10.040436408026153,-2.7771419851987957
1539732871866592,1.8616006713969,-5.157549401083315,-0.9460593575952316
1539732871882596,1.1291676203554744,-0.33569848172737693,1.2512397955290453
1539732871898599,2.8992141603723667,4.669260700389032,4.242008087281647
1539732871914603,6.439307240405924,9.55214770733187,7.354848554207592
1539732871930664,10.223544670786623,13.336385137712568,10.223544670786623
1539732871946667,16.02197299153113,15.838864728770886,12.298771648737329
1539732871962671,24.505989166094423,17.914091706721592,13.946746013580423
1539732871978675,32.01342793926892,18.82963302052326,15.10643167772946
1539732871994678,34.2717631799801,18.036163881895163,14.98435950255589
1539732872010682,33.05104142824439,16.388189517051842,13.702601663233281
1539732872026685,28.351262684061794,14.435034714274707,11.749446860456146
1539732872042689,20.904859998473967,12.481879911497572,9.55214770733187
1539732872058693,13.214312962538997,10.223544670786623,7.476920729381163
1539732872074696,7.11070420386045,7.904173342488775,5.828946364538069
1539732872090700,3.692683299000464,6.012054627298312,4.303044174868319
1539732872106703,3.814755474174035,4.669260700389032,3.3875028610666504
1539732872122707,4.42511635004189,3.6316472114137923,2.8381780727854675
1539732872138711,3.5095750362402214,2.7771419851987957,1.8005645838102282
1539732872154714,3.3264667734797513,2.410925459678083,0.5188067444876197
1539732872170718,6.744487678339738,1.9226367589837992,0.15259021896690683
1539732872186721,11.749446860456146,1.8005645838102282,0.7629510948347615
1539732872202725,17.975127794308264,2.5940337224383256,2.105745021744042
1539732872218729,27.435721370260126,3.570611123826893,4.119935912108076
1539732872234732,41.412985427633885,5.2185854886702145,6.195162890058782
1539732872250793,57.46547646295858,6.927595941100208,8.33142595559616
1539732872266797,72.54139009689516,9.185931181811156,10.406652933546866
1539732872282801,84.56549935149178,12.054627298390187,12.359807736324
1539732872298805,89.021133745327,15.289539940489703,12.909132524605184
1539732872314809,86.76279850461606,16.998550392919697,11.505302510109004
1539732872330814,80.3540093080037,17.48683909361398,9.613183794918768
1539732872346818,66.25467307545614,17.181658655680167,7.4158846417944915
1539732872362822,37.1404592965589,16.937514305333025,2.8381780727854675
1539732872378826,-0.3967345693140487,17.730983443961122,-2.7771419851987957
1539732872394830,-24.322880903333953,20.843823910887295,-5.889982452124741
1539732872410834,-35.55352101930271,24.07873655298681,-7.049668116273779
1539732872426838,-37.20149538414603,27.435721370260126,-5.3406576638437855
1539732872442842,-39.276722362096734,30.30441748683893,-1.983672846570471
1539732872458846,-42.38956282902268,31.52513923857464,1.739528496223329
1539732872474850,-42.75577935454339,31.83031967650868,6.317235065232353
1539732872490854,-41.41298542763411,31.219958800640825,10.101472495613052
1539732872506858,-40.497444113832444,29.938200961318216,12.542915999084471
1539732872522863,-39.45983062485698,28.351262684061794,14.007782101167322
1539732872538867,-39.03257801174959,26.6422522316318,14.251926451514464
1539732872554871,-39.82604715037769,25.05531395437538,13.64156557564661
1539732872570922,-39.03257801174959,23.407339589532285,12.970168612191856
1539732872586927,-34.63797970550104,21.69832913710229,12.909132524605184
1539732872602931,-26.764324406805372,20.23346303501944,13.45845731288614
1539732872618935,-19.01274128328373,18.58548867017612,14.251926451514464
1539732872634939,-15.350576028076603,16.08300907911803,14.435034714274707
1539732872650943,-15.716792553597315,13.214312962538997,13.76363775082018
1539732872666947,-16.815442130159454,10.833905546654478,12.970168612191856
1539732872682951,-16.44922560463874,9.369039444571627,11.932555123216616
1539732872698955,-14.312962539101136,9.063859006637585,11.444266422522333
1539732872714959,-12.115663385976859,9.613183794918768,11.07804989700162
1539732872730963,-10.650797283894008,10.223544670786623,10.589761196307336
1539732872746967,-8.392462043183059,10.223544670786623,10.345616845960194
1539732872762972,-6.195162890058782,9.796292057679011,10.406652933546866
1539732872778976,-5.096513313496644,9.430075532158298,10.89494163424115
1539732872794980,-4.669260700389032,9.063859006637585,11.383230334935433
1539732872810984,-4.669260700389032,8.575570305943302,11.871519035629717
1539732872826988,-5.828946364538069,7.782101167315204,11.993591210803288
1539732872842992,-7.598992904554734,6.805523765926637,12.115663385976859
1539732872858996,-8.941786831464015,5.828946364538069,11.993591210803288
1539732872875000,-7.904173342488775,4.669260700389032,12.115663385976859
1539732872891021,-5.828946364538069,3.875791561760934,12.359807736324
1539732872907025,-5.2185854886702145,3.2654306858930795,12.23773556115043
1539732872923030,-6.195162890058782,2.04470893415737,11.688410772869474
1539732872939034,-5.523765926604028,1.0070954451819034,11.383230334935433
1539732872955038,-3.875791561760934,-0.03051804379333589,11.322194247348762
1539732872971042,-3.1433585107195086,-0.9460593575952316,11.139085984588291
1539732872987046,-2.7161058976118966,-1.8616006713969,11.139085984588291
1539732873003050,-2.288853284504512,-3.1433585107195086,11.07804989700162
1539732873019054,-2.3498893720911838,-4.42511635004189,10.711833371480907
1539732873035058,-3.6316472114137923,-4.791332875562603,10.162508583199724
1539732873051062,-5.3406576638437855,-4.791332875562603,9.369039444571627
1539732873067066,-6.683451590753066,-4.791332875562603,8.270389868009488
1539732873083070,-6.9886320286868795,-4.42511635004189,7.476920729381163
1539732873099074,-7.476920729381163,-4.058899824521177,6.744487678339738
1539732873115079,-8.33142595559616,-3.7537193865873633,6.256198977645454
1539732873131083,-7.904173342488775,-3.0823224231326094,6.134126802471883
1539732873147087,-6.500343327992596,-2.4719615472647547,6.439307240405924
1539732873163091,-5.401693751430457,-2.166781109330941,6.561379415579495
1539732873179095,-4.547188525215461,-1.9226367589837992,6.805523765926637
1539732873195099,-4.303044174868319,-1.9226367589837992,6.9886320286868795
1539732873211151,-5.096513313496644,-1.4953841458761872,6.683451590753066
1539732873227155,-4.730296787975931,-1.1291676203554744,6.195162890058782
1539732873243160,-3.814755474174035,-1.0070954451819034,5.706874189364498
1539732873259164,-3.814755474174035,-1.2512397955290453,5.2185854886702145
1539732873275169,-4.180971999694748,-1.4343480582895154,4.486152437628789
1539732873291174,-4.852368963149502,-1.1902037079423735,3.692683299000464
1539732873307178,-5.401693751430457,-0.45777065690094787,2.9602502479590385
1539732873323183,-5.3406576638437855,0.5188067444876197,2.4719615472647547
1539732873339187,-4.669260700389032,1.0070954451819034,2.227817196917613
1539732873355192,-4.180971999694748,1.0681315327688026,2.166781109330941
1539732873371196,-4.242008087281647,0.8850232700083325,1.983672846570471
1539732873387201,-4.730296787975931,0.7629510948347615,1.6174563210497581
1539732873403205,-4.119935912108076,0.9460593575952316,1.3122758831159445
1539732873419210,-3.4485389486533222,1.1291676203554744,1.2512397955290453
1539732873435215,-3.3264667734797513,1.0070954451819034,0.8239871824216607
1539732873451219,-3.4485389486533222,0.6408789196611906,0.45777065690094787
1539732873467224,-4.180971999694748,0.09155413138023505,0.15259021896690683
1539732873483228,-4.974441138323073,-0.45777065690094787,-0.15259021896690683
1539732873499233,-5.096513313496644,-1.4343480582895154,-0.33569848172737693
1539732873515237,-5.95101853971164,-3.1433585107195086,-0.33569848172737693
1539732873531280,-8.392462043183059,-5.584802014190927,-0.33569848172737693
1539732873547285,-11.688410772869474,-9.063859006637585,-0.5188067444876197
1539732873563289,-14.496070801861606,-13.092240787365427,-0.7019150072480898
1539732873579294,-17.48683909361398,-17.66994735637445,-0.8850232700083325
1539732873595298,-21.45418478675515,-22.73594262607753,-1.3733119707026162
1539732873611303,-24.567025253681095,-27.80193789578084,-2.227817196917613
1539732873627308,-26.39810788128466,-32.6848249027239,-3.2043945983061803
1539732873643312,-27.61882963302037,-37.44563973449317,-4.669260700389032
1539732873659317,-31.464103150988194,-43.305104142824575,-6.256198977645454
1539732873675321,-39.94811932555126,-50.7515068284124,-7.660028992141633
1539732873691326,-56.73304341191738,-60.45624475471118,-10.833905546654478
1539732873707330,-83.16166933699537,-73.09071488517588,-17.181658655680167
1539732873723335,-117.52498664835593,-89.57045853360796,-25.42153047989609
1539732873739339,-157.99191271839481,-109.7123674372474,-34.271763179980326
1539732873755344,-215.73205157549387,-132.05157549401088,-46.05172808422981
1539732873771349,-300.3891050583659,-165.6214236667431,-69.18440527962161
1539732873787353,-355.9319447623409,-193.08766308079657,-98.11551079575815
1539732873803358,-331.3954375524529,-195.0408178835737,-115.63286793316547
1539732873819362,-201.08339055466536,-161.65407797360194,-106.35538261997408
1539732873835367,-103.12046997787456,-113.4966048676281,-59.845883878843324
1539732873851410,-37.50667582207984,-75.59319447623398,5.462729839017356
1539732873867414,15.655756466010416,-49.04249637598241,52.82673380636288
1539732873883419,55.756466010528584,-32.25757228961629,88.65491721980652
1539732873899423,88.53284504463272,-20.416571297779683,108.55268177309836
1539732873915428,88.65491721980652,-18.82963302052326,116.79255359731451
1539732873931432,88.41077286945938,-23.224231326771815,112.76417181658644
1539732873947437,73.33485923552325,-32.19653620202962,99.33623254749364
1539732873963441,79.62157625696227,-37.62874799725341,80.04882887006943
1539732873979446,127.71801327534922,-38.36118104829484,66.86503395132377
1539732873995451,135.53063248645776,-25.665674830243233,69.30647745479519
1539732874011455,100.67902647440314,-36.652170595864845,51.911192492560986
1539732874027460,90.79118028534367,-41.0467689021134,34.39383535515367
1539732874043464,129.12184328984495,-42.93888761730386,31.158922713053926
1539732874059469,168.8563363088424,-51.85015640497454,40.55848020141889
1539732874075473,204.3183031967651,-62.836652170595926,55.573357747768114
1539732874091478,209.14015411612127,-76.3866636148623,70.89341573205184
1539732874107483,227.0237277790493,-85.05378805218584,88.65491721980652
1539732874123487,235.0194552529183,-91.5236133363851,112.33691920347928
1539732874139492,218.2955672541393,-97.5051499198903,132.11261158159778
1539732874155496,208.89600976577412,-102.02182040131243,141.45113298237584
1539732874171569,195.59014267185512,-102.75425345235385,148.22613870450914
1539732874187574,173.6171511406119,-100.86213473716339,158.11398489356816
1539732874203580,165.68245975432956,-96.95582513160912,166.78110933089192
1539732874219585,201.26649881742605,-86.64072632944226,172.94575417715714
1539732874235590,239.47508964675353,-74.79972533760588,177.3403524834057
1539732874251595,231.54039826047165,-64.30151827267878,178.98832684824902
1539732874267600,185.15297169451424,-56.73304341191738,176.7299916075376
1539732874283605,153.53627832455913,-48.249027237354085,171.66399633783476
1539732874299610,174.65476462958713,-39.03257801174959,167.87975890745383
1539732874315615,221.77462424658597,-28.412298771648693,167.9407949950405
1539732874331620,254.9172198062106,-12.787060349431613,169.10048065918954
1539732874347625,263.34019989318676,4.9134050507361735,166.96421759365194
1539732874363630,248.1422140840773,20.477607385366582,161.04371709773386
1539732874379635,223.11741817349503,32.379644464789635,154.69596398870817
1539732874395640,202.54825665674844,41.04676890211317,150.3624017700463
1539732874411645,189.24238956282943,48.31006332494053,145.78469520103772
1539732874427650,181.4908064393071,51.17875944151956,142.73289082169822
1539732874443655,168.18493934538765,52.3384451056686,143.83154039826059
1539732874459660,146.51712825207915,53.62020294499098,149.44686045624485
1539732874475665,144.19775692378107,56.48889906157001,158.11398489356816
1539732874491729,166.96421759365194,60.82246128023189,166.29282063019764
1539732874507734,172.33539330128906,62.47043564507476,172.33539330128906
1539732874523739,151.82726787212914,61.18867780575238,175.75341420614905
1539732874539744,142.3056382085906,56.183718623636196,177.7676050965133
1539732874555750,137.60585946440824,52.82673380636288,180.88044556343903
1539732874571755,116.54840924696737,56.30579079880954,185.39711604486138
1539732874587760,94.81956206607174,62.714579995422355,188.81513694972182
1539732874603765,92.68329900053413,74.06729228656468,188.20477607385374
1539732874619770,118.56260013733117,98.05447470817126,184.7867551689933
1539732874635775,115.75494010833927,122.46890974288544,184.298466468299
1539732874651780,66.19363698786947,130.0984206912335,183.81017776760473
1539732874667785,104.03601129167646,135.28648813611062,177.46242465857904
1539732874683790,170.0770580605781,136.38513771267253,162.2034027618829
1539732874699795,208.22461280231937,130.52567330434113,136.81239032578014
1539732874715800,216.40344853894885,121.55336842908355,104.03601129167646
1539732874731805,198.70298313878084,109.28511482413978,68.75715266651423
1539732874747810,166.0486762798505,88.71595330739319,35.67559319447605
1539732874763815,132.96711680781254,57.038223849850965,6.195162890058782
1539732874779820,102.75425345235362,17.24269474326684,-13.336385137712568
1539732874795825,26.153963530937517,-19.80621042191183,18.646524757763018
1539732874811859,21.39314869916825,-36.957351033798886,80.3540093080037
1539732874827864,115.26665140764499,-24.933241779201808,143.77050431067346
1539732874843870,337.86526283665216,2.3498893720911838,114.6562905317769
1539732874859875,487.9530022125582,15.228503852903032,20.782787823300396
1539732874875881,407.32433051041426,20.965896086060866,2.7161058976118966
1539732874891886,336.2172884718093,23.773556115052997,41.290913252460314
1539732874907892,411.53582055390234,8.45349813076973,46.60105287251076
1539732874923897,407.69054703593474,-9.918364232852582,39.154650186922936
1539732874939903,284.7638666361486,22.186617837796575,48.06591897459339
1539732874955908,298.3138780804147,85.48104066529368,57.70962081330572
1539732874971914,366.9794766155492,128.572518501564,42.02334630350174
1539732874987919,301.5487907225147,127.96215762569636,15.960936903944457
1539732875003925,108.67475394827215,88.16662851911224,-2.3498893720911838
1539732875019930,-21.69832913710229,32.257572289616064,-14.92332341496899
1539732875035936,-32.928969253071045,-7.904173342488775,-22.003509575036105
1539732875051941,-42.45059891660958,-23.407339589532285,-17.853055619134693
1539732875067947,-41.657129777981254,-14.068818188753994,-4.547188525215461
1539732875083953,-0.45777065690094787,8.51453421835663,12.176699473563758
1539732875099958,40.68055237659246,27.008468757152514,23.346303501945386
1539732875115964,49.042496375981955,30.914778362706784,23.89562829022657
1539732875131988,33.844510566872486,22.186617837796575,15.899900816357558
1539732875147994,12.603952086671143,8.33142595559616,4.180971999694748
1539732875163999,-0.8850232700083325,-2.532997634851654,-5.95101853971164
1539732875180005,-8.148317692835917,-6.622415503166167,-9.85732814526591
1539732875196010,0.213626306553806,-4.486152437628789,-8.148317692835917
1539732875212016,13.58052948805971,-0.5188067444876197,-4.669260700389032
1539732875228021,19.317921721217544,1.5564202334630863,-3.3875028610666504
1539732875244027,17.24269474326684,1.1902037079423735,-4.852368963149502
1539732875260032,9.246967269398056,-0.7629510948347615,-6.622415503166167
1539732875276038,0.45777065690094787,-2.4719615472647547,-6.561379415579495
1539732875292043,-4.242008087281647,-1.1291676203554744,-4.791332875562603
1539732875308049,-3.4485389486533222,3.6316472114137923,-2.04470893415737
1539732875324054,0.9460593575952316,9.67421988250544,0.8850232700083325
1539732875340060,9.063859006637585,13.58052948805971,3.4485389486533222
1539732875356065,18.097199969481835,10.650797283894008,6.744487678339738
1539732875372071,23.285267414358714,4.242008087281647,8.697642481116873
1539732875388076,27.313649195086555,1.3733119707026162,8.880750743877343
1539732875404082,31.89135576409535,3.814755474174035,8.575570305943302
1539732875420087,37.75082017242676,7.17174029144735,8.758678568703772
1539732875436093,42.938887617303635,7.843137254901876,9.369039444571627
1539732875452118,44.58686198214673,7.17174029144735,9.918364232852582
1539732875468123,39.39879453727008,7.232776379034021,9.124895094224485
1539732875484129,27.86297398336751,7.11070420386045,6.927595941100208
1539732875500134,17.66994735637445,6.012054627298312,4.119935912108076
1539732875516140,13.153276874952326,5.279621576256886,2.227817196917613
1539732875532145,6.744487678339738,4.791332875562603,0.8239871824216607
1539732875548151,0.8850232700083325,4.9134050507361735,-0.03051804379333589
1539732875564156,5.889982452124741,6.317235065232353,1.1902037079423735
1539732875580162,12.787060349431613,7.2938124666209205,3.6316472114137923
1539732875596167,17.24269474326684,7.2938124666209205,6.012054627298312
1539732875612173,18.280308232242305,6.500343327992596,7.2938124666209205
1539732875628178,17.54787518120088,5.645838101777599,7.598992904554734
1539732875644184,14.679179064621849,4.9134050507361735,7.2938124666209205
1539732875660189,10.955977721828049,4.547188525215461,6.683451590753066
1539732875676195,8.697642481116873,4.486152437628789,5.889982452124741
1539732875692200,6.195162890058782,4.547188525215461,5.279621576256886
1539732875708206,2.9602502479590385,3.936827649347606,4.974441138323073
1539732875724211,0.8239871824216607,2.105745021744042,4.42511635004189
1539732875740217,-1.1291676203554744,0.2746623941404778,3.997863736934505
1539732875756222,-2.166781109330941,-0.5798428320745188,4.242008087281647
1539732875772247,-1.2512397955290453,-0.03051804379333589,5.0354772259097444
1539732875788252,-0.09155413138023505,1.4953841458761872,5.3406576638437855
1539732875804258,-0.45777065690094787,2.4719615472647547,5.3406576638437855
1539732875820263,-0.15259021896690683,2.3498893720911838,4.852368963149502
1539732875836269,0.5188067444876197,1.3122758831159445,4.547188525215461
1539732875852275,2.166781109330941,1.739528496223329,3.997863736934505
1539732875868280,10.345616845960194,3.6316472114137923,3.3875028610666504
1539732875884286,12.176699473563758,4.058899824521177,3.4485389486533222
1539732875900291,9.491111619745197,2.288853284504512,3.2043945983061803
1539732875916297,9.246967269398056,0.8239871824216607,2.105745021744042
1539732875932302,8.270389868009488,0.7629510948347615,0.6408789196611906
1539732875948308,5.279621576256886,1.4343480582895154,-0.5798428320745188
1539732875964313,0.8850232700083325,1.3122758831159445,-1.2512397955290453
1539732875980319,-2.04470893415737,0.09155413138023505,-1.6174563210497581
1539732875996324,-3.2043945983061803,-1.1291676203554744,-1.6784924086366573
1539732876012330,-2.8992141603723667,-1.6174563210497581,-1.739528496223329
1539732876028335,-0.7629510948347615,-0.8850232700083325,-2.227817196917613
1539732876044341,-0.33569848172737693,-0.45777065690094787,-2.8992141603723667
1539732876060346,-1.1902037079423735,-0.7629510948347615,-3.6316472114137923
1539732876076352,-1.9226367589837992,-1.6174563210497581,-3.936827649347606
1539732876092376,-1.983672846570471,-1.8616006713969,-3.570611123826893
1539732876108382,-1.8005645838102282,-1.4953841458761872,-2.7771419851987957
1539732876124387,-1.1902037079423735,-0.5798428320745188,-2.288853284504512
1539732876140393,-0.8239871824216607,-0.15259021896690683,-2.4719615472647547
1539732876156398,-1.5564202334630863,-0.09155413138023505,-3.0823224231326094
1539732876172404,-1.6174563210497581,0.03051804379333589,-3.570611123826893
1539732876188409,-1.1291676203554744,0.5188067444876197,-3.0823224231326094
1539732876204415,1.1291676203554744,0.8850232700083325,-2.227817196917613
1539732876220420,1.3733119707026162,-0.2746623941404778,-2.166781109330941
1539732876236426,0.213626306553806,-1.983672846570471,-2.655069810025225
1539732876252431,-1.6174563210497581,-2.410925459678083,-2.532997634851654
1539732876268437,0.09155413138023505,-1.8616006713969,-1.8616006713969
1539732876284443,1.8005645838102282,-1.6784924086366573,-1.3733119707026162
1539732876300448,3.2654306858930795,-2.410925459678083,-1.3733119707026162
1539732876316454,1.8005645838102282,-3.0823224231326094,-1.4343480582895154
1539732876332459,1.3122758831159445,-2.5940337224383256,-1.3733119707026162
1539732876348465,1.1291676203554744,-1.739528496223329,-1.1291676203554744
1539732876364470,0.15259021896690683,-1.4343480582895154,-0.5798428320745188
1539732876380476,-1.3733119707026162,-1.6784924086366573,0.03051804379333589
1539732876396481,-1.0681315327688026,-1.4953841458761872,0.2746623941404778
1539732876412506,-0.7629510948347615,-0.9460593575952316,0.2746623941404778
1539732876428512,-0.9460593575952316,-0.2746623941404778,0.15259021896690683
1539732876444518,-0.6408789196611906,-0.2746623941404778,0.2746623941404778
1539732876460524,-0.2746623941404778,-0.5798428320745188,0.15259021896690683
1539732876476530,-0.3967345693140487,-1.0070954451819034,-0.3967345693140487
1539732876492536,-0.45777065690094787,-1.0681315327688026,-0.7019150072480898
1539732876508542,0.7629510948347615,-0.8850232700083325,-0.45777065690094787
1539732876524548,2.4719615472647547,-0.9460593575952316,-0.2746623941404778
1539732876540554,9.55214770733187,-1.0681315327688026,0.03051804379333589
1539732876556560,6.8665598535133086,-2.04470893415737,0.7629510948347615
1539732876572566,3.3875028610666504,-2.5940337224383256,1.1291676203554744
1539732876588572,4.058899824521177,-2.105745021744042,1.0681315327688026
1539732876604578,4.364080262455218,-1.2512397955290453,1.0070954451819034
1539732876620584,3.1433585107195086,-0.8239871824216607,0.7019150072480898
1539732876636590,0.3967345693140487,-1.2512397955290453,0.15259021896690683
1539732876652596,-1.983672846570471,-2.410925459678083,-0.09155413138023505
1539732876668602,-1.6784924086366573,-3.0212863355459376,0.213626306553806
1539732876684608,-0.213626306553806,-2.5940337224383256,0.8239871824216607
1539732876700614,1.5564202334630863,-1.739528496223329,1.1291676203554744
1539732876716620,3.570611123826893,-1.1902037079423735,1.2512397955290453
1539732876732635,14.618142977035177,-0.2746623941404778,1.8005645838102282
1539732876748641,17.66994735637445,-0.09155413138023505,3.4485389486533222
1539732876764647,10.162508583199724,-1.1902037079423735,3.7537193865873633
1539732876780653,5.096513313496644,-1.8616006713969,2.532997634851654
1539732876796659,1.5564202334630863,-1.0681315327688026,0.5188067444876197
1539732876812665,-0.3967345693140487,0.7019150072480898,-0.8850232700083325
1539732876828671,1.1902037079423735,2.5940337224383256,-1.2512397955290453
1539732876844677,2.5940337224383256,3.6316472114137923,0.03051804379333589
1539732876860683,2.04470893415737,3.4485389486533222,1.9226367589837992
1539732876876689,1.1291676203554744,2.288853284504512,3.2654306858930795
1539732876892695,-0.5188067444876197,0.9460593575952316,3.6316472114137923
1539732876908701,-2.3498893720911838,-0.09155413138023505,3.5095750362402214
1539732876924707,-2.8381780727854675,-0.5798428320745188,3.692683299000464
1539732876940713,-1.8616006713969,-1.0681315327688026,4.669260700389032
1539732876956719,-0.5188067444876197,-1.9226367589837992,5.706874189364498
1539732876972725,0.15259021896690683,-2.5940337224383256,5.889982452124741
1539732876988731,-0.09155413138023505,-1.8616006713969,5.096513313496644
1539732877004737,6.439307240405924,-0.213626306553806,4.058899824521177
1539732877020743,8.758678568703772,0.2746623941404778,3.692683299000464
1539732877036749,3.3264667734797513,-0.7629510948347615,3.2043945983061803
1539732877052765,-0.8239871824216607,-1.6784924086366573,3.0212863355459376
1539732877068771,-1.3122758831159445,-1.983672846570471,3.2043945983061803
1539732877084777,0.45777065690094787,-1.983672846570471,2.8992141603723667
1539732877100782,0.8239871824216607,-1.9226367589837992,2.655069810025225
1539732877116788,0.6408789196611906,-1.4953841458761872,2.532997634851654
1539732877132794,0.8850232700083325,-0.8239871824216607,2.655069810025225
1539732877148800,1.4343480582895154,-0.45777065690094787,2.655069810025225
1539732877164806,0.8850232700083325,-0.7019150072480898,2.5940337224383256
1539732877180812,1.8005645838102282,-0.7629510948347615,2.166781109330941
1539732877196818,9.124895094224485,0.213626306553806,1.983672846570471
1539732877212824,8.148317692835917,0.7629510948347615,1.9226367589837992
1539732877228830,4.242008087281647,0.7629510948347615,1.3122758831159445
1539732877244836,2.288853284504512,0.03051804379333589,0.6408789196611906
1539732877260842,1.6784924086366573,-0.5798428320745188,0.45777065690094787
1539732877276848,1.3122758831159445,-0.7019150072480898,0.5188067444876197
1539732877292854,3.7537193865873633,-0.09155413138023505,1.0070954451819034
1539732877308860,5.401693751430457,1.2512397955290453,1.9226367589837992
1539732877324866,2.8992141603723667,0.7019150072480898,2.04470893415737
1539732877340872,0.7019150072480898,-0.5188067444876197,2.04470893415737
1539732877356878,0.15259021896690683,-1.6174563210497581,1.6784924086366573
1539732877372894,1.3733119707026162,-1.6784924086366573,1.6784924086366573
1539732877388900,2.532997634851654,-1.3122758831159445,2.04470893415737
1539732877404906,2.9602502479590385,-0.7629510948347615,2.227817196917613
1539732877420912,7.049668116273779,0.09155413138023505,1.739528496223329
1539732877436918,14.068818188753994,1.4343480582895154,2.227817196917613
1539732877452924,10.589761196307336,2.105745021744042,2.655069810025225
1539732877468930,9.979400320439481,2.655069810025225,2.4719615472647547
1539732877484936,9.67421988250544,2.227817196917613,2.410925459678083
1539732877500942,7.11070420386045,0.8850232700083325,2.4719615472647547
1539732877516948,4.9134050507361735,-0.2746623941404778,2.7161058976118966
1539732877532954,4.486152437628789,-0.33569848172737693,2.7771419851987957
1539732877548960,4.364080262455218,0.5188067444876197,2.7771419851987957
1539732877564966,3.1433585107195086,1.0070954451819034,2.655069810025225
1539732877580972,1.1291676203554744,0.5798428320745188,2.4719615472647547
1539732877596978,0.45777065690094787,-0.09155413138023505,2.227817196917613
1539732877612984,2.5940337224383256,-0.09155413138023505,2.105745021744042
1539732877628990,4.42511635004189,0.5188067444876197,2.288853284504512
1539732877644996,3.6316472114137923,0.8850232700083325,2.227817196917613
1539732877661002,1.1291676203554744,0.7629510948347615,1.6784924086366573
1539732877677008,-1.3733119707026162,0.33569848172737693,0.5188067444876197
1539732877693054,-1.6174563210497581,-0.03051804379333589,-0.3967345693140487
1539732877709060,-0.8850232700083325,-0.5188067444876197,-0.5798428320745188
1539732877725066,-1.3733119707026162,-1.1902037079423735,-0.03051804379333589
1539732877741072,-3.3264667734797513,-1.983672846570471,0.6408789196611906
1539732877757078,-0.9460593575952316,-1.8616006713969,1.0070954451819034
1539732877773084,-0.09155413138023505,-0.8239871824216607,0.45777065690094787
1539732877789090,-0.7019150072480898,-0.5188067444876197,-0.6408789196611906
1539732877805096,-2.9602502479590385,-1.5564202334630863,-1.4953841458761872
1539732877821102,-4.486152437628789,-2.105745021744042,-2.04470893415737
1539732877837108,-5.279621576256886,-2.7771419851987957,-2.3498893720911838
1539732877853114,-2.5940337224383256,-2.8992141603723667,-2.288853284504512
1539732877869120,-1.1902037079423735,-2.166781109330941,-1.6174563210497581
1539732877885126,0.45777065690094787,-0.3967345693140487,-0.8850232700083325
1539732877901132,0.8239871824216607,0.9460593575952316,-1.1291676203554744
1539732877917138,-0.3967345693140487,0.5188067444876197,-1.4953841458761872
1539732877933144,-1.3122758831159445,-0.9460593575952316,-1.0070954451819034
1539732877949150,-0.7019150072480898,-1.739528496223329,-0.09155413138023505
1539732877965156,0.45777065690094787,-1.4343480582895154,0.5188067444876197
1539732877981162,0.5798428320745188,-0.6408789196611906,0.5188067444876197
1539732877997168,-0.03051804379333589,-0.33569848172737693,0.45777065690094787
1539732878013183,-0.03051804379333589,-0.6408789196611906,0.5798428320745188
1539732878029189,-0.5188067444876197,-0.7019150072480898,0.45777065690094787
1539732878045195,0.03051804379333589,-0.7019150072480898,0.15259021896690683
1539732878061201,-0.33569848172737693,-0.9460593575952316,-0.09155413138023505
1539732878077207,0.213626306553806,-1.3122758831159445,0.03051804379333589
1539732878093213,-1.1902037079423735,-1.8005645838102282,0.3967345693140487
1539732878109219,-2.4719615472647547,-1.9226367589837992,0.9460593575952316
1539732878125225,-2.532997634851654,-1.6174563210497581,1.4343480582895154
1539732878141231,-0.6408789196611906,-2.04470893415737,1.8616006713969
1539732878157237,-3.2654306858930795,-3.5095750362402214,1.8005645838102282
1539732878173243,-2.105745021744042,-2.532997634851654,1.0070954451819034
1539732878189249,-0.03051804379333589,0.45777065690094787,0.5798428320745188
1539732878205255,-0.8239871824216607,1.9226367589837992,1.3733119707026162
1539732878221261,-1.739528496223329,1.0070954451819034,2.288853284504512
1539732878237267,-2.8381780727854675,-0.5188067444876197,1.8616006713969
1539732878253273,-2.8992141603723667,-0.3967345693140487,0.33569848172737693
1539732878269279,-1.3122758831159445,1.5564202334630863,-0.9460593575952316
1539732878285285,0.6408789196611906,3.0823224231326094,-1.3122758831159445
1539732878301291,2.3498893720911838,2.9602502479590385,-0.8239871824216607
1539732878317297,2.655069810025225,1.739528496223329,-0.2746623941404778
1539732878333313,2.3498893720911838,0.5188067444876197,0.09155413138023505
1539732878349319,1.6174563210497581,-0.213626306553806,0.2746623941404778
1539732878365325,0.6408789196611906,-0.45777065690094787,0.2746623941404778
1539732878381331,-0.213626306553806,-0.7019150072480898,0.5188067444876197
1539732878397337,-1.6174563210497581,-0.9460593575952316,0.7629510948347615
1539732878413343,-2.532997634851654,-0.9460593575952316,0.7629510948347615
1539732878429349,-1.3122758831159445,-0.9460593575952316,0.6408789196611906
1539732878445355,-1.3122758831159445,-1.3122758831159445,0.213626306553806
1539732878461361,-0.3967345693140487,-1.2512397955290453,-0.09155413138023505
1539732878477367,0.45777065690094787,-0.45777065690094787,0.03051804379333589
1539732878493373,1.4953841458761872,-0.03051804379333589,0.09155413138023505
1539732878509379,1.9226367589837992,-0.33569848172737693,-0.09155413138023505
1539732878525385,3.0823224231326094,-1.3122758831159445,-0.03051804379333589
1539732878541391,3.1433585107195086,-1.6784924086366573,0.09155413138023505
1539732878557397,3.570611123826893,-0.7019150072480898,0.2746623941404778
1539732878573403,3.814755474174035,0.5798428320745188,0.3967345693140487
1539732878589408,3.0823224231326094,0.45777065690094787,0.213626306553806
1539732878605414,2.105745021744042,-0.7019150072480898,0.09155413138023505
1539732878621420,2.4719615472647547,-1.3122758831159445,0.03051804379333589
1539732878637426,3.3875028610666504,-0.8850232700083325,-0.213626306553806
1539732878653473,3.7537193865873633,-0.2746623941404778,-0.8239871824216607
1539732878669479,4.242008087281647,-0.213626306553806,-1.0070954451819034
1539732878685485,5.584802014190927,-0.2746623941404778,-0.7629510948347615
1539732878701492,5.706874189364498,-0.03051804379333589,-0.5188067444876197
1539732878717498,6.256198977645454,0.213626306553806,-0.33569848172737693
1539732878733505,5.462729839017356,0.03051804379333589,-0.33569848172737693
1539732878749511,4.730296787975931,-0.3967345693140487,-0.09155413138023505
1539732878765518,3.997863736934505,-0.3967345693140487,0.2746623941404778
1539732878781524,3.2654306858930795,-0.213626306553806,0.45777065690094787
1539732878797531,3.2043945983061803,0.03051804379333589,0.15259021896690683
1539732878813537,4.242008087281647,-0.09155413138023505,-0.03051804379333589
1539732878829544,7.904173342488775,-0.15259021896690683,-0.2746623941404778
1539732878845550,20.11139085984587,-0.15259021896690683,-0.2746623941404778
1539732878861557,18.463416495002548,-1.5564202334630863,0.213626306553806
1539732878877563,9.308003356984727,-3.0212863355459376,-0.2746623941404778
1539732878893570,3.7537193865873633,-3.2043945983061803,-1.4343480582895154
1539732878909576,0.15259021896690683,-3.1433585107195086,-2.410925459678083
1539732878925583,-1.1902037079423735,-3.4485389486533222,-2.288853284504512
1539732878941589,-1.6784924086366573,-4.42511635004189,-1.3733119707026162
1539732878957595,-1.9226367589837992,-5.523765926604028,-0.33569848172737693
1539732878973602,-1.739528496223329,-5.401693751430457,-0.03051804379333589
1539732878989608,4.547188525215461,-3.0212863355459376,0.9460593575952316
1539732879005615,3.0823224231326094,-0.7629510948347615,1.983672846570471
1539732879021621,2.8381780727854675,-1.0681315327688026,1.1902037079423735
1539732879037628,-0.7019150072480898,-3.1433585107195086,-0.03051804379333589
1539732879053634,-1.5564202334630863,-4.119935912108076,-0.7019150072480898
1539732879069641,-1.1291676203554744,-2.8381780727854675,-0.09155413138023505
1539732879085647,1.4953841458761872,-1.3733119707026162,0.9460593575952316
1539732879101654,1.8005645838102282,-1.5564202334630863,1.1902037079423735
1539732879117660,0.7629510948347615,-2.5940337224383256,0.8239871824216607
1539732879133667,-0.8239871824216607,-2.227817196917613,0.45777065690094787
1539732879149673,0.7019150072480898,-1.3122758831159445,0.2746623941404778
1539732879165680,1.2512397955290453,-1.2512397955290453,0.33569848172737693
1539732879181686,1.4343480582895154,-1.9226367589837992,0.45777065690094787
1539732879197692,0.9460593575952316,-2.166781109330941,0.3967345693140487
1539732879213699,0.7629510948347615,-1.4953841458761872,0.2746623941404778
1539732879229705,1.0070954451819034,-0.6408789196611906,0.09155413138023505
1539732879245712,1.0681315327688026,-0.213626306553806,0.15259021896690683
1539732879261718,1.0070954451819034,-0.15259021896690683,0.33569848172737693
1539732879277725,1.4343480582895154,-0.213626306553806,0.45777065690094787
1539732879293731,2.166781109330941,-0.15259021896690683,0.213626306553806
1539732879309738,2.105745021744042,0.03051804379333589,-0.09155413138023505
1539732879325744,1.9226367589837992,0.45777065690094787,-0.15259021896690683
1539732879341751,2.166781109330941,1.4343480582895154,-0.03051804379333589
1539732879357757,1.0681315327688026,2.105745021744042,-0.15259021896690683
1539732879373764,0.33569848172737693,1.4953841458761872,-0.8239871824216607
1539732879389770,-2.288853284504512,0.213626306553806,-2.227817196917613
1539732879405777,-6.8665598535133086,0.33569848172737693,-3.570611123826893
1539732879421783,-7.721065079728305,2.227817196917613,-3.875791561760934
1539732879437790,-2.7771419851987957,4.058899824521177,-3.1433585107195086
1539732879453796,0.09155413138023505,3.7537193865873633,-1.6174563210497581
1539732879469802,3.997863736934505,2.7771419851987957,0.33569848172737693
1539732879485809,19.745174334325156,5.584802014190927,5.3406576638437855
1539732879501815,20.11139085984587,6.195162890058782,8.697642481116873
1539732879517822,22.980086976424673,5.0354772259097444,9.369039444571627
1539732879533828,23.89562829022657,2.227817196917613,8.148317692835917
1539732879549835,15.594720378423744,-0.6408789196611906,5.706874189364498
1539732879565841,3.4485389486533222,-2.410925459678083,2.4719615472647547
1539732879581848,-1.983672846570471,-2.227817196917613,-0.5188067444876197
1539732879597854,-2.5940337224383256,-1.2512397955290453,-2.105745021744042
1539732879613861,-1.6784924086366573,-0.5188067444876197,-2.04470893415737
1539732879629867,-0.15259021896690683,-0.8850232700083325,-1.0070954451819034
1539732879645874,0.45777065690094787,-2.3498893720911838,0.15259021896690683
1539732879661880,0.33569848172737693,-3.814755474174035,0.7019150072480898
1539732879677887,0.03051804379333589,-4.486152437628789,0.5798428320745188
1539732879693893,0.03051804379333589,-4.119935912108076,-0.15259021896690683
1539732879709900,-0.2746623941404778,-3.0823224231326094,-0.9460593575952316
1539732879725906,0.6408789196611906,-1.6784924086366573,-1.3122758831159445
1539732879741912,1.1291676203554744,-0.9460593575952316,-1.2512397955290453
1539732879757919,1.5564202334630863,-1.0681315327688026,-1.1291676203554744
1539732879773925,5.0354772259097444,-1.1902037079423735,-0.9460593575952316
1539732879789932,10.772869459067579,-1.1902037079423735,0.03051804379333589
1539732879805938,8.697642481116873,-2.227817196917613,1.2512397955290453
1539732879821945,8.880750743877343,-3.875791561760934,1.6174563210497581
1539732879837951,9.002822919050914,-5.584802014190927,1.4343480582895154
1539732879853958,4.9134050507361735,-5.95101853971164,1.3122758831159445
1539732879869964,2.166781109330941,-4.119935912108076,1.4343480582895154
1539732879885971,2.9602502479590385,-1.3122758831159445,1.4343480582895154
1539732879901977,3.7537193865873633,0.3967345693140487,1.3122758831159445
1539732879917984,2.532997634851654,0.2746623941404778,1.0681315327688026
1539732879933990,1.3122758831159445,-1.1902037079423735,0.5188067444876197
1539732879949997,-0.5798428320745188,-2.655069810025225,0.03051804379333589
1539732879966003,-1.3122758831159445,-2.9602502479590385,-0.3967345693140487
1539732879982010,0.45777065690094787,-1.8005645838102282,-0.5188067444876197
1539732879998016,2.8992141603723667,-0.09155413138023505,-0.8239871824216607
1539732880014022,5.584802014190927,0.8850232700083325,-1.2512397955290453
1539732880030029,4.974441138323073,0.3967345693140487,-1.8616006713969
1539732880046035,2.166781109330941,-0.7629510948347615,-2.3498893720911838
1539732880062042,1.0681315327688026,-1.4343480582895154,-2.410925459678083
1539732880078048,1.4953841458761872,-1.5564202334630863,-2.288853284504512
1539732880094055,2.3498893720911838,-1.3122758831159445,-2.166781109330941
1539732880110061,2.8381780727854675,-1.2512397955290453,-1.983672846570471
1539732880126068,2.410925459678083,-1.5564202334630863,-1.6784924086366573
1539732880142074,1.8005645838102282,-2.166781109330941,-1.6784924086366573
1539732880158081,1.3122758831159445,-2.8381780727854675,-1.5564202334630863
1539732880174087,0.6408789196611906,-3.6316472114137923,-1.1902037079423735
1539732880190094,-0.8239871824216607,-4.486152437628789,-0.45777065690094787
1539732880206100,-1.4953841458761872,-4.852368963149502,0.33569848172737693
1539732880222107,-0.8239871824216607,-4.42511635004189,0.9460593575952316
1539732880238113,-0.2746623941404778,-3.3875028610666504,0.9460593575952316
1539732880254119,0.3967345693140487,-2.4719615472647547,0.7019150072480898
1539732880270126,2.3498893720911838,-2.410925459678083,0.3967345693140487
1539732880286132,4.42511635004189,-3.0823224231326094,0.45777065690094787
1539732880302139,0.8850232700083325,-4.486152437628789,0.7629510948347615
1539732880318145,-1.5564202334630863,-5.462729839017356,0.7629510948347615
1539732880334152,-2.105745021744042,-5.2185854886702145,0.7629510948347615
1539732880350158,-2.532997634851654,-4.180971999694748,0.7629510948347615
1539732880366165,-1.739528496223329,-3.2043945983061803,0.9460593575952316
1539732880382171,-1.4343480582895154,-2.7161058976118966,1.1902037079423735
1539732880398178,-1.4953841458761872,-2.7161058976118966,1.3733119707026162
1539732880414184,-1.6174563210497581,-2.5940337224383256,1.4953841458761872
1539732880430191,-0.7019150072480898,-2.4719615472647547,1.1291676203554744
1539732880446197,-0.7629510948347615,-2.3498893720911838,0.7019150072480898
1539732880462204,0.8239871824216607,-2.5940337224383256,0.2746623941404778
1539732880478210,4.303044174868319,-2.8381780727854675,0.09155413138023505
1539732880494217,4.058899824521177,-2.655069810025225,0.7019150072480898
1539732880510223,2.655069810025225,-2.532997634851654,1.0681315327688026
1539732880526229,3.3875028610666504,-2.655069810025225,0.9460593575952316
1539732880542236,0.8850232700083325,-3.2043945983061803,0.5798428320745188
1539732880558242,-1.6784924086366573,-3.6316472114137923,0.2746623941404778
1539732880574279,-1.3733119707026162,-3.570611123826893,0.213626306553806
1539732880590286,-1.1291676203554744,-3.3875028610666504,0.5798428320745188
1539732880606292,-0.6408789196611906,-3.4485389486533222,0.9460593575952316
1539732880622299,-0.213626306553806,-3.3875028610666504,1.1291676203554744
1539732880638305,-0.5798428320745188,-2.8381780727854675,0.8850232700083325
1539732880654312,0.7019150072480898,-1.8005645838102282,0.33569848172737693
1539732880670318,0.7019150072480898,-1.3122758831159445,-0.2746623941404778
1539732880686325,0.213626306553806,-1.1902037079423735,-0.6408789196611906
1539732880702331,0.33569848172737693,-1.1902037079423735,-0.5798428320745188
1539732880718338,0.8850232700083325,-1.1902037079423735,-0.3967345693140487
1539732880734344,1.0070954451819034,-0.8850232700083325,-0.213626306553806
1539732880750351,1.5564202334630863,-0.15259021896690683,-0.03051804379333589
1539732880766357,2.166781109330941,0.7019150072480898,0.03051804379333589
1539732880782364,2.4719615472647547,1.3733119707026162,-0.15259021896690683
1539732880798370,3.0212863355459376,1.6784924086366573,-0.5798428320745188
1539732880814376,8.45349813076973,2.166781109330941,-0.7019150072480898
1539732880830383,9.063859006637585,2.4719615472647547,-0.03051804379333589
1539732880846389,6.927595941100208,2.5940337224383256,0.7019150072480898
1539732880862396,8.392462043183059,2.8381780727854675,0.8850232700083325
1539732880878402,8.697642481116873,2.7771419851987957,0.9460593575952316
1539732880894439,6.073090714885211,2.105745021744042,1.1291676203554744
1539732880910446,4.242008087281647,1.4953841458761872,1.2512397955290453
1539732880926452,5.3406576638437855,1.4953841458761872,1.3122758831159445
1539732880942459,8.087281605249018,2.166781109330941,1.2512397955290453
1539732880958465,9.67421988250544,2.5940337224383256,0.7629510948347615
1539732880974472,7.843137254901876,2.288853284504512,0.15259021896690683
1539732880990478,4.974441138323073,1.4953841458761872,-0.213626306553806
1539732881006485,2.532997634851654,-0.03051804379333589,-0.3967345693140487
1539732881022491,-0.2746623941404778,-1.4953841458761872,-0.5798428320745188
1539732881038498,-2.288853284504512,-1.8616006713969,-0.33569848172737693
1539732881054504,-1.4953841458761872,-0.9460593575952316,0.2746623941404778
1539732881070510,0.09155413138023505,-0.09155413138023505,0.7019150072480898
1539732881086517,1.3122758831159445,-0.2746623941404778,0.9460593575952316
1539732881102523,0.8850232700083325,-1.2512397955290453,0.8239871824216607
1539732881118530,-0.7629510948347615,-1.6784924086366573,0.8239871824216607
1539732881134536,-0.33569848172737693,-1.0681315327688026,0.9460593575952316
1539732881150543,0.5188067444876197,-0.15259021896690683,1.0681315327688026
1539732881166549,1.3122758831159445,0.3967345693140487,0.8850232700083325
1539732881182556,1.1902037079423735,0.2746623941404778,0.5188067444876197
1539732881198562,0.15259021896690683,-0.6408789196611906,0.213626306553806
1539732881214569,-0.6408789196611906,-1.739528496223329,0.33569848172737693
1539732881230575,-1.0681315327688026,-2.532997634851654,1.0681315327688026
1539732881246582,-0.213626306553806,-2.7161058976118966,1.739528496223329
1539732881262588,-0.09155413138023505,-2.166781109330941,1.9226367589837992
1539732881278595,0.7629510948347615,-1.5564202334630863,1.739528496223329
1539732881294601,0.9460593575952316,-1.8005645838102282,1.3733119707026162
1539732881310608,-0.6408789196611906,-2.8381780727854675,1.0681315327688026
1539732881326614,-1.3733119707026162,-3.692683299000464,1.0681315327688026
1539732881342620,-1.5564202334630863,-3.570611123826893,1.1902037079423735
1539732881358627,-0.2746623941404778,-2.532997634851654,1.1902037079423735
1539732881374633,-0.09155413138023505,-1.4953841458761872,1.0681315327688026
1539732881390640,-0.09155413138023505,-0.8850232700083325,1.0681315327688026
1539732881406646,0.09155413138023505,-0.7629510948347615,1.1902037079423735
1539732881422653,0.09155413138023505,-0.8850232700083325,1.4953841458761872
1539732881438659,0.15259021896690683,-1.0070954451819034,1.6784924086366573
1539732881454666,-0.3967345693140487,-0.7629510948347615,1.4343480582895154
1539732881470672,-0.15259021896690683,0.03051804379333589,0.8850232700083325
1539732881486679,0.5188067444876197,0.7629510948347615,0.8850232700083325
1539732881502685,1.5564202334630863,1.0070954451819034,1.3733119707026162
1539732881518692,1.983672846570471,1.0070954451819034,1.6174563210497581
1539732881534698,0.5798428320745188,0.8850232700083325,1.3733119707026162
1539732881550705,1.9226367589837992,0.9460593575952316,0.6408789196611906
1539732881566711,8.33142595559616,1.0681315327688026,0.5798428320745188
1539732881582718,9.613183794918768,0.8850232700083325,1.8005645838102282
1539732881598724,6.134126802471883,-0.03051804379333589,2.7771419851987957
1539732881614730,5.3406576638437855,-0.7019150072480898,3.2654306858930795
1539732881630737,4.058899824521177,-1.4343480582895154,3.3875028610666504
1539732881646743,1.6784924086366573,-1.8005645838102282,3.0212863355459376
1539732881662750,-0.213626306553806,-1.2512397955290453,2.4719615472647547
1539732881678756,-0.7019150072480898,0.09155413138023505,1.8005645838102282
1539732881694763,0.45777065690094787,1.1291676203554744,1.3122758831159445
1539732881710769,0.5798428320745188,1.0681315327688026,1.3733119707026162
1539732881726776,1.9226367589837992,0.6408789196611906,1.5564202334630863
1539732881742782,2.7161058976118966,0.5798428320745188,1.4343480582895154
1539732881758789,3.4485389486533222,1.0681315327688026,1.0070954451819034
1539732881774795,3.936827649347606,1.5564202334630863,0.5798428320745188
1539732881790802,3.7537193865873633,1.6784924086366573,0.3967345693140487
1539732881806808,4.058899824521177,1.2512397955290453,0.7019150072480898
1539732881822815,5.157549401083315,0.3967345693140487,1.1902037079423735
1539732881838821,6.561379415579495,-0.6408789196611906,1.3122758831159445
1539732881854828,14.618142977035177,-0.7629510948347615,1.8616006713969
1539732881870834,13.824673838406852,-0.7629510948347615,2.5940337224383256
1539732881886840,8.880750743877343,-1.0681315327688026,2.410925459678083
1539732881902847,6.8665598535133086,-1.6174563210497581,1.4953841458761872
1539732881918853,4.42511635004189,-3.2043945983061803,0.6408789196611906
1539732881934860,1.2512397955290453,-5.401693751430457,0.09155413138023505
1539732881950866,-0.03051804379333589,-6.744487678339738,-0.15259021896690683
1539732881966873,-0.3967345693140487,-6.500343327992596,-0.2746623941404778
1539732881982879,0.2746623941404778,-5.096513313496644,-0.33569848172737693
1539732881998886,1.6784924086366573,-3.5095750362402214,0.213626306553806
1539732882014892,3.3264667734797513,-2.532997634851654,1.1902037079423735
1539732882030899,2.655069810025225,-2.5940337224383256,1.8005645838102282
1539732882046905,1.3733119707026162,-2.8381780727854675,1.6784924086366573
1539732882062912,-0.45777065690094787,-2.7161058976118966,1.3733119707026162
1539732882078918,-2.3498893720911838,-1.6784924086366573,1.4343480582895154
1539732882094925,-0.03051804379333589,-0.03051804379333589,2.288853284504512
1539732882110931,2.655069810025225,0.5188067444876197,3.692683299000464
1539732882126937,0.9460593575952316,-0.3967345693140487,5.2185854886702145
1539732882142944,0.15259021896690683,-1.3122758831159445,6.500343327992596
1539732882158950,2.04470893415737,-1.6784924086366573,6.927595941100208
1539732882174957,1.6174563210497581,-1.6784924086366573,6.134126802471883
1539732882190963,1.0681315327688026,-1.1902037079423735,4.058899824521177
1539732882206970,3.3875028610666504,0.03051804379333589,1.8616006713969
1539732882222976,0.6408789196611906,0.5798428320745188,-0.213626306553806
1539732882238983,-3.6316472114137923,-0.03051804379333589,-1.983672846570471
1539732882254989,-4.730296787975931,-0.7019150072480898,-2.5940337224383256
1539732882270996,-4.303044174868319,-0.7629510948347615,-1.8005645838102282
1539732882287002,-1.8005645838102282,-0.2746623941404778,0.03051804379333589
1539732882303009,0.33569848172737693,-0.09155413138023505,1.6784924086366573
1539732882319015,0.8850232700083325,-0.2746623941404778,1.983672846570471
1539732882335022,-0.7019150072480898,-0.45777065690094787,1.0681315327688026
1539732882351028,-1.0070954451819034,-0.213626306553806,-0.2746623941404778
1539732882367035,-1.0070954451819034,0.15259021896690683,-1.5564202334630863
1539732882383041,-0.8239871824216607,0.7019150072480898,-2.166781109330941
1539732882399047,0.2746623941404778,1.2512397955290453,-1.983672846570471
1539732882415054,0.3967345693140487,1.739528496223329,-1.4343480582895154
1539732882431060,0.45777065690094787,1.983672846570471,-0.6408789196611906
1539732882447067,1.5564202334630863,2.227817196917613,-0.03051804379333589
1539732882463073,2.9602502479590385,2.04470893415737,0.2746623941404778
1539732882479080,3.2654306858930795,1.5564202334630863,0.213626306553806
1539732882495086,3.3264667734797513,0.9460593575952316,-0.15259021896690683
1539732882511093,2.227817196917613,0.15259021896690683,-0.33569848172737693
1539732882527099,1.983672846570471,-0.2746623941404778,-0.2746623941404778
1539732882543106,2.3498893720911838,-0.9460593575952316,0.15259021896690683
1539732882559112,1.6174563210497581,-1.983672846570471,0.7629510948347615
1539732882575119,2.288853284504512,-3.1433585107195086,1.2512397955290453
1539732882591125,1.6174563210497581,-4.547188525215461,1.5564202334630863
1539732882607132,1.0070954451819034,-5.462729839017356,1.6174563210497581
1539732882623138,1.6174563210497581,-5.645838101777599,1.4953841458761872
1539732882639145,1.0070954451819034,-5.584802014190927,1.0070954451819034
1539732882655151,0.213626306553806,-4.974441138323073,0.3967345693140487
1539732882671157,-0.33569848172737693,-3.997863736934505,0.213626306553806
1539732882687164,0.5798428320745188,-2.9602502479590385,0.5798428320745188
1539732882703170,0.5798428320745188,-2.655069810025225,0.9460593575952316
1539732882719177,0.09155413138023505,-3.0823224231326094,0.7019150072480898
1539732882735183,-0.7019150072480898,-3.814755474174035,0.3967345693140487
1539732882751190,-1.4343480582895154,-4.60822461280236,0.2746623941404778
1539732882767196,-1.4953841458761872,-4.791332875562603,0.5798428320745188
1539732882783203,-0.9460593575952316,-4.42511635004189,1.0681315327688026
1539732882799209,-1.0070954451819034,-3.997863736934505,1.3733119707026162
1539732882815246,-1.1291676203554744,-3.875791561760934,1.2512397955290453
1539732882831253,-1.4343480582895154,-3.692683299000464,0.9460593575952316
1539732882847259,4.180971999694748,-2.7771419851987957,0.8239871824216607
1539732882863266,8.270389868009488,-1.0681315327688026,1.739528496223329
1539732882879272,3.875791561760934,0.15259021896690683,2.655069810025225
1539732882895279,3.6316472114137923,1.739528496223329,2.7771419851987957
1539732882911285,6.927595941100208,3.3875028610666504,2.532997634851654
1539732882927291,8.941786831464015,5.157549401083315,1.983672846570471
1539732882943298,9.979400320439481,7.598992904554734,1.1902037079423735
1539732882959304,11.07804989700162,10.223544670786623,0.8239871824216607
1539732882975311,17.54787518120088,12.481879911497572,0.8239871824216607
1539732882991317,24.444953078507524,13.519493400473038,0.9460593575952316
1539732883007324,25.60463874265656,12.970168612191856,0.8239871824216607
1539732883023330,23.773556115052997,11.01701380941472,0.2746623941404778
1539732883039337,20.782787823300396,8.209353780422589,-0.7629510948347615
1539732883055343,14.373998626688035,5.0354772259097444,-1.4953841458761872
1539732883071350,6.8665598535133086,1.9226367589837992,-1.739528496223329
1539732883087356,3.1433585107195086,-0.213626306553806,-2.04470893415737
1539732883103363,0.7629510948347615,-1.3733119707026162,-2.5940337224383256
1539732883119369,-1.8005645838102282,-1.8616006713969,-2.9602502479590385
1539732883135376,-3.0823224231326094,-1.4953841458761872,-2.9602502479590385
1539732883151382,-2.227817196917613,-0.7019150072480898,-2.105745021744042
1539732883167389,-0.3967345693140487,-0.213626306553806,-0.3967345693140487
1539732883183395,0.33569848172737693,-0.3967345693140487,1.4953841458761872
1539732883199401,0.15259021896690683,-0.7629510948347615,2.410925459678083
1539732883215408,-0.3967345693140487,-0.8850232700083325,1.739528496223329
1539732883231414,-1.8616006713969,-0.7629510948347615,0.33569848172737693
1539732883247421,-1.8005645838102282,-0.33569848172737693,-0.5188067444876197
1539732883263427,-0.2746623941404778,-0.2746623941404778,-0.2746623941404778
1539732883279434,0.8850232700083325,-0.9460593575952316,0.5188067444876197
1539732883295440,2.04470893415737,-2.5940337224383256,0.7629510948347615
1539732883311447,0.8239871824216607,-4.730296787975931,0.15259021896690683
1539732883327453,-0.7629510948347615,-6.195162890058782,-0.5798428320745188
1539732883343460,-0.9460593575952316,-6.683451590753066,-0.8239871824216607
1539732883359466,-0.8850232700083325,-6.744487678339738,-0.33569848172737693
1539732883375473,-0.7019150072480898,-6.561379415579495,0.5188067444876197
1539732883391479,-1.1291676203554744,-6.195162890058782,1.2512397955290453
1539732883407486,-1.6174563210497581,-5.462729839017356,1.1902037079423735
1539732883423492,-2.410925459678083,-4.547188525215461,0.5798428320745188
1539732883439499,-2.7161058976118966,-3.570611123826893,-0.15259021896690683
1539732883455505,-2.4719615472647547,-3.0823224231326094,-0.15259021896690683
1539732883471511,-1.1902037079423735,-3.2043945983061803,0.5188067444876197
1539732883487518,0.15259021896690683,-3.814755474174035,1.1291676203554744
1539732883503524,1.0681315327688026,-4.547188525215461,1.3122758831159445
1539732883519531,1.1902037079423735,-5.096513313496644,1.0681315327688026
1539732883535537,0.5188067444876197,-5.157549401083315,0.5798428320745188
1539732883551544,1.3122758831159445,-4.60822461280236,0.03051804379333589
1539732883567550,2.3498893720911838,-4.119935912108076,-0.03051804379333589
1539732883583557,2.9602502479590385,-3.936827649347606,0.15259021896690683
1539732883599563,3.2043945983061803,-3.997863736934505,0.3967345693140487
1539732883615570,2.7771419851987957,-4.058899824521177,0.3967345693140487
1539732883631576,1.3733119707026162,-3.814755474174035,0.03051804379333589
1539732883647583,0.5188067444876197,-3.2043945983061803,-0.5188067444876197
1539732883663589,-0.15259021896690683,-2.288853284504512,-0.8239871824216607
1539732883679596,0.5188067444876197,-1.739528496223329,-0.45777065690094787
1539732883695602,1.6784924086366573,-1.6784924086366573,0.2746623941404778
1539732883711609,1.2512397955290453,-2.105745021744042,0.7629510948347615
1539732883727615,0.7629510948347615,-2.288853284504512,0.6408789196611906
1539732883743621,-0.09155413138023505,-2.105745021744042,0.213626306553806
1539732883759628,0.45777065690094787,-1.2512397955290453,-0.2746623941404778
1539732883775665,1.2512397955290453,-0.33569848172737693,-0.45777065690094787
1539732883791671,1.5564202334630863,-0.03051804379333589,-0.2746623941404778
1539732883807678,1.5564202334630863,-0.8850232700083325,0.03051804379333589
1539732883823684,0.2746623941404778,-2.227817196917613,0.09155413138023505
1539732883839691,-1.0070954451819034,-3.1433585107195086,0.213626306553806
1539732883855697,-0.15259021896690683,-3.7537193865873633,0.33569848172737693
1539732883871704,0.09155413138023505,-4.42511635004189,0.45777065690094787
1539732883887710,-0.03051804379333589,-5.157549401083315,0.45777065690094787
1539732883903717,-0.03051804379333589,-5.828946364538069,0.33569848172737693
1539732883919723,-1.2512397955290453,-5.828946364538069,-0.03051804379333589
1539732883935730,-1.4953841458761872,-4.9134050507361735,-0.45777065690094787
1539732883951736,-0.9460593575952316,-3.936827649347606,-0.6408789196611906
1539732883967743,-0.45777065690094787,-3.570611123826893,-0.45777065690094787
1539732883983749,-0.8239871824216607,-3.6316472114137923,-0.15259021896690683
1539732883999755,-0.09155413138023505,-3.692683299000464,0.213626306553806
1539732884015762,0.7019150072480898,-3.7537193865873633,0.5188067444876197
1539732884031768,0.6408789196611906,-3.997863736934505,0.8239871824216607
1539732884047775,0.213626306553806,-4.303044174868319,0.8850232700083325
1539732884063781,-0.5188067444876197,-4.364080262455218,0.8239871824216607
1539732884079788,-0.9460593575952316,-3.814755474174035,0.7629510948347615
1539732884095794,0.03051804379333589,-3.3264667734797513,0.8239871824216607
1539732884111801,-0.2746623941404778,-3.1433585107195086,0.8239871824216607
1539732884127807,-0.5188067444876197,-3.2654306858930795,0.9460593575952316
1539732884143814,-0.9460593575952316,-3.5095750362402214,0.8239871824216607
1539732884159820,-1.6784924086366573,-3.4485389486533222,0.3967345693140487
1539732884175827,-1.9226367589837992,-2.7771419851987957,0.09155413138023505
1539732884191833,-1.5564202334630863,-1.6784924086366573,-0.09155413138023505
1539732884207840,-1.4343480582895154,-0.7019150072480898,-0.09155413138023505
1539732884223846,-1.983672846570471,-0.2746623941404778,0.03051804379333589
1539732884239853,-1.983672846570471,-0.2746623941404778,0.33569848172737693
1539732884255859,-1.2512397955290453,-0.2746623941404778,0.6408789196611906
1539732884271865,-0.8850232700083325,-0.33569848172737693,0.7019150072480898
1539732884287872,-0.8850232700083325,-0.213626306553806,0.2746623941404778
1539732884303878,-0.6408789196611906,0.213626306553806,-0.33569848172737693
1539732884319885,0.03051804379333589,0.6408789196611906,-0.7629510948347615
1539732884335891,0.5798428320745188,0.7019150072480898,-0.8850232700083325
1539732884351898,0.3967345693140487,0.45777065690094787,-0.8239871824216607
1539732884367904,0.213626306553806,0.45777065690094787,-0.9460593575952316
1539732884383911,0.03051804379333589,1.0070954451819034,-0.9460593575952316
1539732884399917,0.5798428320745188,1.6174563210497581,-0.9460593575952316
1539732884415924,0.8239871824216607,1.8005645838102282,-0.8239871824216607
1539732884431930,0.5798428320745188,1.6174563210497581,-0.5798428320745188
1539732884447937,0.213626306553806,1.4953841458761872,-0.5798428320745188
1539732884463943,0.8850232700083325,1.6174563210497581,-0.5798428320745188
1539732884479950,1.8616006713969,1.5564202334630863,-0.5188067444876197
1539732884495956,1.6174563210497581,0.8850232700083325,-0.3967345693140487
1539732884511963,1.0070954451819034,-0.03051804379333589,-0.2746623941404778
1539732884527969,0.03051804379333589,-0.5798428320745188,-0.03051804379333589
1539732884543975,1.9226367589837992,-0.33569848172737693,0.15259021896690683
1539732884559982,6.378271152819025,0.3967345693140487,0.213626306553806
1539732884575988,5.462729839017356,0.5798428320745188,-0.15259021896690683
1539732884591995,2.9602502479590385,0.5798428320745188,-0.8850232700083325
1539732884608001,1.739528496223329,0.2746623941404778,-1.6174563210497581
1539732884624008,0.45777065690094787,-0.213626306553806,-1.8616006713969
1539732884640014,1.3733119707026162,-0.7019150072480898,-1.3733119707026162
1539732884656021,1.6784924086366573,-1.3122758831159445,-0.6408789196611906
1539732884672027,0.5188067444876197,-1.1902037079423735,-0.33569848172737693
1539732884688034,0.8239871824216607,-0.15259021896690683,-0.2746623941404778
1539732884704040,1.1902037079423735,0.7019150072480898,-0.09155413138023505
1539732884720047,1.1902037079423735,0.7019150072480898,0.2746623941404778
1539732884736084,1.3122758831159445,-0.15259021896690683,0.5798428320745188
1539732884752090,1.5564202334630863,-1.2512397955290453,0.5798428320745188
1539732884768097,0.9460593575952316,-2.105745021744042,0.213626306553806
1539732884784103,0.213626306553806,-2.7771419851987957,0.03051804379333589
1539732884800109,0.33569848172737693,-3.0823224231326094,0.3967345693140487
1539732884816116,-0.09155413138023505,-3.3875028610666504,1.0681315327688026
1539732884832122,-0.6408789196611906,-3.3875028610666504,1.9226367589837992
1539732884848129,0.7629510948347615,-3.4485389486533222,2.5940337224383256
1539732884864135,-0.213626306553806,-3.814755474174035,2.7771419851987957
1539732884880142,-0.9460593575952316,-4.058899824521177,2.7771419851987957
1539732884896148,-0.8850232700083325,-3.875791561760934,2.8381780727854675
1539732884912155,-0.5798428320745188,-3.3264667734797513,3.0212863355459376
1539732884928161,-0.09155413138023505,-2.3498893720911838,3.1433585107195086
1539732884944168,0.15259021896690683,-1.2512397955290453,3.1433585107195086
1539732884960174,0.33569848172737693,-0.33569848172737693,3.0212863355459376
1539732884976181,0.03051804379333589,0.09155413138023505,2.7161058976118966
1539732884992187,-0.7019150072480898,0.15259021896690683,2.4719615472647547
1539732885008194,-0.8239871824216607,0.213626306553806,2.288853284504512
1539732885024200,-0.9460593575952316,0.33569848172737693,2.410925459678083
1539732885040207,-0.9460593575952316,0.45777065690094787,2.4719615472647547
1539732885056213,-0.2746623941404778,0.7019150072480898,2.3498893720911838
1539732885072219,-0.03051804379333589,0.8239871824216607,2.166781109330941
1539732885088226,-0.33569848172737693,1.1291676203554744,1.739528496223329
1539732885104232,-0.7629510948347615,1.5564202334630863,1.1902037079423735
1539732885120239,-0.9460593575952316,2.166781109330941,0.5188067444876197
1539732885136245,0.2746623941404778,2.7771419851987957,-0.03051804379333589
1539732885152252,1.5564202334630863,2.7161058976118966,-0.213626306553806
1539732885168258,1.9226367589837992,2.105745021744042,-0.33569848172737693
1539732885184265,1.3122758831159445,1.3733119707026162,-0.45777065690094787
1539732885200271,1.1291676203554744,1.1291676203554744,-0.6408789196611906
1539732885216278,1.3733119707026162,1.2512397955290453,-0.6408789196611906
1539732885232284,2.166781109330941,1.6174563210497581,-0.6408789196611906
1539732885248291,2.227817196917613,1.5564202334630863,-0.7019150072480898
1539732885264297,1.4343480582895154,0.8239871824216607,-0.6408789196611906
1539732885280304,0.45777065690094787,-0.03051804379333589,-0.6408789196611906
1539732885296310,0.2746623941404778,-0.3967345693140487,-0.5188067444876197
1539732885312317,0.5798428320745188,-0.7019150072480898,-0.3967345693140487
1539732885328323,0.9460593575952316,-0.8850232700083325,-0.5188067444876197
1539732885344329,-0.09155413138023505,-1.0070954451819034,-0.3967345693140487
1539732885360336,0.5188067444876197,-1.0070954451819034,-0.2746623941404778
1539732885376342,0.33569848172737693,-1.3122758831159445,-0.09155413138023505
1539732885392349,0.33569848172737693,-1.9226367589837992,0.15259021896690683
1539732885408355,0.5798428320745188,-2.410925459678083,0.09155413138023505
1539732885424362,-0.09155413138023505,-2.410925459678083,-0.3967345693140487
1539732885440368,-0.5798428320745188,-1.9226367589837992,-1.0070954451819034
1539732885456375,-0.6408789196611906,-1.4953841458761872,-1.0681315327688026
1539732885472381,-0.3967345693140487,-1.2512397955290453,-0.5188067444876197
1539732885488388,0.2746623941404778,-1.4953841458761872,0.09155413138023505
1539732885504394,0.15259021896690683,-1.9226367589837992,0.3967345693140487
1539732885520401,-0.7019150072480898,-2.288853284504512,0.33569848172737693
1539732885536407,-0.45777065690094787,-2.105745021744042,0.33569848172737693
1539732885552414,0.213626306553806,-1.4953841458761872,0.213626306553806
1539732885568420,0.45777065690094787,-1.1902037079423735,-0.213626306553806
1539732885584427,-0.09155413138023505,-1.1291676203554744,-0.7629510948347615
1539732885600433,0.09155413138023505,-1.5564202334630863,-0.9460593575952316
1539732885616439,-0.5188067444876197,-2.04470893415737,-0.7629510948347615
1539732885632446,0.2746623941404778,-2.04470893415737,-0.5798428320745188
1539732885648452,0.33569848172737693,-1.8005645838102282,-0.5798428320745188
1539732885664459,0.33569848172737693,-1.1291676203554744,-1.0070954451819034
1539732885680465,0.45777065690094787,-0.213626306553806,-1.3122758831159445
1539732885696472,1.3122758831159445,0.7629510948347615,-1.5564202334630863
1539732885712478,2.3498893720911838,1.4953841458761872,-1.6784924086366573
1539732885728485,2.288853284504512,1.2512397955290453,-1.9226367589837992
1539732885744491,1.6784924086366573,0.45777065690094787,-1.8616006713969
1539732885760498,1.6174563210497581,-0.213626306553806,-1.4953841458761872
1539732885776504,2.227817196917613,-0.3967345693140487,-1.1291676203554744
1539732885792511,2.7771419851987957,-0.2746623941404778,-1.0681315327688026
1539732885808517,2.8992141603723667,-0.5798428320745188,-1.3122758831159445
1539732885824524,2.288853284504512,-1.3122758831159445,-1.4953841458761872
1539732885840530,1.4953841458761872,-2.105745021744042,-1.5564202334630863
1539732885856536,1.2512397955290453,-2.5940337224383256,-1.3733119707026162
1539732885872543,1.2512397955290453,-2.7771419851987957,-0.8850232700083325
1539732885888549,1.4343480582895154,-2.8381780727854675,-0.45777065690094787
1539732885904556,1.3733119707026162,-3.1433585107195086,-0.15259021896690683
1539732885920562,0.9460593575952316,-3.4485389486533222,-0.15259021896690683
1539732885936569,0.8239871824216607,-3.570611123826893,-0.33569848172737693
1539732885952575,1.1291676203554744,-3.570611123826893,-0.3967345693140487
1539732885968582,1.0681315327688026,-3.6316472114137923,-0.3967345693140487
1539732885984588,0.9460593575952316,-3.6316472114137923,-0.3967345693140487
1539732886000595,0.6408789196611906,-3.3875028610666504,-0.6408789196611906
1539732886016601,0.8239871824216607,-3.0823224231326094,-0.8239871824216607
1539732886032608,1.5564202334630863,-2.9602502479590385,-0.8239871824216607
1539732886048614,1.8005645838102282,-3.1433585107195086,-0.5798428320745188
1539732886064621,1.6174563210497581,-3.2654306858930795,-0.3967345693140487
1539732886080627,1.9226367589837992,-3.3264667734797513,-0.3967345693140487
1539732886096634,1.6784924086366573,-3.0823224231326094,-0.6408789196611906
1539732886112640,1.6174563210497581,-3.0212863355459376,-0.7629510948347615
1539732886128646,0.9460593575952316,-3.3264667734797513,-0.7019150072480898
1539732886144653,0.6408789196611906,-3.692683299000464,-0.7019150072480898
1539732886160659,0.213626306553806,-3.570611123826893,-0.5798428320745188
1539732886176666,0.8850232700083325,-3.5095750362402214,-0.6408789196611906
1539732886192672,-0.03051804379333589,-3.692683299000464,-0.8239871824216607
1539732886208679,-0.09155413138023505,-3.997863736934505,-1.1291676203554744
1539732886224685,0.213626306553806,-3.997863736934505,-1.4953841458761872
1539732886240692,0.5798428320745188,-3.4485389486533222,-1.8005645838102282
1539732886256698,1.3122758831159445,-2.9602502479590385,-1.9226367589837992
1539732886272705,1.2512397955290453,-3.0823224231326094,-1.6174563210497581
1539732886288711,1.4953841458761872,-3.6316472114137923,-0.9460593575952316
1539732886304718,1.3122758831159445,-4.364080262455218,-0.33569848172737693
1539732886320724,1.2512397955290453,-4.9134050507361735,-0.09155413138023505
1539732886336761,0.9460593575952316,-5.0354772259097444,-0.213626306553806
1539732886352768,0.7019150072480898,-4.852368963149502,-0.2746623941404778
1539732886368775,0.45777065690094787,-4.791332875562603,-0.2746623941404778
1539732886384782,0.213626306553806,-4.791332875562603,-0.09155413138023505
1539732886400789,-0.33569848172737693,-4.730296787975931,0.15259021896690683
1539732886416796,0.15259021896690683,-4.60822461280236,0.213626306553806
1539732886432803,-0.15259021896690683,-4.486152437628789,0.213626306553806
1539732886448810,-0.213626306553806,-4.547188525215461,0.33569848172737693
1539732886464817,-0.33569848172737693,-4.852368963149502,0.5188067444876197
1539732886480824,-0.8850232700083325,-4.974441138323073,0.5798428320745188
1539732886496831,-1.4343480582895154,-4.669260700389032,0.5188067444876197
1539732886512838,-1.1291676203554744,-3.570611123826893,0.5798428320745188
1539732886528844,-0.213626306553806,-2.532997634851654,0.7629510948347615
1539732886544851,0.213626306553806,-2.04470893415737,0.8239871824216607
1539732886560858,0.213626306553806,-2.105745021744042,0.7629510948347615
1539732886576865,-0.213626306553806,-2.410925459678083,0.7019150072480898
1539732886592872,-0.3967345693140487,-2.4719615472647547,0.7019150072480898
1539732886608879,-0.15259021896690683,-2.105745021744042,0.7629510948347615
1539732886624886,0.09155413138023505,-1.5564202334630863,0.7019150072480898
1539732886640893,0.7019150072480898,-0.9460593575952316,0.7019150072480898
1539732886656921,1.1902037079423735,-0.7629510948347615,0.5188067444876197
1539732886672928,1.0681315327688026,-0.9460593575952316,0.2746623941404778
1539732886688935,0.8239871824216607,-1.3733119707026162,-0.03051804379333589
1539732886704942,0.8239871824216607,-1.4343480582895154,-0.3967345693140487
1539732886720949,0.8850232700083325,-1.3122758831159445,-0.5798428320745188
1539732886736956,0.9460593575952316,-1.3733119707026162,-0.6408789196611906
1539732886752963,0.8850232700083325,-1.5564202334630863,-0.7019150072480898
1539732886768970,0.7629510948347615,-1.8616006713969,-0.7019150072480898
1539732886784977,0.213626306553806,-2.166781109330941,-0.7629510948347615
1539732886800984,-0.09155413138023505,-2.227817196917613,-0.7629510948347615
1539732886816990,0.8239871824216607,-2.105745021744042,-0.5188067444876197
1539732886832997,1.739528496223329,-2.227817196917613,-0.15259021896690683
1539732886849004,1.2512397955290453,-2.7771419851987957,0.03051804379333589
1539732886865011,0.2746623941404778,-3.3264667734797513,0.15259021896690683
1539732886881018,0.09155413138023505,-3.3875028610666504,0.33569848172737693
1539732886897025,0.03051804379333589,-3.0823224231326094,0.45777065690094787
1539732886913032,-0.7629510948347615,-2.8992141603723667,0.6408789196611906
1539732886929039,-1.983672846570471,-3.2043945983061803,0.8239871824216607
1539732886945046,-2.9602502479590385,-3.3875028610666504,0.8239871824216607
1539732886961053,-3.875791561760934,-3.0212863355459376,0.8239871824216607
1539732886977050,-2.166781109330941,-2.04470893415737,0.45777065690094787
1539732886993057,1.3733119707026162,-0.7019150072480898,-0.09155413138023505
1539732887009064,0.45777065690094787,-0.03051804379333589,-0.7629510948347615
1539732887025071,-1.6784924086366573,-0.33569848172737693,-1.6174563210497581
1539732887041078,-5.76791027695117,-0.8239871824216607,-2.3498893720911838
1539732887057085,-7.660028992141633,-0.7019150072480898,-2.410925459678083
1539732887073092,-6.622415503166167,0.03051804379333589,-1.8005645838102282
1539732887089099,-5.828946364538069,1.1291676203554744,-0.9460593575952316
1539732887105106,-5.706874189364498,2.8381780727854675,-0.6408789196611906
1539732887121113,-5.279621576256886,4.974441138323073,-1.3122758831159445
1539732887137120,-0.213626306553806,7.721065079728305,-2.5940337224383256
1539732887153127,1.1902037079423735,10.345616845960194,-3.0823224231326094
1539732887169134,-2.7771419851987957,11.322194247348762,-2.9602502479590385
1539732887185141,-4.058899824521177,9.85732814526591,-2.3498893720911838
1539732887201148,-4.852368963149502,6.073090714885211,-1.6174563210497581
1539732887217155,-4.852368963149502,3.570611123826893,-1.4343480582895154
1539732887233162,-2.532997634851654,3.6316472114137923,-2.3498893720911838
1539732887249168,0.213626306553806,4.791332875562603,-3.875791561760934
1539732887265175,3.997863736934505,5.096513313496644,-4.730296787975931
1539732887281182,11.261158159761862,4.791332875562603,-4.180971999694748
1539732887297180,7.721065079728305,2.9602502479590385,-2.8381780727854675
1539732887313187,3.570611123826893,0.7019150072480898,-1.8616006713969
1539732887329194,-0.03051804379333589,-1.2512397955290453,-1.5564202334630863
1539732887345201,-3.692683299000464,-2.5940337224383256,-1.6784924086366573
1539732887361208,-3.570611123826893,-2.4719615472647547,-1.4953841458761872
1539732887377215,-2.655069810025225,-1.5564202334630863,-0.8850232700083325
1539732887393221,-1.1902037079423735,-0.7019150072480898,-0.15259021896690683
1539732887409228,-1.0681315327688026,-0.7019150072480898,0.213626306553806
1539732887425235,-1.5564202334630863,-1.2512397955290453,-0.213626306553806
1539732887441242,-2.105745021744042,-1.6174563210497581,-0.8850232700083325
1539732887457249,-1.5564202334630863,-1.3733119707026162,-1.0070954451819034
1539732887473256,-0.213626306553806,-1.2512397955290453,-0.15259021896690683
1539732887489263,0.9460593575952316,-1.1902037079423735,0.9460593575952316
1539732887505270,1.4953841458761872,-1.5564202334630863,1.0070954451819034
1539732887521277,0.7629510948347615,-2.04470893415737,-0.03051804379333589
1539732887537284,-0.7629510948347615,-2.288853284504512,-0.9460593575952316
1539732887553291,-1.3122758831159445,-2.105745021744042,-0.8239871824216607
1539732887569298,-0.5798428320745188,-1.6174563210497581,-0.03051804379333589
1539732887585305,0.213626306553806,-1.2512397955290453,0.7019150072480898
1539732887601312,-0.03051804379333589,-1.1291676203554744,0.8850232700083325
1539732887617309,-0.03051804379333589,-1.0681315327688026,0.5798428320745188
1539732887633316,-1.2512397955290453,-0.6408789196611906,-0.5188067444876197
1539732887649323,-1.6784924086366573,0.8239871824216607,-2.4719615472647547
1539732887665330,0.3967345693140487,2.5940337224383256,-4.242008087281647
1539732887681337,3.936827649347606,3.997863736934505,-5.645838101777599
1539732887697344,7.2938124666209205,4.730296787975931,-7.537956816968062
1539732887713351,8.880750743877343,4.486152437628789,-10.101472495613052
1539732887729358,9.85732814526591,1.8616006713969,-12.481879911497572
1539732887745365,6.805523765926637,-3.814755474174035,-12.726024261844714
1539732887761372,3.3264667734797513,-10.89494163424115,-10.040436408026153
1539732887777379,1.1291676203554744,-16.754406042572555,-5.096513313496644
1539732887793386,-0.213626306553806,-19.623102159151586,0.7019150072480898
1539732887809393,-0.8850232700083325,-19.01274128328373,5.523765926604028
1539732887825400,-2.9602502479590385,-16.32715342946517,8.33142595559616
1539732887841406,-6.439307240405924,-12.603952086671143,8.880750743877343
1539732887857413,-10.162508583199724,-9.002822919050914,8.33142595559616
1539732887873420,-12.23773556115043,-5.95101853971164,7.537956816968062
1539732887889427,-12.542915999084471,-3.692683299000464,7.17174029144735
1539732887905434,-10.833905546654478,-1.5564202334630863,6.9886320286868795
1539732887921441,-7.11070420386045,0.8850232700083325,6.256198977645454
1539732887937469,-4.547188525215461,3.0823224231326094,4.486152437628789
1539732887953476,-2.8381780727854675,5.279621576256886,2.532997634851654
1539732887969483,0.8239871824216607,6.805523765926637,1.2512397955290453
1539732887985490,4.547188525215461,6.561379415579495,0.5798428320745188
1539732888001497,8.758678568703772,5.462729839017356,0.03051804379333589
1539732888017504,10.467689021133765,4.242008087281647,-0.5798428320745188
1539732888033511,12.359807736324,3.814755474174035,-1.0681315327688026
1539732888049518,13.64156557564661,2.9602502479590385,-1.0681315327688026
1539732888065525,9.246967269398056,0.7629510948347615,-0.33569848172737693
1539732888081532,2.227817196917613,-1.739528496223329,0.5188067444876197
1539732888097539,-1.1291676203554744,-2.7771419851987957,1.3733119707026162
1539732888113546,-2.04470893415737,-1.6784924086366573,2.105745021744042
1539732888129552,-1.3122758831159445,1.0681315327688026,2.655069810025225
1539732888145559,1.4343480582895154,3.7537193865873633,2.8381780727854675
1539732888161566,3.4485389486533222,4.60822461280236,2.532997634851654
1539732888177573,5.401693751430457,3.3264667734797513,1.8005645838102282
1539732888193580,5.76791027695117,0.15259021896690683,0.8239871824216607
1539732888209587,2.9602502479590385,-2.655069810025225,0.33569848172737693
1539732888225594,1.8616006713969,-2.7161058976118966,0.3967345693140487
1539732888241601,2.04470893415737,-0.6408789196611906,0.8239871824216607
1539732888257599,3.692683299000464,1.4953841458761872,1.3733119707026162
1539732888273605,5.0354772259097444,1.8616006713969,1.2512397955290453
1539732888289612,3.4485389486533222,0.8850232700083325,0.09155413138023505
1539732888305619,0.5798428320745188,0.09155413138023505,-1.6174563210497581
1539732888321626,-0.8239871824216607,-0.15259021896690683,-2.7771419851987957
1539732888337633,-1.0070954451819034,-1.1291676203554744,-2.8381780727854675
1539732888353640,-1.8616006713969,-2.8992141603723667,-1.739528496223329
1539732888369647,-1.3733119707026162,-4.486152437628789,-0.5798428320745188
1539732888385654,-1.3733119707026162,-5.645838101777599,-0.7019150072480898
1539732888401661,-1.6174563210497581,-6.561379415579495,-1.983672846570471
1539732888417668,-2.5940337224383256,-6.683451590753066,-3.6316472114137923
1539732888433675,-3.4485389486533222,-5.95101853971164,-4.852368963149502
1539732888449682,-4.60822461280236,-5.95101853971164,-4.60822461280236
1539732888465689,-7.354848554207592,-7.476920729381163,-2.5940337224383256
1539732888481696,-8.697642481116873,-8.6366063935302,-0.09155413138023505
1539732888497703,-9.246967269398056,-7.049668116273779,1.1902037079423735
1539732888513710,-7.843137254901876,-2.4719615472647547,1.1902037079423735
1539732888529717,-3.1433585107195086,3.1433585107195086,0.213626306553806
1539732888545724,1.1291676203554744,7.17174029144735,-1.3733119707026162
1539732888561730,3.0212863355459376,7.965209430075447,-3.1433585107195086
1539732888577728,2.7771419851987957,5.889982452124741,-4.119935912108076
1539732888593735,-0.45777065690094787,2.3498893720911838,-3.7537193865873633
1539732888609742,-1.4953841458761872,-0.8239871824216607,-1.9226367589837992
1539732888625749,-0.15259021896690683,-2.4719615472647547,0.5798428320745188
1539732888641756,1.8005645838102282,-2.8381780727854675,2.4719615472647547
1539732888657763,2.532997634851654,-2.105745021744042,2.9602502479590385
1539732888673770,2.4719615472647547,-1.5564202334630863,2.7161058976118966
1539732888689777,-0.09155413138023505,-1.4953841458761872,2.532997634851654
1539732888705783,-2.8992141603723667,-1.4953841458761872,2.8381780727854675
1539732888721790,-2.5940337224383256,-1.4343480582895154,3.0212863355459376
1539732888737797,0.213626306553806,-1.2512397955290453,2.288853284504512
1539732888753804,5.462729839017356,-0.213626306553806,0.7019150072480898
1539732888769811,13.702601663233281,2.166781109330941,-0.5188067444876197
1539732888785818,13.64156557564661,3.3264667734797513,-1.0070954451819034
1539732888801825,9.246967269398056,1.9226367589837992,-1.1902037079423735
1539732888817832,4.547188525215461,-1.739528496223329,-0.6408789196611906
1539732888833839,1.6174563210497581,-5.889982452124741,0.5798428320745188
1539732888849846,0.5798428320745188,-8.880750743877343,2.288853284504512
1539732888865853,0.7019150072480898,-10.284580758373295,3.936827649347606
1539732888881860,1.0681315327688026,-9.85732814526591,4.547188525215461
1539732888897857,0.5188067444876197,-8.270389868009488,3.570611123826893
1539732888913864,-0.09155413138023505,-6.439307240405924,1.3733119707026162
1539732888929871,2.8381780727854675,-5.0354772259097444,-1.0681315327688026
1539732888945878,3.875791561760934,-4.180971999694748,-2.288853284504512
1539732888961885,1.3733119707026162,-4.730296787975931,-2.8992141603723667
1539732888977892,1.9226367589837992,-5.645838101777599,-3.1433585107195086
1539732888993899,2.04470893415737,-6.622415503166167,-3.3264667734797513
1539732889009906,1.9226367589837992,-6.8665598535133086,-3.2654306858930795
1539732889025913,1.6174563210497581,-5.889982452124741,-2.655069810025225
1539732889041920,2.3498893720911838,-4.058899824521177,-1.6174563210497581
1539732889057927,3.570611123826893,-1.9226367589837992,-0.8850232700083325
1539732889073934,3.2654306858930795,-0.5188067444876197,-0.45777065690094787
1539732889089941,3.2654306858930795,-0.45777065690094787,0.09155413138023505
1539732889105948,1.9226367589837992,-2.227817196917613,0.7019150072480898
1539732889121955,-0.7019150072480898,-4.242008087281647,1.4343480582895154
1539732889137961,-2.166781109330941,-4.791332875562603,1.9226367589837992
1539732889153968,-4.547188525215461,-3.3875028610666504,2.166781109330941
1539732889169975,-1.1902037079423735,-1.5564202334630863,2.227817196917613
1539732889185982,1.8005645838102282,-2.3498893720911838,2.288853284504512
1539732889201989,4.058899824521177,-5.76791027695117,1.5564202334630863
1539732889217987,10.711833371480907,-7.782101167315204,0.3967345693140487
1539732889233994,9.796292057679011,-6.134126802471883,0.2746623941404778
1539732889250001,3.997863736934505,-2.8992141603723667,-0.15259021896690683
1539732889266008,7.11070420386045,0.33569848172737693,-0.8850232700083325
1539732889282014,9.063859006637585,1.1902037079423735,-1.6174563210497581
1539732889298021,5.889982452124741,-0.3967345693140487,-2.410925459678083
1539732889314028,1.5564202334630863,-2.5940337224383256,-3.0823224231326094
1539732889330035,1.1291676203554744,-3.4485389486533222,-2.655069810025225
1539732889346042,2.410925459678083,-3.1433585107195086,-1.0070954451819034
1539732889362049,3.814755474174035,-2.7161058976118966,0.5188067444876197
1539732889378056,5.76791027695117,-2.655069810025225,0.8239871824216607
1539732889394063,4.974441138323073,-3.692683299000464,-0.09155413138023505
1539732889410070,1.6784924086366573,-4.974441138323073,-1.6174563210497581
1539732889426077,-0.15259021896690683,-5.523765926604028,-2.532997634851654
1539732889442084,-1.2512397955290453,-5.401693751430457,-1.9226367589837992
1539732889458091,-1.5564202334630863,-4.974441138323073,-0.3967345693140487
1539732889474098,-0.7629510948347615,-4.119935912108076,1.0681315327688026
1539732889490105,0.213626306553806,-3.3875028610666504,1.0681315327688026
1539732889506112,0.2746623941404778,-3.0823224231326094,-0.09155413138023505
1539732889522119,-0.09155413138023505,-3.570611123826893,-1.4343480582895154
1539732889538147,-0.6408789196611906,-4.486152437628789,-1.983672846570471
1539732889554154,-1.0681315327688026,-5.3406576638437855,-1.4343480582895154
1539732889570160,0.03051804379333589,-5.889982452124741,-0.213626306553806
1539732889586167,0.33569848172737693,-6.256198977645454,0.45777065690094787
1539732889602174,1.1291676203554744,-6.744487678339738,0.09155413138023505
1539732889618181,0.5188067444876197,-7.2938124666209205,-0.8239871824216607
1539732889634188,-1.5564202334630863,-7.476920729381163,-1.9226367589837992
1539732889650195,-2.7161058976118966,-6.012054627298312,-2.8992141603723667
1539732889666202,-1.983672846570471,-3.1433585107195086,-3.4485389486533222
1539732889682209,-1.2512397955290453,-0.213626306553806,-3.2654306858930795
1539732889698216,-2.410925459678083,1.6784924086366573,-2.410925459678083
1539732889714223,-4.058899824521177,3.692683299000464,-1.0681315327688026
1539732889730230,-5.2185854886702145,6.744487678339738,0.8239871824216607
1539732889746237,-3.997863736934505,9.73525597009234,3.0212863355459376
1539732889762244,-1.9226367589837992,11.871519035629717,4.364080262455218
1539732889778251,-0.09155413138023505,13.397421225299468,3.936827649347606
1539732889794258,1.0681315327688026,14.557106889448278,2.105745021744042
1539732889810265,3.997863736934505,15.655756466010416,0.2746623941404778
1539732889826272,10.772869459067579,16.632333867398984,0.3967345693140487
1539732889842279,13.702601663233281,15.472648203250174,1.3122758831159445
1539732889858307,19.378957808804444,13.031204699778755,1.8616006713969
1539732889874313,25.17738612954895,10.772869459067579,1.9226367589837992
1539732889890320,26.886396581978943,8.880750743877343,1.3733119707026162
1539732889906327,27.98504615854108,6.927595941100208,0.8239871824216607
1539732889922334,27.679865720607268,3.7537193865873633,1.1902037079423735
1539732889938341,23.651483939879427,-0.7019150072480898,1.8005645838102282
1539732889954348,16.44922560463874,-4.669260700389032,2.3498893720911838
1539732889970355,8.880750743877343,-6.683451590753066,2.288853284504512
1539732889986362,3.7537193865873633,-6.317235065232353,1.3733119707026162
1539732890002369,0.5188067444876197,-4.547188525215461,0.2746623941404778
1539732890018376,-2.7161058976118966,-2.7771419851987957,-0.5188067444876197
1539732890034383,-4.180971999694748,-1.8616006713969,-0.5798428320745188
1539732890050390,-2.105745021744042,-1.9226367589837992,-0.09155413138023505
1539732890066397,-0.15259021896690683,-2.7161058976118966,0.33569848172737693
1539732890082404,0.5188067444876197,-3.6316472114137923,0.45777065690094787
1539732890098411,0.03051804379333589,-4.180971999694748,0.5188067444876197
1539732890114418,-0.3967345693140487,-4.303044174868319,1.0681315327688026
1539732890130425,-1.4343480582895154,-4.547188525215461,2.105745021744042
1539732890146432,-2.227817196917613,-4.42511635004189,3.0823224231326094
1539732890162438,-3.1433585107195086,-3.997863736934505,3.3875028610666504
1539732890178436,-3.1433585107195086,-3.0823224231326094,3.0823224231326094
1539732890194443,-3.0823224231326094,-1.8005645838102282,2.166781109330941
1539732890210450,-2.7161058976118966,-0.45777065690094787,0.7019150072480898
1539732890226457,-3.0823224231326094,0.33569848172737693,-0.6408789196611906
1539732890242464,-3.2043945983061803,0.5188067444876197,-1.3122758831159445
1539732890258471,-3.814755474174035,0.5188067444876197,-1.0070954451819034
1539732890274478,-3.936827649347606,0.8239871824216607,-0.33569848172737693
1539732890290485,-1.983672846570471,1.9226367589837992,-0.15259021896690683
1539732890306491,-0.33569848172737693,2.9602502479590385,-0.9460593575952316
1539732890322498,0.45777065690094787,3.7537193865873633,-2.5940337224383256
1539732890338505,1.983672846570471,3.936827649347606,-4.60822461280236
1539732890354512,3.7537193865873633,3.3264667734797513,-6.622415503166167
1539732890370519,5.279621576256886,1.4343480582895154,-7.782101167315204
1539732890386526,5.584802014190927,-1.739528496223329,-7.537956816968062
1539732890402533,5.523765926604028,-5.706874189364498,-6.012054627298312
1539732890418540,6.134126802471883,-9.491111619745197,-2.655069810025225
1539732890434547,-2.4719615472647547,-13.58052948805971,1.983672846570471
1539732890450554,-9.124895094224485,-15.838864728770886,6.378271152819025
1539732890466561,-10.284580758373295,-14.618142977035177,9.55214770733187
1539732890482568,-10.528725108720437,-10.711833371480907,11.688410772869474
1539732890498565,-9.85732814526591,-6.378271152819025,13.214312962538997
1539732890514572,-7.537956816968062,-3.5095750362402214,14.007782101167322
1539732890530579,-5.0354772259097444,-2.532997634851654,13.76363775082018
1539732890546586,2.227817196917613,-2.8992141603723667,12.787060349431613
1539732890562593,9.55214770733187,-3.814755474174035,11.688410772869474
1539732890578600,7.843137254901876,-4.852368963149502,10.284580758373295
1539732890594607,1.2512397955290453,-5.706874189364498,8.941786831464015
1539732890610614,-2.410925459678083,-6.439307240405924,8.148317692835917
1539732890626621,-3.936827649347606,-7.782101167315204,8.270389868009488
1539732890642628,-5.157549401083315,-8.819714656290444,8.819714656290444
1539732890658635,-4.180971999694748,-8.575570305943302,9.55214770733187
1539732890674642,-1.0681315327688026,-7.232776379034021,10.162508583199724
1539732890690649,1.4343480582895154,-5.462729839017356,9.73525597009234
1539732890706656,2.4719615472647547,-3.570611123826893,8.026245517662346
1539732890722663,3.5095750362402214,-2.288853284504512,5.889982452124741
1539732890738669,6.805523765926637,-2.655069810025225,4.42511635004189
1539732890754676,9.369039444571627,-4.730296787975931,3.997863736934505
1539732890770683,8.45349813076973,-7.965209430075447,4.486152437628789
1539732890786690,7.2938124666209205,-10.528725108720437,5.462729839017356
1539732890802697,6.622415503166167,-11.01701380941472,6.134126802471883
1539732890818695,7.049668116273779,-9.73525597009234,6.378271152819025
1539732890834702,9.430075532158298,-7.598992904554734,6.378271152819025
1539732890850709,11.505302510109004,-5.523765926604028,6.561379415579495
1539732890866716,12.176699473563758,-4.242008087281647,6.8665598535133086
1539732890882722,11.688410772869474,-4.364080262455218,7.354848554207592
1539732890898729,10.528725108720437,-6.012054627298312,7.721065079728305
1539732890914736,7.965209430075447,-8.392462043183059,7.904173342488775
1539732890930743,5.279621576256886,-10.467689021133765,7.721065079728305
1539732890946750,6.195162890058782,-11.261158159761862,7.537956816968062
1539732890962757,7.598992904554734,-11.261158159761862,7.4158846417944915
1539732890978764,7.965209430075447,-11.07804989700162,7.782101167315204
1539732890994771,6.439307240405924,-11.01701380941472,8.392462043183059
1539732891010778,3.0212863355459376,-10.772869459067579,9.002822919050914
1539732891026785,1.1902037079423735,-9.85732814526591,9.55214770733187
1539732891042792,2.3498893720911838,-7.843137254901876,10.162508583199724
1539732891058799,3.6316472114137923,-5.523765926604028,10.040436408026153
1539732891074806,3.936827649347606,-3.2043945983061803,8.6366063935302
1539732891090813,3.997863736934505,-0.8850232700083325,6.256198977645454
1539732891106820,3.7537193865873633,0.7629510948347615,4.119935912108076
1539732891122827,8.209353780422589,2.5940337224383256,2.9602502479590385
1539732891138855,10.345616845960194,3.936827649347606,2.7771419851987957
1539732891154862,13.76363775082018,4.242008087281647,3.3875028610666504
1539732891170868,21.57625696192872,4.730296787975931,3.570611123826893
1539732891186875,25.36049439230942,5.706874189364498,2.7771419851987957
1539732891202882,21.39314869916825,6.683451590753066,1.0681315327688026
1539732891218889,11.871519035629717,5.889982452124741,-0.9460593575952316
1539732891234896,1.0681315327688026,2.7161058976118966,-2.105745021744042
1539732891250903,-7.965209430075447,-1.6174563210497581,-1.4953841458761872
1539732891266910,-11.322194247348762,-4.60822461280236,0.2746623941404778
1539732891282917,-11.139085984588291,-3.814755474174035,1.6784924086366573
1539732891298924,-4.364080262455218,0.7019150072480898,2.4719615472647547
1539732891314931,9.67421988250544,5.95101853971164,1.8005645838102282
1539732891330938,16.571297779812312,8.270389868009488,-0.3967345693140487
1539732891346945,8.819714656290444,5.523765926604028,-1.983672846570471
1539732891362952,-1.8616006713969,0.03051804379333589,-2.410925459678083
1539732891378959,-8.697642481116873,-4.42511635004189,-2.655069810025225
1539732891394966,-9.491111619745197,-5.706874189364498,-3.692683299000464
1539732891410973,-7.782101167315204,-4.60822461280236,-5.828946364538069
1539732891426980,-6.378271152819025,-3.0212863355459376,-8.026245517662346
1539732891442987,-8.575570305943302,-2.410925459678083,-9.063859006637585
1539732891458984,-11.749446860456146,-2.4719615472647547,-8.33142595559616
1539732891474991,-9.613183794918768,-1.6174563210497581,-6.378271152819025
1539732891490998,-3.3264667734797513,0.45777065690094787,-4.791332875562603
1539732891507005,-0.8239871824216607,1.983672846570471,-4.180971999694748
1539732891523012,-0.9460593575952316,2.227817196917613,-4.058899824521177
1539732891539019,-2.8381780727854675,1.5564202334630863,-3.692683299000464
1539732891555026,-5.0354772259097444,0.45777065690094787,-3.936827649347606
1539732891571033,-6.622415503166167,0.03051804379333589,-4.730296787975931
1539732891587040,-8.392462043183059,0.2746623941404778,-5.279621576256886
1539732891603047,-9.491111619745197,0.5188067444876197,-4.9134050507361735
1539732891619053,-10.284580758373295,0.09155413138023505,-4.058899824521177
1539732891635060,-10.406652933546866,-0.5188067444876197,-2.7771419851987957
1539732891651067,-11.749446860456146,-0.5188067444876197,-1.0681315327688026
1539732891667074,-12.359807736324,1.1902037079423735,0.45777065690094787
1539732891683081,-8.148317692835917,4.42511635004189,0.3967345693140487
1539732891699088,0.8239871824216607,7.782101167315204,-1.0681315327688026
1539732891715095,4.547188525215461,9.796292057679011,-2.8992141603723667
1539732891731102,3.6316472114137923,9.185931181811156,-4.303044174868319
1539732891747109,0.2746623941404778,6.073090714885211,-5.0354772259097444
1539732891763116,-4.119935912108076,1.983672846570471,-5.096513313496644
1539732891779113,-6.439307240405924,-0.5798428320745188,-3.875791561760934
1539732891795120,-5.401693751430457,0.15259021896690683,-1.4343480582895154
1539732891811127,-1.8616006713969,3.4485389486533222,1.0070954451819034
1539732891827134,2.410925459678083,6.8665598535133086,1.983672846570471
1539732891843141,8.270389868009488,8.575570305943302,0.8239871824216607
1539732891859148,16.632333867398984,9.124895094224485,-0.9460593575952316
1539732891875155,16.632333867398984,8.209353780422589,-2.04470893415737
1539732891891162,9.063859006637585,6.012054627298312,-2.7771419851987957
1539732891907169,3.570611123826893,3.3264667734797513,-3.0823224231326094
1539732891923176,-0.5188067444876197,1.3733119707026162,-2.7771419851987957
1539732891939183,-1.6174563210497581,1.3122758831159445,-2.04470893415737
1539732891955190,0.7019150072480898,3.0823224231326094,-1.1291676203554744
1539732891971197,2.410925459678083,4.669260700389032,-0.2746623941404778
1539732891987204,2.227817196917613,5.157549401083315,0.33569848172737693
1539732892003211,1.6784924086366573,4.730296787975931,0.8850232700083325
1539732892019218,1.8616006713969,3.936827649347606,1.2512397955290453
1539732892035225,1.4343480582895154,3.4485389486533222,1.3122758831159445
1539732892051231,1.739528496223329,3.814755474174035,1.1902037079423735
1539732892067238,2.8381780727854675,4.9134050507361735,0.8850232700083325
1539732892083245,4.42511635004189,5.584802014190927,0.3967345693140487
1539732892099243,4.9134050507361735,5.279621576256886,-0.2746623941404778
1539732892115250,4.730296787975931,4.242008087281647,-1.0681315327688026
1539732892131257,9.918364232852582,3.692683299000464,-1.6784924086366573
1539732892147264,19.378957808804444,4.547188525215461,-1.1291676203554744
1539732892163271,16.510261692225413,4.9134050507361735,-0.3967345693140487
1539732892179278,13.031204699778755,5.2185854886702145,-0.2746623941404778
1539732892195284,13.031204699778755,5.3406576638437855,-0.03051804379333589
1539732892211291,14.373998626688035,4.730296787975931,0.7629510948347615
1539732892227298,17.36476691844041,3.3264667734797513,1.3122758831159445
1539732892243305,23.041123064011572,3.6316472114137923,0.5798428320745188
1539732892259312,27.86297398336751,5.3406576638437855,-0.5798428320745188
1539732892275319,30.36545357442583,5.584802014190927,-1.4343480582895154
1539732892291326,32.562752727550105,4.42511635004189,-1.6784924086366573
1539732892307333,28.96162355992965,2.5940337224383256,-0.7629510948347615
1539732892323340,20.416571297779683,1.4343480582895154,0.7019150072480898
1539732892339347,20.416571297779683,1.9226367589837992,1.3733119707026162
1539732892355354,23.285267414358714,2.5940337224383256,1.5564202334630863
1539732892371361,24.322880903333953,1.8005645838102282,1.8616006713969
1539732892387368,23.83459220263967,-0.7019150072480898,2.410925459678083
1539732892403375,18.463416495002548,-3.1433585107195086,3.0823224231326094
1539732892419403,12.542915999084471,-3.997863736934505,3.4485389486533222
1539732892435410,10.467689021133765,-3.4485389486533222,3.875791561760934
1539732892451417,10.284580758373295,-2.5940337224383256,4.974441138323073
1539732892467424,9.55214770733187,-1.6784924086366573,7.11070420386045
1539732892483430,4.669260700389032,0.03051804379333589,9.73525597009234
1539732892499437,2.7771419851987957,3.814755474174035,11.383230334935433
1539732892515444,9.185931181811156,9.308003356984727,11.01701380941472
1539732892531451,16.388189517051842,14.312962539101136,9.308003356984727
1539732892547458,16.2050812542916,16.388189517051842,7.537956816968062
1539732892563465,14.007782101167322,15.594720378423744,6.500343327992596
1539732892579472,18.646524757763018,13.702601663233281,6.134126802471883
1539732892595479,29.755092698557974,12.481879911497572,6.073090714885211
1539732892611486,42.38956282902245,12.787060349431613,6.073090714885211
1539732892627493,57.038223849850965,14.251926451514464,5.279621576256886
1539732892643500,74.49454489967229,16.26611734187827,3.2043945983061803
1539732892659507,94.39230945296413,18.76859693293659,-0.45777065690094787
1539732892675514,114.71732661936358,21.14900434882111,-5.706874189364498
1539732892691521,128.9997711146716,23.102159151598244,-11.20012207217519
1539732892707528,127.53490501258875,23.102159151598244,-15.411612115663274
1539732892723535,109.46822308690025,20.05035477225897,-17.24269474326684
1539732892739563,82.18509193560703,14.068818188753994,-16.32715342946517
1539732892755570,54.535744258792874,5.889982452124741,-13.031204699778755
1539732892771577,32.80689707789725,-2.410925459678083,-9.124895094224485
1539732892787583,18.524452582589447,-7.721065079728305,-7.232776379034021
1539732892803590,13.214312962538997,-8.697642481116873,-8.270389868009488
1539732892819597,14.496070801861606,-6.927595941100208,-10.589761196307336
1539732892835604,17.914091706721592,-4.974441138323073,-12.176699473563758
1539732892851611,27.92401007095441,-1.1291676203554744,-11.01701380941472
1539732892867618,42.08438239108864,3.875791561760934,-7.354848554207592
1539732892883625,54.413672083619076,6.9886320286868795,-3.814755474174035
1539732892899632,55.69542992294191,6.805523765926637,-1.0070954451819034
1539732892915639,48.73731593804814,4.242008087281647,0.6408789196611906
1539732892931646,41.412985427633885,0.3967345693140487,0.15259021896690683
1539732892947653,32.01342793926892,-1.8616006713969,-1.1291676203554744
1539732892963660,26.764324406805372,-3.3264667734797513,-2.532997634851654
1539732892979667,28.412298771648693,-4.852368963149502,-3.2654306858930795
1539732892995674,29.816128786144645,-6.805523765926637,-2.7161058976118966
1539732893011681,28.229190508888223,-8.575570305943302,-1.3122758831159445
1539732893027688,23.468375677118956,-9.491111619745197,0.15259021896690683
1539732893043695,15.411612115663274,-9.67421988250544,1.4953841458761872
1539732893059692,6.683451590753066,-9.55214770733187,2.7771419851987957
1539732893075699,1.8005645838102282,-9.124895094224485,4.242008087281647
1539732893091706,-5.2185854886702145,-9.979400320439481,7.17174029144735
1539732893107713,-7.843137254901876,-10.589761196307336,9.73525597009234
1539732893123720,-9.85732814526591,-10.528725108720437,10.772869459067579
1539732893139727,-9.67421988250544,-9.67421988250544,9.85732814526591
1539732893155734,-7.660028992141633,-8.270389868009488,7.965209430075447
1539732893171741,-5.096513313496644,-6.9886320286868795,6.9886320286868795
1539732893187748,-0.15259021896690683,-6.805523765926637,7.11070420386045
1539732893203755,-0.7629510948347615,-7.2938124666209205,7.660028992141633
1539732893219761,-3.4485389486533222,-7.2938124666209205,7.598992904554734
1539732893235768,-3.692683299000464,-6.195162890058782,7.4158846417944915
1539732893251775,-0.45777065690094787,-4.364080262455218,7.4158846417944915
1539732893267782,2.7771419851987957,-2.8992141603723667,7.904173342488775
1539732893283789,5.0354772259097444,-2.288853284504512,8.6366063935302
1539732893299796,5.462729839017356,-2.288853284504512,8.697642481116873
1539732893315803,4.364080262455218,-2.105745021744042,7.843137254901876
1539732893331810,4.180971999694748,-1.5564202334630863,6.561379415579495
1539732893347817,4.119935912108076,-1.0681315327688026,5.401693751430457
1539732893363824,4.364080262455218,-0.7629510948347615,4.669260700389032
1539732893379821,5.2185854886702145,-0.5798428320745188,4.547188525215461
1539732893395828,4.791332875562603,-0.8850232700083325,4.486152437628789
1539732893411835,3.570611123826893,-1.5564202334630863,4.486152437628789
1539732893427842,2.9602502479590385,-2.04470893415737,4.42511635004189
1539732893443849,3.2043945983061803,-2.105745021744042,3.875791561760934
1539732893459856,3.0212863355459376,-1.5564202334630863,2.9602502479590385
1539732893475863,2.8381780727854675,-1.2512397955290453,2.04470893415737
1539732893491870,2.288853284504512,-1.1291676203554744,1.739528496223329
1539732893507877,2.655069810025225,-1.3122758831159445,2.227817196917613
1539732893523884,2.7161058976118966,-1.6174563210497581,2.7771419851987957
1539732893539891,2.532997634851654,-1.739528496223329,2.7771419851987957
1539732893555898,2.9602502479590385,-1.3122758831159445,2.166781109330941
1539732893571905,3.4485389486533222,-1.0681315327688026,1.5564202334630863
1539732893587912,3.2654306858930795,-1.5564202334630863,1.2512397955290453
1539732893603919,3.0212863355459376,-2.105745021744042,0.7629510948347615
1539732893619926,2.7161058976118966,-2.227817196917613,0.15259021896690683
1539732893635933,2.4719615472647547,-1.8616006713969,-0.45777065690094787
1539732893651939,2.410925459678083,-1.6174563210497581,-0.5798428320745188
1539732893667946,2.227817196917613,-1.739528496223329,-0.5188067444876197
1539732893683953,1.9226367589837992,-2.04470893415737,-0.45777065690094787
1539732893699951,2.04470893415737,-2.105745021744042,-0.5798428320745188
1539732893715958,2.5940337224383256,-1.739528496223329,-0.8850232700083325
1539732893731965,2.7771419851987957,-1.6784924086366573,-1.3122758831159445
1539732893747972,2.3498893720911838,-2.227817196917613,-1.4343480582895154
1539732893763979,2.532997634851654,-2.7771419851987957,-1.3733119707026162
1539732893779986,1.8616006713969,-2.8381780727854675,-1.1291676203554744
1539732893795992,1.6784924086366573,-2.4719615472647547,-1.1291676203554744
1539732893811999,1.9226367589837992,-1.739528496223329,-1.4343480582895154
1539732893828006,2.4719615472647547,-1.3733119707026162,-1.4343480582895154
1539732893844013,2.8381780727854675,-1.8005645838102282,-1.1291676203554744
1539732893860020,3.4485389486533222,-2.166781109330941,-1.0681315327688026
1539732893876027,0.6408789196611906,-2.5940337224383256,-1.0681315327688026
1539732893892034,1.0681315327688026,-2.227817196917613,-1.6174563210497581
1539732893908041,1.0070954451819034,-1.8616006713969,-1.6174563210497581
1539732893924048,1.1902037079423735,-1.9226367589837992,-0.5798428320745188
1539732893940055,1.0070954451819034,-2.7771419851987957,0.8850232700083325
1539732893956062,0.213626306553806,-3.3264667734797513,1.3122758831159445
1539732893972069,0.15259021896690683,-2.7161058976118966,0.45777065690094787
1539732893988076,0.5798428320745188,-1.6784924086366573,-0.45777065690094787
1539732894004083,-0.09155413138023505,-1.0681315327688026,-0.5188067444876197
1539732894020111,-1.3122758831159445,-1.1902037079423735,0.213626306553806
1539732894036118,-1.6784924086366573,-1.5564202334630863,1.3733119707026162
1539732894052125,-1.3733119707026162,-1.6174563210497581,1.739528496223329
1539732894068132,-0.33569848172737693,-0.8850232700083325,1.3122758831159445
1539732894084138,1.2512397955290453,0.3967345693140487,0.15259021896690683
1539732894100145,3.1433585107195086,1.3122758831159445,-1.2512397955290453
1539732894116152,5.76791027695117,1.739528496223329,-1.8616006713969
1539732894132159,8.575570305943302,1.8005645838102282,-1.3733119707026162
1539732894148166,7.476920729381163,1.3733119707026162,-0.15259021896690683
1539732894164173,4.9134050507361735,0.5188067444876197,0.6408789196611906
1539732894180180,4.364080262455218,-0.15259021896690683,0.5798428320745188
1539732894196187,3.875791561760934,-0.5798428320745188,-0.213626306553806
1539732894212194,3.2654306858930795,-0.8850232700083325,-1.2512397955290453
1539732894228201,3.4485389486533222,-0.7629510948347615,-2.105745021744042
1539732894244208,4.058899824521177,-0.7629510948347615,-2.288853284504512
1539732894260215,4.180971999694748,-1.0070954451819034,-1.6174563210497581
1539732894276222,3.1433585107195086,-1.3122758831159445,-0.45777065690094787
1539732894292229,2.3498893720911838,-1.739528496223329,0.7019150072480898
1539732894308236,2.227817196917613,-1.8005645838102282,1.4953841458761872
1539732894324243,2.655069810025225,-1.739528496223329,1.6174563210497581
