Timestamp (microseconds),Accel X (g),Accel Y (g),Accel Z (g)
1539131495317962,0.07513542381933291,0.05816739147020655,0.9800564583810178
1539131495333958,0.0852674143587393,0.07928587777523433,0.9759060044251164
1539131495349954,0.07904173342488718,0.08880750743877286,0.970046540016785
1539131495365950,0.06695658808270366,0.09417868314640998,0.9745632104982072
1539131495381946,0.06121919584954583,0.09100480659189714,0.9805447470817121
1539131495397942,0.05230792706187515,0.08856336308842572,0.9704127565423057
1539131495413938,0.04461738002594018,0.08392462043183002,0.9497825589379723
1539131495429934,0.04119935912108019,0.06829938200961294,0.9352559700923173
1539131495445930,0.04217593652246876,0.049256122682535874,0.9431906614785994
1539131495461926,0.04888990615701516,0.044129091325245895,0.9585717555504694
1539131495477922,0.04486152437628732,0.043030441748683756,0.9793240253299764
1539131495493918,0.06781109330891866,0.07721065079728362,0.9638208590829329
1539131495509914,0.08343633173113574,0.10174715800717138,0.9301289387350273
1539131495525910,0.08380254825665645,0.1024795910582128,0.9235370412756545
1539131495541906,0.08746471351186358,0.09088273441672357,0.9380636301213094
1539131495557902,0.08831921873807858,0.07953002212558147,0.9436789501792937
1539131495573898,0.09137102311741785,0.07379262989242363,0.9425803006027316
1539131495589894,0.08416876478217716,0.07830930037384576,0.9451438162813766
1539131495605890,0.08172732127870574,0.07916380560006075,0.9630884260318915
1539131495621886,0.07611200122072148,0.08197146562905289,0.9662623025864043
1539131495637878,0.07452506294346506,0.08917372396429357,0.9584496833752958
1539131495653874,0.07367055771725006,0.09771877622644354,0.9481956206607158
1539131495669870,0.06903181506065437,0.10016021972991496,0.9452658884565501
1539131495685866,0.06659037155718295,0.1033340962844278,0.946730754558633
1539131495701862,0.06317235065232296,0.10052643625543567,0.9566186007476922
1539131495717858,0.07000839246204293,0.09527733272297212,0.9597924773022051
1539131495733854,0.07122911421377864,0.09063859006637642,0.9516136415655758
1539131495749850,0.06878767071030722,0.10174715800717138,0.9466086823834594
1539131495765846,0.07696650644693648,0.10748455024032921,0.9495384145876251
1539131495781842,0.08050659952697004,0.10663004501411422,0.9555199511711301
1539131495797838,0.07928587777523433,0.11163500419623062,0.9578393224994279
1539131495813834,0.08368047608148288,0.12152285038528987,0.9599145494773786
1539131495829830,0.0831921873807886,0.130556191348135,0.9616235599298086
1539131495845826,0.08136110475318503,0.12872510872053144,0.952712291142138
1539131495861822,0.07660028992141577,0.12262149996185201,0.9479514763103687
1539131495877818,0.0776989394979779,0.10370031280994851,0.9556420233463037
1539131495893814,0.07415884641794435,0.08941786831464071,0.9505149919890137
1539131495909810,0.0659800106813151,0.09027237354085571,0.9455100328068973
1539131495925806,0.06781109330891866,0.09308003356984784,0.9456321049820708
1539131495941802,0.06390478370336439,0.10089265278095638,0.9486839093614101
1539131495957794,0.06451514457923224,0.10028229190508853,0.950148775463493
1539131495973790,0.0709849698634315,0.10064850843060924,0.9529564354924851
1539131495989786,0.07025253681239008,0.1033340962844278,0.9485618371862365
1539131496005782,0.07354848554207649,0.1062638284885935,0.9533226520180058
1539131496021778,0.0785534447241929,0.11517509727626418,0.9497825589379723
1539131496037774,0.08661020828564858,0.12372014953841415,0.9469748989089801
1539131496053770,0.08905165178912,0.1193255512321656,0.948439765011063
1539131496069766,0.08563363088426001,0.11102464332036277,0.9532005798428322
1539131496085762,0.07879758907454004,0.10772869459067635,0.9524681467917908
1539131496101758,0.0739147020675972,0.11334401464866062,0.9489280537117573
1539131496117754,0.06939803158617508,0.11773861295490917,0.9507591363393608
1539131496133750,0.06793316548409223,0.10516517891203137,0.9547875181200887
1539131496149746,0.06390478370336439,0.08014038300144932,0.9522240024414437
1539131496165742,0.07122911421377864,0.046570534828717314,0.9438010223544673
1539131496181738,0.07342641336690292,0.027405203326466676,0.9442893110551616
1539131496197734,0.07757686732280433,0.032288090333409514,0.9453879606317237
1539131496213729,0.07708857862211005,0.05242999923704872,0.9497825589379723
1539131496229725,0.07904173342488718,0.07220569161516721,0.9539330128938737
1539131496245721,0.08416876478217716,0.07025253681239008,0.9626001373311972
1539131496261717,0.08221560997940003,0.0567025253681237,0.973464560921645
1539131496277435,0.08197146562905289,0.05035477225909801,0.9761501487754636
1539131496293429,0.08087281605249075,0.052918287937743,0.9718776226443886
1539131496309424,0.08636606393530144,0.06195162890058725,0.96748302433814
1539131496325419,0.08453498130769788,0.07330434119172935,0.970046540016785
1539131496341413,0.08490119783321859,0.07403677424277078,0.9782253757534143
1539131496357408,0.08258182650492074,0.0642710002288851,0.9843289845120928
1539131496373402,0.08490119783321859,0.0844129091325243,0.9680933852140079
1539131496389397,0.07733272297245719,0.0802624551766229,0.9605249103532465
1539131496405391,0.07318226901655578,0.059754329747462975,0.9579613946746015
1539131496421386,0.07379262989242363,0.044251163500419466,0.9522240024414437
1539131496437380,0.07306019684138221,0.028259708552681673,0.9496604867627987
1539131496453375,0.0701304646372165,0.006530861371786045,0.9560082398718244
1539131496469370,0.07428091859311792,-0.0018921187151903496,0.9540550850690472
1539131496485364,0.07928587777523433,0.010803387502861028,0.9400167849240866
1539131496501359,0.08490119783321859,0.01995880064087885,0.9344014648661023
1539131496517353,0.08709849698634287,0.027283131151293105,0.9378194857709623
1539131496533348,0.08392462043183002,0.028137636377508102,0.9481956206607158
1539131496549342,0.08722056916151644,0.021789883268482413,0.9578393224994279
1539131496565337,0.08551155870908644,0.019104295414663852,0.9572289616235601
1539131496581331,0.09112687876707071,0.028625925078202386,0.9503929198138401
1539131496597046,0.08758678568703715,0.03668268863965807,0.949294270237278
1539131496613039,0.08258182650492074,0.033630884260318794,0.9564965285725187
1539131496629033,0.08294804303044145,0.02923628595407024,0.9647974364843215
1539131496645026,0.08258182650492074,0.028870069428549527,0.9669947356374458
1539131496661020,0.07904173342488718,0.023010605020218122,0.9643091477836272
1539131496677013,0.08221560997940003,0.017151140611886717,0.9628442816815443
1539131496693007,0.08050659952697004,0.013000686655985305,0.9596704051270315
1539131496709001,0.07953002212558147,0.012756542305638163,0.9626001373311972
1539131496724994,0.07830930037384576,0.01886015106431671,0.9619897764553293
1539131496740988,0.07721065079728362,0.025085831998168828,0.9638208590829329
1539131496756981,0.07879758907454004,0.020447089341573133,0.9604028381780729
1539131496772975,0.07757686732280433,0.009094377050431035,0.9582055390249486
1539131496788969,0.07891966124971361,5.493247882810692E-4,0.9580834668497751
1539131496804962,0.0814831769283586,-0.002746623941405346,0.9651636530098422
1539131496820956,0.08538948653391287,0.002990768291752488,0.9678492408636608
1539131496836949,0.08258182650492074,0.004333562218661768,0.9701686121919586
1539131496852943,0.08331425955596217,1.831082627603564E-4,0.9667505912870986
1539131496868937,0.08624399176012787,6.713969634546402E-4,0.9577172503242544
1539131496884930,0.08538948653391287,0.002868696116578917,0.9555199511711301
1539131496900924,0.08331425955596217,0.012878614480811734,0.9553978789959565
1539131496916717,0.09124895094224428,0.019470511940184565,0.9499046311131458
1539131496932710,0.09600976577401354,0.0018921187151903496,0.9582055390249486
1539131496948702,0.11224536507209848,-0.023254749370565264,0.9534447241931794
1539131496964695,0.11346608682383419,-0.040222781719691625,0.9459983215075916
1539131496980688,0.1004043640802621,-0.03973449301899734,0.9541771572442208
1539131496996680,0.09698634317540211,-0.030823224231326662,0.9608911268787672
1539131497012673,0.08514534218356573,-0.01617456321049815,0.9601586938277258
1539131497028666,0.06903181506065437,-0.006286717021438903,0.9585717555504694
1539131497044658,0.06463721675440581,-0.0018921187151903496,0.9615014877546351
1539131497060651,0.05902189669642155,-0.0012817578393224949,0.9652857251850158
1539131497076644,0.06475928892957938,-0.01239032578011745,0.9662623025864043
1539131497092636,0.06622415503166224,-0.028503852903028815,0.9573510337987337
1539131497108629,0.06524757763027367,-0.03350881208514522,0.9483176928358894
1539131497124621,0.06866559853513365,-0.02655069810025168,0.941603723201343
1539131497140614,0.07025253681239008,-0.004943923094529623,0.9435568780041201
1539131497156607,0.06329442282749653,0.024841687647821686,0.9615014877546351
1539131497172599,0.0651255054551001,0.07428091859311792,0.9597924773022051
1539131497188592,0.06878767071030722,0.09246967269397999,0.9508812085145344
1539131497204585,0.07537956816968006,0.06414892805371153,0.9497825589379723
1539131497220577,0.08453498130769788,0.04730296787975874,0.9516136415655758
1539131497236358,0.08783093003738429,0.038879987792782345,0.9665064469367515
1539131497252350,0.089906157015335,0.045349813076981604,0.97773708705272
1539131497268342,0.08075074387731718,0.06121919584954583,0.9761501487754636
1539131497284333,0.07611200122072148,0.07623407339589505,0.9727321278706036
1539131497300325,0.06842145418478651,0.08831921873807858,0.9668726634622722
1539131497316317,0.06707866025787723,0.08661020828564858,0.9473411154345008
1539131497332308,0.0634164950026701,0.08050659952697004,0.9466086823834594
1539131497348300,0.0680552376592658,0.07452506294346506,0.9505149919890137
1539131497364292,0.058289463645380124,0.053162432288090145,0.9575951781490808
1539131497380283,0.05743495841916513,0.027649347676813818,0.9665064469367515
1539131497396275,0.062195773250934394,0.02642862592507811,0.964919508659495
1539131497412267,0.06121919584954583,0.039002059967955915,0.9571068894483865
1539131497428259,0.06402685587853796,0.049500267032883016,0.9636987869077593
1539131497444250,0.061097123674372256,0.062317845426107965,0.9656519417105365
1539131497460242,0.06927595941100151,0.07049668116273722,0.9612573434042879
1539131497476234,0.07244983596551435,0.07306019684138221,0.9604028381780729
1539131497492225,0.07061875333791079,0.06878767071030722,0.9678492408636608
1539131497508217,0.07721065079728362,0.04840161745632088,0.9655298695353629
1539131497524209,0.07757686732280433,0.03070115205615309,0.9656519417105365
1539131497540200,0.07171740291447293,0.00970473792629889,0.9757839322499429
1539131497555969,0.0709849698634315,-0.008850232700083893,0.9694361791409172
1539131497571960,0.0689097428854808,-0.032532234683756656,0.9540550850690472
1539131497587951,0.06866559853513365,-0.0508430609597923,0.948439765011063
1539131497603942,0.06305027847714939,-0.050720988784618726,0.9499046311131458
1539131497619934,0.058289463645380124,-0.033875028610665936,0.9452658884565501
1539131497635925,0.058289463645380124,-0.00836194399938961,0.947585259784848
1539131497651916,0.05645838101777656,0.01995880064087885,0.9451438162813766
1539131497667907,0.054505226214999425,0.032532234683756656,0.9401388570992602
1539131497683899,0.05682459754329727,0.023620965896085977,0.9447775997558558
1539131497699890,0.05926604104676869,0.008606088349736751,0.9472190432593273
1539131497715881,0.06610208285648866,-0.0037232013427939137,0.9444113832303351
1539131497731872,0.06585793850614152,-7.934691386282111E-4,0.9513694972152287
1539131497747863,0.06744487678339794,0.01373311970702673,0.9733424887464714
1539131497763855,0.06622415503166224,0.02679484245059882,0.9771267261768521
1539131497779846,0.06329442282749653,0.01617456321049815,0.9634546425574122
1539131497795837,0.0672007324330508,-0.011902037079423167,0.9571068894483865
1539131497811828,0.06488136110475295,-0.03143358510719452,0.9578393224994279
1539131497827819,0.0634164950026701,-0.023254749370565264,0.9602807660028994
1539131497843811,0.06012054627298369,0.003356984817273201,0.9601586938277258
1539131497859802,0.054505226214999425,0.015930418860151008,0.9580834668497751
1539131497875579,0.057312886243991557,0.011169604028381741,0.9542992294193944
1539131497891570,0.05511558709086728,0.002746623941405346,0.9580834668497751
1539131497907560,0.055848020141908705,-0.0022583352407110624,0.9646753643091479
1539131497923550,0.05609216449225585,-0.0022583352407110624,0.9650415808346686
1539131497939540,0.05426108186465228,0.004333562218661768,0.96406500343328
1539131497955531,0.052918287937743,0.010437170977340315,0.9585717555504694
1539131497971521,0.05633630884260299,0.010681315327687457,0.9566186007476922
1539131497987511,0.057190814068817986,0.0042114900434881974,0.9622339208056765
1539131498003502,0.05902189669642155,6.103608758678547E-5,0.9644312199588008
1539131498019492,0.059876401922636546,0.002746623941405346,0.9636987869077593
1539131498035482,0.06182955672541368,0.019348439765010994,0.9591821164263372
1539131498051472,0.0659800106813151,0.025940337224383825,0.9574731059739072
1539131498067463,0.06524757763027367,0.019836728465705278,0.9569848172732129
1539131498083453,0.06768902113374509,0.008850232700083893,0.9568627450980394
1539131498099443,0.06524757763027367,0.004455634393835339,0.9556420233463037
1539131498115433,0.059632257572289404,0.002746623941405346,0.9547875181200887
1539131498131424,0.06121919584954583,0.0026245517662317752,0.9555199511711301
1539131498147414,0.062317845426107965,0.011535820553902454,0.9541771572442208
1539131498163404,0.06158541237506654,0.02130159456778813,0.9539330128938737
1539131498179394,0.06292820630197582,0.017883573662928143,0.9555199511711301
1539131498195190,0.06268406195162868,0.005554283970397478,0.9563744563973451
1539131498211179,0.05902189669642155,-0.0017700465400167786,0.9557640955214772
1539131498227169,0.059754329747462975,0.0022583352407110624,0.9597924773022051
1539131498243158,0.057190814068817986,0.010437170977340315,0.9591821164263372
1539131498259147,0.058289463645380124,0.01373311970702673,0.9580834668497751
1539131498275137,0.059876401922636546,0.008117799649042468,0.9547875181200887
1539131498291126,0.05914396887159512,0.005432211795223907,0.9549095902952622
1539131498307115,0.052918287937743,0.005310139620050336,0.9589379720759901
1539131498323104,0.053284504463263715,0.004943923094529623,0.9694361791409172
1539131498339094,0.05279621576256943,0.0037232013427939137,0.9745632104982072
1539131498355083,0.05499351491569371,0.0038452735179674846,0.9694361791409172
1539131498371072,0.05914396887159512,-3.0518043793392735E-4,0.96406500343328
1539131498387062,0.059754329747462975,-0.007873655298695326,0.9558861676966508
1539131498403051,0.06073090714885154,-0.01641870756084529,0.9547875181200887
1539131498419040,0.06305027847714939,-0.021179522392614558,0.9558861676966508
1539131498435030,0.06121919584954583,-0.013977264057373873,0.9602807660028994
1539131498451019,0.05743495841916513,-0.00848401617456318,0.9619897764553293
1539131498467008,0.060852979324025114,-0.009460593575951748,0.9641870756084536
1539131498482998,0.0613412680247194,-0.014465552758068156,0.9568627450980394
1539131498498987,0.05926604104676869,-0.018127718013275285,0.9546654459449151
1539131498514831,0.059876401922636546,-0.012146181429770309,0.954421301594568
1539131498530820,0.059632257572289404,-0.00457770656900891,0.955275806820783
1539131498546809,0.05743495841916513,-0.0017700465400167786,0.9611352712291144
1539131498562798,0.0613412680247194,-0.002990768291752488,0.9646753643091479
1539131498578786,0.060975051499198685,-0.002868696116578917,0.9654077973601893
1539131498594775,0.06207370107576082,0.0015259021896696368,0.9585717555504694
1539131498610764,0.05877775234607441,-6.713969634546402E-4,0.9611352712291144
1539131498626753,0.058289463645380124,-0.0014038300144960658,0.9591821164263372
1539131498642742,0.055970092317082276,-0.0023804074158846333,0.9618677042801558
1539131498658731,0.0567025253681237,-0.003112840466926059,0.9660181582360572
1539131498674719,0.05279621576256943,-0.0020141908903639205,0.9693141069657436
1539131498690708,0.05426108186465228,0.003356984817273201,0.9669947356374458
1539131498706697,0.057312886243991557,0.007263294422827471,0.9668726634622722
1539131498722686,0.053772793163958,0.008972304875257464,0.9634546425574122
1539131498738675,0.06024261844815726,0.009460593575951748,0.9536888685435265
1539131498754664,0.05877775234607441,0.0026245517662317752,0.9532005798428322
1539131498770652,0.05816739147020655,-0.004333562218661768,0.9588158999008165
1539131498786641,0.05658045319295013,-0.004333562218661768,0.9586938277256429
1539131498802630,0.0575570305943387,-0.0038452735179674846,0.9630884260318915
1539131498818619,0.055848020141908705,-0.00848401617456318,0.9685816739147022
1539131498834442,0.0575570305943387,-0.013366903181506018,0.9596704051270315
1539131498850430,0.05877775234607441,-0.016540779736018862,0.9553978789959565
1539131498866418,0.058411535820553695,-0.019226367589837423,0.9529564354924851
1539131498882405,0.05780117494468584,-0.015442130159456724,0.9508812085145344
1539131498898393,0.05658045319295013,-0.015197985809109582,0.9490501258869308
1539131498914381,0.05548180361638799,-0.01629663538567172,0.9532005798428322
1539131498930369,0.05487144274052014,-0.022400244144350268,0.9582055390249486
1539131498946357,0.05474937056534657,-0.023010605020218122,0.9568627450980394
1539131498962345,0.05658045319295013,-0.018127718013275285,0.9494163424124515
1539131498978333,0.05511558709086728,-0.013488975356679589,0.9508812085145344
1539131498994320,0.05487144274052014,-0.011779964904249596,0.9538109407187001
1539131499010308,0.054627298390172996,-0.015075913633936011,0.9572289616235601
1539131499026296,0.05535973144121442,-0.023743038071259548,0.9622339208056765
1539131499042284,0.05535973144121442,-0.023620965896085977,0.9613794155794615
1539131499058272,0.05352864881361086,-0.01629663538567172,0.9615014877546351
1539131499074260,0.05352864881361086,-0.013977264057373873,0.9629663538567179
1539131499090248,0.055848020141908705,-0.015808346684977437,0.9616235599298086
1539131499106236,0.05487144274052014,-0.021667811093308842,0.9611352712291144
1539131499122223,0.054627298390172996,-0.021789883268482413,0.9573510337987337
1539131499138211,0.055725947966735134,-0.019104295414663852,0.9572289616235601
1539131499154052,0.057312886243991557,-0.013244831006332447,0.9599145494773786
1539131499170040,0.055725947966735134,-0.008606088349736751,0.9602807660028994
1539131499186027,0.053772793163958,-0.005310139620050336,0.9601586938277258
1539131499202015,0.056946669718470844,-0.011657892729076025,0.953566796368353
1539131499218002,0.05633630884260299,-0.023743038071259548,0.9451438162813766
1539131499233989,0.05804531929503298,-0.028259708552681673,0.9442893110551616
1539131499249977,0.061097123674372256,-0.01483176928358887,0.9519798580910965
1539131499265964,0.06366063935301725,0.0060425726710917615,0.9621118486305029
1539131499281952,0.06756694895857152,0.014587624933241727,0.9588158999008165
1539131499297939,0.07330434119172935,-0.0012817578393224949,0.9618677042801558
1539131499313926,0.07598992904554791,-0.02264438849469741,0.9678492408636608
1539131499329914,0.07489127946898577,-0.023010605020218122,0.9677271686884872
1539131499345901,0.0672007324330508,-0.014587624933241727,0.9710231174181736
1539131499361889,0.059632257572289404,-0.005432211795223907,0.9685816739147022
1539131499377876,0.053040360112916574,-0.0026245517662317752,0.9689478904402229
1539131499393863,0.05120927748531301,0.002990768291752488,0.9673609521629665
1539131499409851,0.04962233920805659,0.01495384145876244,0.9591821164263372
1539131499425838,0.0499885557335773,0.018005645838101714,0.9572289616235601
1539131499441825,0.05255207141222229,0.012512397955291021,0.9579613946746015
1539131499457813,0.053284504463263715,-0.0017700465400167786,0.9586938277256429
1539131499473724,0.05560387579156156,-0.011779964904249596,0.9549095902952622
1539131499489711,0.05951018539711583,-0.013366903181506018,0.955275806820783
1539131499505698,0.059754329747462975,-0.010315098802166744,0.9599145494773786
1539131499521685,0.058411535820553695,-0.008117799649042468,0.96748302433814
1539131499537672,0.058533607995727266,-0.008117799649042468,0.9690699626153965
1539131499553659,0.062317845426107965,-0.009338521400778177,0.9701686121919586
1539131499569646,0.06414892805371153,-0.01226825360494388,0.9668726634622722
1539131499585632,0.06451514457923224,-0.008728160524910322,0.9660181582360572
1539131499601619,0.06353856717784367,-0.004699778744182481,0.9671168078126193
1539131499617606,0.06158541237506654,-0.0040894178683146265,0.9634546425574122
1539131499633593,0.05914396887159512,-0.00970473792629889,0.9608911268787672
1539131499649580,0.058289463645380124,-0.01751735713740743,0.9594262607766844
1539131499665567,0.05413900968947871,-0.015320057984283153,0.9632104982070651
1539131499681554,0.055970092317082276,-0.010437170977340315,0.9622339208056765
1539131499697541,0.053162432288090145,-0.0061646448462653325,0.9600366216525522
1539131499713528,0.05609216449225585,-0.007629510948348184,0.9596704051270315
1539131499729515,0.056946669718470844,-0.008239871824216038,0.9560082398718244
1539131499745502,0.05523765926604085,-0.009460593575951748,0.9563744563973451
1539131499761489,0.05767910276951227,-0.010193026626993174,0.9568627450980394
1539131499777475,0.05511558709086728,-0.011291676203555312,0.9568627450980394
1539131499793335,0.05511558709086728,-0.007507438773174613,0.9600366216525522
1539131499809321,0.057312886243991557,-0.005310139620050336,0.9599145494773786
1539131499825307,0.0567025253681237,-0.004455634393835339,0.9563744563973451
1539131499841294,0.06268406195162868,0.0015259021896696368,0.9580834668497751
1539131499857280,0.05999847409781012,0.005065995269703194,0.9578393224994279
1539131499873267,0.05999847409781012,0.005676356145571049,0.9585717555504694
1539131499889253,0.05743495841916513,0.007019150072480329,0.9600366216525522
1539131499905240,0.055848020141908705,0.0042114900434881974,0.9597924773022051
1539131499921226,0.05633630884260299,0.0020141908903639205,0.9568627450980394
1539131499937213,0.05767910276951227,1.831082627603564E-4,0.9563744563973451
1539131499953199,0.05413900968947871,0.0015259021896696368,0.9611352712291144
1539131499969185,0.05267414358739586,0.004943923094529623,0.9627222095063708
1539131499985172,0.05426108186465228,0.009582665751125319,0.9597924773022051
1539131500001158,0.05633630884260299,0.011657892729076025,0.9566186007476922
1539131500017145,0.053772793163958,0.012756542305638163,0.9593041886015108
1539131500033131,0.05413900968947871,0.017273212787060288,0.9623559929808501
1539131500049118,0.05511558709086728,0.019714656290531707,0.9605249103532465
1539131500065104,0.05487144274052014,0.01739528496223386,0.9600366216525522
1539131500081091,0.053772793163958,0.011291676203555312,0.9568627450980394
1539131500097077,0.053284504463263715,0.005310139620050336,0.9599145494773786
1539131500112945,0.05352864881361086,0.005188067444876765,0.9623559929808501
1539131500128931,0.05242999923704872,0.0026245517662317752,0.9595483329518579
1539131500144917,0.053162432288090145,0.0022583352407110624,0.9557640955214772
1539131500160903,0.051819638361180864,0.0040894178683146265,0.9577172503242544
1539131500176889,0.05133134966048658,0.005188067444876765,0.9639429312581065
1539131500192875,0.053162432288090145,0.0020141908903639205,0.9646753643091479
1539131500208861,0.05255207141222229,1.831082627603564E-4,0.9601586938277258
1539131500224847,0.052063782711528006,0.0037232013427939137,0.9551537346456094
1539131500240833,0.053406576638437286,0.012512397955291021,0.9556420233463037
1539131500256819,0.05279621576256943,0.01495384145876244,0.9601586938277258
1539131500272805,0.05242999923704872,0.010315098802166744,0.9601586938277258
1539131500288791,0.05169756618600729,0.001037613488975353,0.9553978789959565
1539131500304777,0.049134050507362304,-0.005065995269703194,0.9618677042801558
1539131500320763,0.050598916609445155,-0.0018921187151903496,0.9639429312581065
1539131500336749,0.05218585488670158,0.0042114900434881974,0.9613794155794615
1539131500352735,0.05267414358739586,0.009582665751125319,0.9540550850690472
1539131500368721,0.05145342183566015,0.006652933546959616,0.9546654459449151
1539131500384707,0.05242999923704872,0.0023804074158846333,0.9561303120469979
1539131500400693,0.05023270008392444,6.103608758678547E-5,0.9597924773022051
1539131500416679,0.04876783398184159,0.00323491264209963,0.9612573434042879
1539131500432586,0.05011062790875087,0.009460593575951748,0.9610131990539408
1539131500448572,0.048035400930800165,0.007995727473868897,0.9627222095063708
1539131500464557,0.0499885557335773,0.007995727473868897,0.9628442816815443
1539131500480543,0.05230792706187515,0.01361104753185316,0.9612573434042879
1539131500496528,0.050598916609445155,0.015320057984283153,0.9634546425574122
1539131500512514,0.05169756618600729,0.0042114900434881974,0.9634546425574122
1539131500528499,0.052063782711528006,-0.019104295414663852,0.9658960860608836
1539131500544485,0.05389486533913157,-0.034851606012054503,0.9650415808346686
1539131500560470,0.053162432288090145,-0.03595025558861664,0.9599145494773786
1539131500576456,0.05609216449225585,-0.02154573891813527,0.9574731059739072
1539131500592441,0.053040360112916574,-0.009216449225604606,0.9585717555504694
1539131500608427,0.04986648355840373,-0.003356984817273201,0.9555199511711301
1539131500624412,0.053284504463263715,-0.001159685664148924,0.9506370641641873
1539131500640398,0.04974441138323016,-0.003479056992446772,0.9508812085145344
1539131500656383,0.049134050507362304,-0.0040894178683146265,0.9605249103532465
1539131500672369,0.04888990615701516,-0.008972304875257464,0.9607690547035936
1539131500688354,0.0470588235294116,-0.015075913633936011,0.9610131990539408
1539131500704340,0.04742504005493231,-0.01104753185320817,0.96406500343328
1539131500720325,0.04852368963149445,-0.006775005722133187,0.9628442816815443
1539131500736311,0.0499885557335773,-0.0026245517662317752,0.9571068894483865
1539131500752166,0.04974441138323016,0.0023804074158846333,0.9555199511711301
1539131500768151,0.04986648355840373,0.018249790188448856,0.9560082398718244
1539131500784136,0.047913328755626594,0.0020141908903639205,0.9630884260318915
1539131500800121,0.053040360112916574,-0.02276646066987098,0.9584496833752958
1539131500816106,0.05535973144121442,-0.03790341039139378,0.9533226520180058
1539131500832091,0.053284504463263715,-0.02923628595407024,0.955275806820783
1539131500848076,0.05352864881361086,-0.013000686655985305,0.9539330128938737
1539131500864061,0.05743495841916513,-0.015808346684977437,0.9532005798428322
1539131500880046,0.05523765926604085,-0.033752956435492365,0.9633325703822386
1539131500896031,0.051941710536354435,-0.033875028610665936,0.9635767147325858
1539131500912016,0.049500267032883016,-0.02130159456778813,0.9577172503242544
1539131500928002,0.046814679179064456,-0.020569161516746703,0.9655298695353629
1539131500943987,0.045471885252155175,-0.02264438849469741,0.9680933852140079
1539131500959972,0.05035477225909801,-0.022278171969176697,0.9626001373311972
1539131500975957,0.05352864881361086,-0.02398718242160669,0.9612573434042879
1539131500991942,0.05108720531013944,-0.023010605020218122,0.964919508659495
1539131501007927,0.03973449301899734,-0.02008087281605242,0.9746852826733807
1539131501023912,0.039002059967955915,-0.024475471122300974,0.9644312199588008
1539131501039897,0.04754711223010588,-0.024719615472648115,0.9547875181200887
1539131501055882,0.051819638361180864,-0.02130159456778813,0.9601586938277258
1539131501071777,0.05511558709086728,-0.012512397955291021,0.9662623025864043
1539131501087762,0.055848020141908705,-0.0061646448462653325,0.9562523842221715
1539131501103747,0.05389486533913157,-0.013855191882200302,0.9512474250400551
1539131501119732,0.053162432288090145,-0.02532997634851597,0.9470969710841537
1539131501135717,0.052063782711528006,-0.03448538948653379,0.945021744106203
1539131501151702,0.04962233920805659,-0.04644846265354374,0.954421301594568
1539131501167687,0.04876783398184159,-0.04986648355840373,0.9622339208056765
1539131501183672,0.03411917296101308,-0.04876783398184159,0.9710231174181736
1539131501199657,0.03851377126726163,-0.044129091325245895,0.9771267261768521
1539131501215642,0.05682459754329727,-0.0365606164644845,0.9715114061188679
1539131501231627,0.06353856717784367,-0.036316472114137355,0.9579613946746015
1539131501247612,0.05474937056534657,-0.04864576180666802,0.9589379720759901
1539131501263597,0.062317845426107965,-0.06659037155718339,0.9557640955214772
1539131501279582,0.06353856717784367,-0.07196154726482051,0.9430685893034259
1539131501295567,0.06024261844815726,-0.06720073243305125,0.9431906614785994
1539131501311552,0.05645838101777656,-0.05780117494468584,0.9470969710841537
1539131501327537,0.053406576638437286,-0.04449530785076661,0.9521019302662701
1539131501343522,0.04339665827420447,-0.05230792706187515,0.9627222095063708
1539131501359507,0.04058899824521234,-0.08172732127870619,0.9677271686884872
1539131501375492,0.042664225223163044,-0.10589761196307323,0.9561303120469979
1539131501391388,0.051941710536354435,-0.11224536507209892,0.9486839093614101
1539131501407372,0.05511558709086728,-0.12274357213702602,0.9500267032883194
1539131501423357,0.05413900968947871,-0.11004806591897465,0.9557640955214772
1539131501439341,0.05487144274052014,-0.10370031280994896,0.9583276112001222
1539131501455326,0.06524757763027367,-0.11187914854657821,0.9557640955214772
1539131501471310,0.07159533073929936,-0.12530708781567101,0.9523460746166172
1539131501487295,0.07049668116273722,-0.12542915999084459,0.9539330128938737
1539131501503279,0.07074082551308436,-0.10797283894102394,0.9567406729228658
1539131501519264,0.0651255054551001,-0.08551155870908689,0.9607690547035936
1539131501535248,0.06036469062333083,-0.08661020828564903,0.9590600442511636
1539131501551233,0.05511558709086728,-0.10943770504310679,0.9585717555504694
1539131501567217,0.0575570305943387,-0.1283588921950103,0.9589379720759901
1539131501583202,0.05926604104676869,-0.1257953765163653,0.9503929198138401
1539131501599187,0.06292820630197582,-0.11944762340733961,0.9456321049820708
1539131501615171,0.06524757763027367,-0.12603952086671244,0.9412375066758223
1539131501631156,0.06353856717784367,-0.13995574883649953,0.940749217975128
1539131501647140,0.06524757763027367,-0.14740215152208735,0.9408712901503016
1539131501663125,0.06256198977645511,-0.1560692759594109,0.9425803006027316
1539131501679109,0.06012054627298369,-0.15655756466010518,0.9502708476386665
1539131501695094,0.062317845426107965,-0.15533684290836947,0.9508812085145344
1539131501711059,0.06305027847714939,-0.14227512016479738,0.9457541771572444
1539131501727044,0.07574578469520077,-0.12896925307087814,0.945021744106203
1539131501743028,0.07428091859311792,-0.11920347905699247,0.9522240024414437
1539131501759013,0.06378271152819082,-0.129579613946746,0.9594262607766844
1539131501774997,0.051819638361180864,-0.18011749446860437,0.9563744563973451
1539131501790982,0.05218585488670158,-0.2561684596017395,0.937331197070268
1539131501806966,0.0604867627985044,-0.3261158159761961,0.8996108949416346
1539131501822951,0.06707866025787723,-0.3634699015793088,0.8938735027084768
1539131501838935,0.07464713511863863,-0.348332951857786,0.9079118028534374
1539131501854920,0.08355840390630931,-0.27447928587777515,0.9215838864728774
1539131501870905,0.08868543526359929,-0.2057526512550547,0.931349660486763
1539131501886889,0.08282597085526788,-0.1854886701762415,0.937331197070268
1539131501902874,0.07244983596551435,-0.20172426947432687,0.9362325474937059
1539131501918858,0.06353856717784367,-0.22369726100556964,0.9301289387350273
1539131501934843,0.06268406195162868,-0.24310673685816742,0.9264667734798202
1539131501950827,0.0634164950026701,-0.24664682993820097,0.9242694743266959
1539131501966812,0.06207370107576082,-0.24139772640573742,0.9326924544136723
1539131501982796,0.06939803158617508,-0.22711528191042962,0.9342793926909287
1539131501998781,0.07061875333791079,-0.203677424277104,0.933058670939193
1539131502014765,0.06829938200961294,-0.18646524757763006,0.940749217975128
1539131502030670,0.06573586633096795,-0.1841458762493322,0.9391622796978716
1539131502046654,0.06207370107576082,-0.20099183642328544,0.9395284962233923
1539131502062638,0.059632257572289404,-0.21515220874341967,0.9368429083695737
1539131502078622,0.05780117494468584,-0.2162508583199818,0.9418478675516901
1539131502094606,0.053406576638437286,-0.20025940337224402,0.947585259784848
1539131502110590,0.05523765926604085,-0.162294956893263,0.9495384145876251
1539131502126574,0.05914396887159512,-0.12396429388876173,0.9439230945296408
1539131502142558,0.057068741893644415,-0.10565346761272609,0.9496604867627987
1539131502158542,0.058289463645380124,-0.10833905546654465,0.951857785915923
1539131502174526,0.05389486533913157,-0.11761654077973605,0.9568627450980394
1539131502190510,0.053162432288090145,-0.1333638513771267,0.955275806820783
1539131502206494,0.058411535820553695,-0.14605935759517807,0.9626001373311972
1539131502222478,0.05633630884260299,-0.14728007934691378,0.9638208590829329
1539131502238463,0.058411535820553695,-0.13385214007782098,0.9562523842221715
1539131502254447,0.06646829938200938,-0.10894941634241251,0.9490501258869308
1539131502270431,0.06756694895857152,-0.08892957961394687,0.9564965285725187
1539131502286415,0.06646829938200938,-0.08160524910353262,0.9553978789959565
1539131502302399,0.06329442282749653,-0.08172732127870619,0.9572289616235601
1539131502318383,0.06659037155718295,-0.06890974288548124,0.9622339208056765
1539131502334367,0.06549172198062081,-0.047913328755626594,0.9612573434042879
1539131502350280,0.06585793850614152,-0.03265430685893023,0.9551537346456094
1539131502366264,0.059876401922636546,-0.021057450217440987,0.9438010223544673
1539131502382248,0.0575570305943387,-0.02288853284504455,0.945021744106203
1539131502398231,0.057190814068817986,-0.03460746166170736,0.9451438162813766
1539131502414215,0.052918287937743,-0.04351873044937804,0.9497825589379723
1539131502430198,0.054383154039825854,-0.036438544289310926,0.9495384145876251
1539131502446182,0.057068741893644415,-0.017883573662928143,0.9505149919890137
1539131502462165,0.05804531929503298,-0.009460593575951748,0.9553978789959565
1539131502478149,0.05914396887159512,-0.00579842832074462,0.9638208590829329
1539131502494133,0.055725947966735134,-0.006530861371786045,0.9645532921339743
1539131502510116,0.05621423666742942,-0.005920500495918191,0.9644312199588008
1539131502526100,0.057068741893644415,-0.01495384145876244,0.9639429312581065
1539131502542083,0.059876401922636546,-0.027038986800945963,0.9613794155794615
1539131502558067,0.054383154039825854,-0.0327763790341038,0.9575951781490808
1539131502574051,0.057312886243991557,-0.022278171969176697,0.9542992294193944
1539131502590034,0.05267414358739586,-0.008239871824216038,0.9550316624704358
1539131502606018,0.055970092317082276,-0.004943923094529623,0.9575951781490808
1539131502622001,0.05426108186465228,-0.010437170977340315,0.9577172503242544
1539131502637985,0.053772793163958,-0.01751735713740743,0.9523460746166172
1539131502653968,0.054505226214999425,-0.02008087281605242,0.9534447241931794
1539131502669891,0.053406576638437286,-0.016662851911192433,0.9564965285725187
1539131502685875,0.05120927748531301,-0.009094377050431035,0.9588158999008165
1539131502701858,0.0470588235294116,-0.006530861371786045,0.9513694972152287
1539131502717842,0.04461738002594018,-0.008239871824216038,0.9462424658579387
1539131502733825,0.044251163500419466,-0.01373311970702673,0.9395284962233923
1539131502749809,0.0470588235294116,-0.017639429312581,0.9429465171282523
1539131502765792,0.04596017395284946,-0.027283131151293105,0.9497825589379723
1539131502781776,0.05133134966048658,-0.046570534828717314,0.953566796368353
1539131502797760,0.057312886243991557,-0.040344853894865196,0.9647974364843215
1539131502813743,0.05633630884260299,-0.024353398947127403,0.9733424887464714
1539131502829727,0.06329442282749653,-0.011902037079423167,0.9696803234912643
1539131502845710,0.062439917601281536,-0.011779964904249596,0.9698023956664379
1539131502861694,0.05877775234607441,-0.018127718013275285,0.9792019531548029
1539131502877678,0.05999847409781012,-0.014709697108415298,0.9807888914320593
1539131502893661,0.05804531929503298,-0.0061646448462653325,0.9641870756084536
1539131502909645,0.059632257572289404,-0.0037232013427939137,0.9517357137407494
1539131502925628,0.05621423666742942,-0.005310139620050336,0.9533226520180058
1539131502941612,0.05365072098878443,-0.010193026626993174,0.9496604867627987
1539131502957595,0.05426108186465228,-0.01886015106431671,0.9519798580910965
1539131502973579,0.0499885557335773,-0.02276646066987098,0.9589379720759901
1539131502989502,0.050476844434271584,-0.02667277027542525,0.9539330128938737
1539131503005485,0.04876783398184159,-0.03680476081483164,0.9469748989089801
1539131503021468,0.05108720531013944,-0.04876783398184159,0.9511253528648815
1539131503037451,0.05267414358739586,-0.054627298390172996,0.9610131990539408
1539131503053434,0.04962233920805659,-0.05120927748531301,0.9733424887464714
1539131503069417,0.048157473105973736,-0.04486152437628732,0.9677271686884872
1539131503085400,0.047913328755626594,-0.041687647821774476,0.9665064469367515
1539131503101383,0.048035400930800165,-0.038879987792782345,0.9711451895933472
1539131503117366,0.04486152437628732,-0.03045700770580595,0.9789578088044557
1539131503133350,0.04388494697489875,-0.025085831998168828,0.9744411383230336
1539131503149333,0.03924620431830306,-0.031189440756847375,0.9732204165712979
1539131503165316,0.03741512169069949,-0.036194399938963784,0.98286411841001
1539131503181299,0.03558403906309593,-0.03216601815823594,0.9788357366292821
1539131503197282,0.03424124513618665,-0.017273212787060288,0.97261005569543
1539131503213265,0.031189440756847375,-0.009338521400778177,0.9698023956664379
1539131503229248,0.030090791180285237,-0.010193026626993174,0.9599145494773786
1539131503245231,0.03692683299000521,-0.01861600671396957,0.9430685893034259
1539131503261214,0.04058899824521234,-0.02276646066987098,0.9314717326619366
1539131503277197,0.03839169909208806,-0.024841687647821686,0.9457541771572444
1539131503293181,0.035095750362401645,-0.025085831998168828,0.9633325703822386
1539131503309112,0.03045700770580595,-0.02777141985198739,0.9633325703822386
1539131503325095,0.03533989471274879,-0.030090791180285237,0.9600366216525522
1539131503341078,0.03924620431830306,-0.02777141985198739,0.9569848172732129
1539131503357061,0.04254215304798947,-0.028381780727855244,0.9563744563973451
1539131503373045,0.04351873044937804,-0.021179522392614558,0.9547875181200887
1539131503389028,0.04437323567559304,-0.010559243152513886,0.9634546425574122
1539131503405011,0.04388494697489875,-0.0061646448462653325,0.971755550469215
1539131503420994,0.044129091325245895,-0.018127718013275285,0.9860379949645228
1539131503436977,0.042664225223163044,-0.04571602960250232,1.025223163195239
1539131503452960,0.03851377126726163,-0.060975051499198685,1.0672159914549475
1539131503468943,0.058533607995727266,-0.04254215304798947,1.092118715190356
1539131503484926,0.06585793850614152,-0.007995727473868897,1.1029831387808038
1539131503500909,0.0642710002288851,0.035217822537575216,1.1105516136415652
1539131503516893,0.046570534828717314,0.047913328755626594,1.1542534523537045
1539131503532876,-0.08392462043183047,0.05169756618600729,1.322835126268406
1539131503548859,0.1847562371252005,0.025940337224383825,1.4980086976424811
1539131503564842,0.1214007782101163,-0.020447089341573133,1.6670786602578778
1539131503580825,0.1193255512321656,-0.03936827649347663,1.6894178683146412
1539131503596808,0.0957656214236664,-0.06585793850614197,1.6571908140688185
1539131503612791,0.09173723964293856,-0.08990615701533544,1.5661249713893337
1539131503628753,0.058411535820553695,-0.09405661097123685,1.4243991760128178
1539131503644736,0.021911955443655984,-0.12384222171358816,1.2804760814831768
1539131503660719,0.013977264057373873,-0.15008773937590592,1.1039597161821924
1539131503676703,-0.011413748378728883,-0.15277332722972448,0.939894712748913
1539131503692686,-0.04071107042038591,-0.14312962539101237,0.7772945754177156
1539131503708669,-0.094300755321584,-0.10028229190508897,0.6165255207141218
1539131503724652,-0.13495078965438312,-0.03973449301899734,0.46588845654993527
1539131503740635,-0.1940337224383919,-7.934691386282111E-4,0.3638361181048291
1539131503756618,-0.22186617837796607,0.05633630884260299,0.274235141527428
1539131503772601,-0.26190585183489734,0.09759670405126997,0.20672922865644328
1539131503788584,-0.29840543221179505,0.14703593499656709,0.1436179140917071
1539131503804567,-0.3403982604715039,0.18841840238040763,0.08001831082627575
1539131503820551,-0.36078431372549025,0.23077744716563675,0.01495384145876244
1539131503836534,-0.3684748607614252,0.26276035706111234,-0.04388494697489875
1539131503852517,-0.3631036850537881,0.3032883192187379,-0.11285572594796678
1539131503868500,-0.3425955596246282,0.34674601358052914,-0.16412603952086657
1539131503884483,-0.30096894789044004,0.36102845807583694,-0.17682154573891795
1539131503900466,-0.2453040360112917,0.38654154268711416,-0.21722743572137038
1539131503916449,-0.18915083543144906,0.3872739757381556,-0.2737468528267337
1539131503932432,-0.08184939345387976,0.42487220569161543,-0.3997253376058594
1539131503948364,0.06695658808270366,0.4769970244907302,-0.5369344625009536
1539131503964347,0.238956282902266,0.5674525062943463,-0.652170595864805
1539131503980329,0.48944838635843446,0.5318074311436636,-0.621164263370718
1539131503996312,0.8039063096055541,0.48688487067978947,-0.33002212558175037
1539131504012294,1.2915846494239718,0.456000610360876,0.4279240100709547
1539131504028277,-1.1344777599755855,-1.4372167544060424,4.0
1539131504044260,0.13470664530403642,0.9163347829404138,0.30182345311665504
1539131504060242,-0.4160830090791179,0.34723430228122343,0.19623102159151617
1539131504076225,-0.03070115205615309,-0.057312886243991557,0.5770962081330584
1539131504092208,0.16705577172503272,-0.45917448691538887,1.4910505836575876
1539131504108190,0.1386129549095907,-0.35028610666056315,1.6195925841153578
1539131504124173,0.1491111619745178,-0.12176699473563746,1.4196383611810486
1539131504140155,0.09918364232852639,0.11773861295490917,1.244831006332494
1539131504156138,0.16644541084916487,0.19378957808804476,1.150713359273671
1539131504172121,0.07794308384832505,0.2516517891203174,1.0110627908751049
1539131504188103,0.014465552758068156,0.30780498970016,0.8506599526970318
1539131504204086,-0.04095521477073305,0.31818112458991354,0.75385671778439
1539131504220069,-0.06744487678339839,0.3259937438010221,0.6829327840085453
1539131504236051,-0.1060196841382468,0.3082932784008543,0.6455786984054326
1539131504252034,-0.12274357213702602,0.2775310902571144,0.6399633783474483
1539131504267974,-0.12726024261844815,0.2494544899671931,0.6610818646524761
1539131504283957,-0.11590753032730605,0.21734950789654395,0.6994125276569774
1539131504299940,-0.10321202410925467,0.19073777370870548,0.742748149843595
1539131504315922,-0.0905165178912033,0.15387197680628706,0.7984130617227434
1539131504331905,-0.07525749599450693,0.13446250095368928,0.8412603952086668
1539131504347888,-0.06878767071030767,0.1214007782101163,0.8692149233234145
1539131504363870,-0.062317845426107965,0.09466697184710426,0.8963149462119482
1539131504379853,-0.06451514457923269,0.08136110475318503,0.9245136186770431
1539131504395836,-0.06390478370336483,0.06158541237506654,0.9405050736247809
1539131504411818,-0.06536964980544768,0.05474937056534657,0.9495384145876251
1539131504427801,-0.06646829938200982,0.053406576638437286,0.9440451667048144
1539131504443783,-0.07440299076829193,0.05511558709086728,0.9408712901503016
1539131504459766,-0.07769893949797835,0.053162432288090145,0.9355001144426645
1539131504475749,-0.08953994048981473,0.05865568017090084,0.9295185778591595
1539131504491731,-0.0879530022125583,0.0663462272068358,0.9269550621805145
1539131504507714,-0.08245975432974761,0.07891966124971361,0.9240253299763488
1539131504523697,-0.07611200122072193,0.09112687876707071,0.9308613717860688
1539131504539679,-0.06842145418478696,0.1071183337148085,0.9351338979171437
1539131504555662,-0.062317845426107965,0.11322194247348705,0.9494163424124515
1539131504571644,-0.05242999923704872,0.12982375829709358,0.9519798580910965
1539131504587585,-0.04437323567559304,0.14410620279240138,0.9517357137407494
1539131504603567,-0.03729304951552592,0.14837872892347637,0.9451438162813766
1539131504619549,-0.05035477225909801,0.1596093690394449,0.9429465171282523
1539131504635532,-0.033875028610665936,0.16302738994430488,0.9508812085145344
1539131504651514,-0.02935835812924381,0.17084000915541342,0.9600366216525522
1539131504667496,-0.020447089341573133,0.17779812314030696,0.9589379720759901
1539131504683478,-0.021057450217440987,0.17938506141756339,0.9461203936827651
1539131504699460,-0.02410925459678026,0.17608911268787697,0.9261005569542995
1539131504715442,-0.03326466773479808,0.16815442130159486,0.9257343404287788
1539131504731424,-0.021667811093308842,0.14874494544899708,0.954421301594568
1539131504747407,-0.00457770656900891,0.13702601663233427,0.9732204165712979
1539131504763389,0.003479056992446772,0.14129854276340925,0.9772487983520257
1539131504779371,0.004333562218661768,0.13849088273441712,0.9716334782940415
1539131504795353,0.0012817578393224949,0.13238727397573857,0.9533226520180058
1539131504811335,0.0021362630655374915,0.12603952086671288,0.9389181353475244
1539131504827317,0.008972304875257464,0.04840161745632088,1.0373083085374226
1539131504843299,0.00579842832074462,0.03314259555962451,1.133623254749371
1539131504859282,-0.011779964904249596,0.08355840390630931,1.1359426260776688
1539131504875264,-0.019226367589837423,0.16388189517051988,1.037186236362249
1539131504891246,-0.030823224231326662,0.19366750591287119,0.9352559700923173
1539131504907196,-0.015320057984283153,0.1763332570382241,0.8938735027084768
1539131504923178,-0.0012817578393224949,0.12799267566949002,0.9153582055390252
1539131504939160,0.007751583123521755,0.09027237354085571,0.9622339208056765
1539131504955142,0.010315098802166744,0.08953994048981428,0.9859159227893493
1539131504971124,-0.0042114900434881974,0.11944762340733917,0.9740749217975129
1539131504987106,-0.012634470130464592,0.15692378118562633,0.948439765011063
1539131505003089,-0.01751735713740743,0.17279316395819055,0.9297627222095066
1539131505019071,-0.01873807888914314,0.16595712214847058,0.9282978561074238
1539131505035053,-0.012146181429770309,0.15631342030975848,0.9439230945296408
1539131505051035,-0.005188067444876765,0.1553368429083699,0.9624780651560236
1539131505067017,0.0023804074158846333,0.1608300907911806,0.9744411383230336
1539131505082999,0.002746623941405346,0.17315938048371127,0.9682154573891815
1539131505098981,0.015930418860151008,0.17694361791409197,0.9508812085145344
1539131505114964,0.02801556420233453,0.16485847257190844,0.9384298466468302
1539131505130946,0.037781338216220206,0.13873502708476426,0.9279316395819031
1539131505146928,0.03607232776379021,0.12298771648737272,0.9171892881666288
1539131505162910,0.021789883268482413,0.12274357213702558,0.9142595559624631
1539131505178892,0.005920500495918191,0.13495078965438356,0.9208514534218359
1539131505194874,-0.015808346684977437,0.16388189517051988,0.9412375066758223
1539131505210857,-0.02923628595407024,0.2016021972991533,0.9571068894483865
1539131505226806,-0.03717097734035235,0.2301670862897689,0.970901045243
1539131505242788,-0.034851606012054503,0.2330968184939346,0.9729762722209507
1539131505258771,-0.023132677195391693,0.20184634164950044,0.9684596017395286
1539131505274753,-0.007507438773174613,0.1633936064698256,0.9556420233463037
1539131505290735,-0.0012817578393224949,0.12860303654535787,0.9401388570992602
1539131505306717,0.0021362630655374915,0.10943770504310635,0.929640650034333
1539131505322699,0.003356984817273201,0.11102464332036277,0.9401388570992602
1539131505338681,-0.0016479743648432077,0.12970168612192,0.9528343633173115
1539131505354663,-1.831082627603564E-4,0.16363775082017273,0.9572289616235601
1539131505370646,-0.001037613488975353,0.1961089494163426,0.9550316624704358
1539131505386628,-5.493247882810692E-4,0.2229648279545282,0.9506370641641873
1539131505402610,-0.0036011291676203427,0.22369726100556964,0.9491721980621044
1539131505418592,-0.00836194399938961,0.20233463035019472,0.950148775463493
1539131505434574,-0.013855191882200302,0.16998550392919842,0.9573510337987337
1539131505450556,-0.019104295414663852,0.14349584191653353,0.9654077973601893
1539131505466539,-0.022400244144350268,0.12774853131914288,0.9677271686884872
1539131505482521,-0.0214236667429617,0.12176699473563701,0.966628519111925
1539131505498503,-0.016662851911192433,0.13006790264744073,0.9661402304112308
1539131505514485,-0.01483176928358887,0.14166475928892996,0.9636987869077593
1539131505530467,-0.01373311970702673,0.1494773785000385,0.9597924773022051
1539131505546417,-0.012756542305638163,0.15191882200350992,0.9551537346456094
1539131505562399,-0.008117799649042468,0.15265125505455135,0.9461203936827651
1539131505578381,-0.00970473792629889,0.15301747158007206,0.946730754558633
1539131505594363,-0.006530861371786045,0.15680170901045276,0.950148775463493
1539131505610345,-0.0061646448462653325,0.1591210803387506,0.9481956206607158
1539131505626328,-0.0040894178683146265,0.1616845960173956,0.9406271457999544
1539131505642310,-0.004821850919356052,0.16620126649881772,0.9405050736247809
1539131505658292,-0.007019150072480329,0.1633936064698256,0.9463645380331123
1539131505674274,-0.004699778744182481,0.15777828641184133,0.9513694972152287
1539131505690256,-0.010559243152513886,0.15777828641184133,0.9556420233463037
1539131505706238,-0.011535820553902454,0.1599755855649656,0.9499046311131458
1539131505722221,-0.02130159456778813,0.16510261692225559,0.9483176928358894
1539131505738203,-0.02386511024643312,0.1671778439002063,0.9469748989089801
1539131505754185,-0.03033493553063238,0.17291523613336413,0.948439765011063
1539131505770167,-0.029602502479590953,0.17071793698023985,0.9478294041351951
1539131505786149,-0.029724574654764524,0.16693369954985915,0.9409933623254751
1539131505802131,-0.027405203326466676,0.15802243076218847,0.9397726405737394
1539131505818113,-0.021789883268482413,0.15899900816357704,0.9378194857709623
1539131505834096,-0.018005645838101714,0.16363775082017273,0.935622186617838
1539131505850078,-0.019714656290531707,0.16766613260090057,0.9312275883115895
1539131505866058,-0.01898222323949028,0.16180666819256917,0.9328145265888459
1539131505882040,-0.0252079041733424,0.1528953994048985,0.941603723201343
1539131505898022,-0.031189440756847375,0.14728007934691423,0.9575951781490808
1539131505914004,-0.034973678187228074,0.14422827496757495,0.9586938277256429
1539131505929987,-0.03265430685893023,0.14081025406271497,0.9499046311131458
1539131505945969,-0.025818265049210254,0.13788052185854927,0.9440451667048144
1539131505961951,-0.020813305867093845,0.12298771648737272,0.9522240024414437
1539131505977933,-0.016906996261539575,0.11200122072175134,0.9632104982070651
1539131505993915,-0.01495384145876244,0.11602960250247918,0.9655298695353629
1539131506009897,-0.009948882276646032,0.12701609826810145,0.9650415808346686
1539131506025879,-0.006897077897306758,0.13824673838406998,0.9556420233463037
1539131506041862,-0.013122758831158876,0.13556115053025142,0.952712291142138
1539131506057844,-0.019836728465705278,0.12567330434119217,0.9584496833752958
1539131506073826,-0.02264438849469741,0.1167620355535206,0.9656519417105365
1539131506089808,-0.028747997253375956,0.12652780956740717,0.9551537346456094
1539131506105790,-0.027405203326466676,0.1477683680476085,0.9411154345006487
1539131506121772,-0.02545204852368954,0.16681162737468558,0.9329365987640195
1539131506137755,-0.022278171969176697,0.16974135957885128,0.9403830014496073
1539131506153737,-0.020813305867093845,0.15472648203250206,0.943312733653773
1539131506169719,-0.025085831998168828,0.13202105745021786,0.944167238879988
1539131506185669,-0.02032501716639956,0.11102464332036277,0.9480735484855423
1539131506201650,-0.021789883268482413,0.10382238498512208,0.9560082398718244
1539131506217632,-0.028503852903028815,0.10382238498512208,0.9696803234912643
1539131506233614,-0.028870069428549527,0.1138323033493549,0.9706569008926529
1539131506249595,-0.027283131151293105,0.12579537651636574,0.9573510337987337
1539131506265577,-0.028747997253375956,0.12909132524605216,0.9481956206607158
1539131506281559,-0.030090791180285237,0.12628366521706003,0.9478294041351951
1539131506297540,-0.030212863355458808,0.12018005645838059,0.9539330128938737
1539131506313522,-0.03045700770580595,0.11444266422522276,0.9556420233463037
1539131506329504,-0.027649347676813818,0.11749446860456203,0.9525902189669644
1539131506345485,-0.025696192874036683,0.12701609826810145,0.946730754558633
1539131506361467,-0.02410925459678026,0.13482871747921,0.9481956206607158
1539131506377449,-0.022278171969176697,0.14312962539101282,0.9485618371862365
1539131506393430,-0.023498893720912406,0.14837872892347637,0.9451438162813766
1539131506409412,-0.024475471122300974,0.14984359502555922,0.9453879606317237
1539131506425394,-0.024963759822995257,0.14349584191653353,0.9541771572442208
1539131506441375,-0.03558403906309593,0.1334859235523007,0.96406500343328
1539131506457357,-0.03802548256656735,0.1205462729839013,0.9628442816815443
1539131506473339,-0.040100709544518054,0.11407644769970204,0.9627222095063708
1539131506489320,-0.040222781719691625,0.11224536507209848,0.9582055390249486
1539131506505279,-0.03741512169069949,0.11444266422522276,0.9512474250400551
1539131506521261,-0.03265430685893023,0.11773861295490917,0.9468528267338066
1539131506537243,-0.03143358510719452,0.12127870603494273,0.9505149919890137
1539131506553224,-0.03045700770580595,0.12579537651636574,0.9539330128938737
1539131506569206,-0.0319218738078888,0.12335393301289344,0.9589379720759901
1539131506585188,-0.0252079041733424,0.12127870603494273,0.9632104982070651
1539131506601169,-0.028259708552681673,0.12164492256046344,0.9635767147325858
1539131506617151,-0.027527275501640247,0.13250934615091214,0.9506370641641873
1539131506633133,-0.02642862592507811,0.14471656366826924,0.934767681391623
1539131506649114,-0.026062409399557396,0.15179674982833635,0.9333028152895402
1539131506665096,-0.028137636377508102,0.15387197680628706,0.9395284962233923
1539131506681078,-0.0327763790341038,0.14715800717174066,0.940749217975128
1539131506697059,-0.03216601815823594,0.14081025406271497,0.9420920119020373
1539131506713041,-0.03424124513618665,0.13714808880750784,0.9423361562523844
1539131506729023,-0.03033493553063238,0.13739223315785498,0.9419699397268637
1539131506745004,-0.028625925078202386,0.13824673838406998,0.9406271457999544
1539131506760986,-0.025818265049210254,0.13641565575646641,0.9435568780041201
1539131506776968,-0.02679484245059882,0.13043411917296144,0.9478294041351951
1539131506792949,-0.025818265049210254,0.12823682001983716,0.9539330128938737
1539131506808931,-0.026306553749904538,0.12506294346532432,0.9561303120469979
1539131506824859,-0.02642862592507811,0.12481879911497629,0.9593041886015108
1539131506840841,-0.02423132677195383,0.12823682001983716,0.9601586938277258
1539131506856823,-0.023010605020218122,0.1360494392309457,0.9615014877546351
1539131506872804,-0.02777141985198739,0.14410620279240138,0.9669947356374458
1539131506888786,-0.028503852903028815,0.14312962539101282,0.964919508659495
1539131506904768,-0.03314259555962451,0.1377584496833757,0.9626001373311972
1539131506920749,-0.03350881208514522,0.13080033569848215,0.9567406729228658
1539131506936731,-0.03338673990997165,0.12860303654535787,0.9558861676966508
1539131506952713,-0.03399710078583951,0.12982375829709358,0.9574731059739072
1539131506968694,-0.03399710078583951,0.13116655222400286,0.9500267032883194
1539131506984676,-0.03460746166170736,0.13287556267643286,0.9451438162813766
1539131507000658,-0.03045700770580595,0.1276264591439693,0.9448996719310294
1539131507016639,-0.02911421377889667,0.12994583047226715,0.9445334554055087
1539131507032621,-0.031067368581673804,0.13446250095368928,0.9477073319600215
1539131507048603,-0.026184481574730967,0.13458457312886285,0.9505149919890137
1539131507064584,-0.027283131151293105,0.13653772793163999,0.9494163424124515
1539131507080566,-0.028747997253375956,0.13653772793163999,0.9528343633173115
1539131507096548,-0.02935835812924381,0.13702601663233427,0.9628442816815443
1539131507112529,-0.029846646829938095,0.14288548104066567,0.9646753643091479
1539131507128511,-0.029968719005111666,0.14227512016479782,0.9560082398718244
1539131507144470,-0.02935835812924381,0.1369039444571607,0.9505149919890137
1539131507160452,-0.032288090333409514,0.12469672693980272,0.9496604867627987
1539131507176433,-0.03289845120927737,0.11187914854657777,0.9503929198138401
1539131507192415,-0.03607232776379021,0.10894941634241206,0.9553978789959565
1539131507208397,-0.0365606164644845,0.11505302510109061,0.9550316624704358
1539131507224378,-0.034973678187228074,0.12445258258945557,0.9507591363393608
1539131507240360,-0.03814755474174092,0.12982375829709358,0.9420920119020373
1539131507256342,-0.0319218738078888,0.12603952086671288,0.9438010223544673
1539131507272323,-0.026184481574730967,0.11737239642938846,0.9434348058289466
1539131507288305,-0.029724574654764524,0.11200122072175134,0.944167238879988
1539131507304287,-0.026916914625772392,0.11078049897001563,0.9524681467917908
1539131507320268,-0.03717097734035235,0.11309987029831348,0.9626001373311972
1539131507336250,-0.03033493553063238,0.11566338597695847,0.9678492408636608
1539131507352232,-0.03448538948653379,0.11871519035629774,0.9662623025864043
1539131507368213,-0.0319218738078888,0.11737239642938846,0.9656519417105365
1539131507384195,-0.03179980163271523,0.11712825207904132,0.9705348287174793
1539131507400177,-0.027038986800945963,0.11334401464866062,0.9680933852140079
1539131507416158,-0.031067368581673804,0.1091935606927592,0.9617456321049822
1539131507432140,-0.032288090333409514,0.10833905546654421,0.9579613946746015
1539131507448122,-0.033875028610665936,0.10907148851758564,0.9507591363393608
1539131507464080,-0.035217822537575216,0.10943770504310635,0.9414816510261694
1539131507480062,-0.03729304951552592,0.11139085984588348,0.9329365987640195
1539131507496043,-0.03936827649347663,0.10138094148165067,0.9392843518730452
1539131507512024,-0.04364080262455161,0.08892957961394643,0.9500267032883194
1539131507528005,-0.0432745860990309,0.089906157015335,0.9550316624704358
1539131507543986,-0.041443503471427334,0.09344625009536855,0.9541771572442208
1539131507559968,-0.04071107042038591,0.10296787975890709,0.955275806820783
1539131507575949,-0.041443503471427334,0.10614175631341993,0.955275806820783
1539131507591930,-0.040222781719691625,0.10296787975890709,0.9619897764553293
1539131507607911,-0.036438544289310926,0.10016021972991496,0.9634546425574122
1539131507623892,-0.03839169909208806,0.10479896238651065,0.9632104982070651
1539131507639874,-0.0394903486686502,0.10406652933546923,0.9651636530098422
1539131507655855,-0.047913328755626594,0.09930571450369996,0.9599145494773786
1539131507671836,-0.05035477225909801,0.08868543526359929,0.9462424658579387
1539131507687817,-0.049134050507362304,0.0806286717021436,0.9439230945296408
1539131507703798,-0.04852368963149445,0.0869764248111693,0.9516136415655758
1539131507719780,-0.04571602960250232,0.1004043640802621,0.9512474250400551
1539131507735761,-0.04449530785076661,0.11017013809414777,0.9514915693904022
1539131507751742,-0.041687647821774476,0.11505302510109061,0.9529564354924851
1539131507767723,-0.03973449301899734,0.1091935606927592,0.955275806820783
1539131507783722,-0.03741512169069949,0.10357824063477494,0.9506370641641873
1539131507799703,-0.03839169909208806,0.1004043640802621,0.9496604867627987
1539131507815684,-0.037781338216220206,0.10406652933546923,0.9506370641641873
1539131507831665,-0.04046692607003877,0.10772869459067635,0.9574731059739072
1539131507847646,-0.03851377126726163,0.1088273441672385,0.9596704051270315
1539131507863628,-0.03704890516517878,0.11236743724727205,0.9525902189669644
1539131507879609,-0.03533989471274879,0.11236743724727205,0.9427023727779051
1539131507895590,-0.03607232776379021,0.10370031280994851,0.9434348058289466
1539131507911571,-0.040100709544518054,0.09759670405126997,0.9530785076676587
1539131507927552,-0.03668268863965807,0.09820706492713782,0.9557640955214772
1539131507943534,-0.03802548256656735,0.10724040588998207,0.9569848172732129
1539131507959515,-0.033630884260318794,0.1129777981231399,0.9567406729228658
1539131507975496,-0.031189440756847375,0.11236743724727205,0.9547875181200887
1539131507991477,-0.029846646829938095,0.1091935606927592,0.9517357137407494
1539131508007458,-0.03216601815823594,0.10577553978789922,0.9610131990539408
1539131508023440,-0.030823224231326662,0.11078049897001563,0.9727321278706036
1539131508039421,-0.032532234683756656,0.12127870603494273,0.9694361791409172
1539131508055402,-0.03741512169069949,0.12970168612192,0.9754177157244222
1539131508071383,-0.04119935912108019,0.13495078965438356,0.9702906843671322
1539131508087364,-0.04351873044937804,0.1264057373922336,0.9624780651560236
1539131508103332,-0.04827954528114731,0.11346608682383419,0.9654077973601893
1539131508119313,-0.05145342183566015,0.09918364232852639,0.9624780651560236
1539131508135295,-0.05255207141222229,0.09039444571602928,0.9536888685435265
1539131508151276,-0.053040360112916574,0.09173723964293856,0.9477073319600215
1539131508167257,-0.05255207141222229,0.09710841535057568,0.9425803006027316
1539131508183238,-0.04888990615701516,0.10089265278095638,0.9365987640192266
1539131508199219,-0.04364080262455161,0.09820706492713782,0.9355001144426645
1539131508215201,-0.03985656519417091,0.10113679713130352,0.9392843518730452
1539131508231182,-0.035217822537575216,0.10492103456168422,0.9479514763103687
1539131508247163,-0.03338673990997165,0.11786068513008274,0.9567406729228658
1539131508263144,-0.028747997253375956,0.12652780956740717,0.9524681467917908
1539131508279125,-0.027283131151293105,0.11895933470664488,0.9513694972152287
1539131508295107,-0.02679484245059882,0.10968184939345349,0.9577172503242544
1539131508311088,-0.03204394598306237,0.10663004501411422,0.964919508659495
1539131508327069,-0.035217822537575216,0.10467689021133708,0.9654077973601893
1539131508343050,-0.03704890516517878,0.10284580758373352,0.9523460746166172
1539131508359031,-0.0386358434424352,0.10308995193408066,0.9379415579461359
1539131508375012,-0.0394903486686502,0.10638590066376707,0.937331197070268
1539131508390994,-0.043030441748683756,0.1129777981231399,0.9477073319600215
1539131508406975,-0.041443503471427334,0.12018005645838059,0.9470969710841537
1539131508422973,-0.043030441748683756,0.11273365377279276,0.951857785915923
1539131508438954,-0.0432745860990309,0.1041886015106428,0.9574731059739072
1539131508454936,-0.04388494697489875,0.09845120927748496,0.9615014877546351
1539131508470917,-0.03997863736934448,0.10992599374380063,0.9635767147325858
1539131508486898,-0.04254215304798947,0.1251850156404979,0.9671168078126193
1539131508502879,-0.04107728694590662,0.1301899748226143,0.9658960860608836
1539131508518860,-0.039002059967955915,0.12164492256046344,0.9569848172732129
1539131508534842,-0.03985656519417091,0.1129777981231399,0.9538109407187001
1539131508550823,-0.037659266041046635,0.11163500419623062,0.9574731059739072
1539131508566804,-0.03997863736934448,0.1184710460059506,0.9610131990539408
1539131508582785,-0.04046692607003877,0.12738231479362216,0.9556420233463037
1539131508598766,-0.0386358434424352,0.124330510414282,0.9519798580910965
1539131508614748,-0.03741512169069949,0.1138323033493549,0.9481956206607158
1539131508630729,-0.035095750362401645,0.10162508583199781,0.949294270237278
1539131508646710,-0.03595025558861664,0.10101472495612995,0.9528343633173115
1539131508662691,-0.037781338216220206,0.10675211718928779,0.9575951781490808
1539131508678672,-0.03802548256656735,0.11273365377279276,0.9567406729228658
1539131508694654,-0.03558403906309593,0.11541924162661132,0.9523460746166172
1539131508710635,-0.03729304951552592,0.12018005645838059,0.951003280689708
1539131508726616,-0.03314259555962451,0.12652780956740717,0.9451438162813766
1539131508742584,-0.03558403906309593,0.12799267566949002,0.9409933623254751
1539131508758565,-0.03692683299000521,0.12018005645838059,0.9452658884565501
1539131508774546,-0.036194399938963784,0.11358815899900776,0.9485618371862365
1539131508790527,-0.037537193865873064,0.1109025711451892,0.9466086823834594
1539131508806509,-0.03839169909208806,0.1138323033493549,0.9448996719310294
1539131508822490,-0.03973449301899734,0.11322194247348705,0.9445334554055087
1539131508838471,-0.03595025558861664,0.11053635461966849,0.9417257953765166
1539131508854452,-0.03033493553063238,0.10687418936446136,0.9362325474937059
1539131508870433,-0.02410925459678026,0.1071183337148085,0.9329365987640195
1539131508886415,-0.03045700770580595,0.11139085984588348,0.9564965285725187
1539131508902396,-0.0289921416037231,0.12542915999084503,0.9688258182650493
1539131508918377,-0.02679484245059882,0.11944762340733917,0.9593041886015108
1539131508934358,-0.019348439765010994,0.10846112764171778,0.9682154573891815
1539131508950339,-0.028259708552681673,0.1062638284885935,0.9789578088044557
1539131508966321,-0.03399710078583951,0.11322194247348705,0.9940947585259785
1539131508982302,-0.014709697108415298,0.1264057373922336,0.9953154802777142
1539131508998283,-0.010803387502861028,0.13958953231097926,0.9807888914320593
1539131509014264,-0.010681315327687457,0.14349584191653353,0.9712672617685207
1539131509030245,-0.0040894178683146265,0.13678187228198713,0.9661402304112308
1539131509046227,-0.009582665751125319,0.12982375829709358,0.9699244678416115
1539131509062194,-0.019348439765010994,0.11883726253147131,0.9728542000457772
1539131509078176,-0.024353398947127403,0.10968184939345349,0.9608911268787672
1539131509094157,-0.031067368581673804,0.10150301365682424,0.9394064240482187
1539131509110138,-0.03741512169069949,0.09723048752574925,0.9213397421225302
1539131509126119,-0.046814679179064456,0.10211337453269209,0.9203631647211417
1539131509142100,-0.04315251392385733,0.1024795910582128,0.9209735255970095
1539131509158082,-0.040222781719691625,0.10724040588998207,0.9247577630273902
1539131509174063,-0.040222781719691625,0.12384222171358772,0.9253681239032581
1539131509190044,-0.040344853894865196,0.14166475928892996,0.9302510109102009
1539131509206025,-0.03204394598306237,0.1494773785000385,0.9334248874647137
1539131509222006,-0.01861600671396957,0.14898908979934422,0.9286640726329445
1539131509237988,-0.014343480582894585,0.14679179064621994,0.9252460517280845
1539131509253969,-0.005676356145571049,0.15082017242694779,0.934767681391623
1539131509269950,-0.0014038300144960658,0.1448386358434428,0.9655298695353629
1539131509285931,0.005310139620050336,0.13702601663233427,0.9844510566872664
1539131509301912,0.0040894178683146265,0.13678187228198713,0.9789578088044557
1539131509317894,-0.0014038300144960658,0.14605935759517852,0.9562523842221715
1539131509333875,-7.934691386282111E-4,0.15521477073319634,0.9524681467917908
1539131509349856,-0.0060425726710917615,0.15863279163805633,0.9596704051270315
1539131509365837,-0.002868696116578917,0.15069810025177421,0.975173571374075
1539131509381805,-0.00457770656900891,0.13507286182955713,1.0050812542916
1539131509397786,0.00848401617456318,0.13458457312886285,0.9973907072556649
1539131509413767,-0.00323491264209963,0.16595712214847058,0.9597924773022051
1539131509429749,0.0060425726710917615,0.20050354772259116,0.8671396963454638
1539131509445730,-0.019714656290531707,0.2048981460288397,0.8408941786831461
1539131509461711,-0.004943923094529623,0.20721751735713756,0.8566414892805367
1539131509477692,-0.00323491264209963,0.21075761043717112,0.9118181124589917
1539131509493673,0.014099336232547444,0.19964904249637616,0.9594262607766844
1539131509509655,0.007019150072480329,0.22369726100556964,0.9590600442511636
1539131509525636,-0.005065995269703194,0.25128557259479667,0.9278095674067295
1539131509541617,-0.016540779736018862,0.26483558403906304,0.894361791409171
1539131509557598,-0.022278171969176697,0.25555809872587165,0.8723887998779274
1539131509573579,-0.026062409399557396,0.23419546807049674,0.8750743877317468
1539131509589561,-0.02789349202716096,0.20770580605783184,0.9192645151445795
1539131509605542,-0.028259708552681673,0.1957427328908219,0.964919508659495
1539131509621523,-0.02532997634851597,0.20318913557640972,0.9906767376211185
1539131509637504,-0.024597543297474544,0.21942473487449465,0.9792019531548029
1539131509653485,-0.023498893720912406,0.22272068360418107,0.9542992294193944
1539131509669467,-0.02288853284504455,0.21307698176546896,0.9586938277256429
1539131509685448,-0.01226825360494388,0.1893949797817962,0.9835965514610514
1539131509701446,-0.0071412222476539,0.1747463187609677,0.9895780880445564
1539131509717427,-0.005920500495918191,0.17267109178301698,0.9729762722209507
1539131509733409,6.103608758678547E-5,0.17608911268787697,0.9589379720759901
1539131509749390,0.005188067444876765,0.18487830930037408,0.9628442816815443
1539131509765371,0.008606088349736751,0.20050354772259116,0.9663843747615779
1539131509781352,0.012756542305638163,0.21454184786755182,0.9517357137407494
1539131509797333,0.0021362630655374915,0.21454184786755182,0.951003280689708
1539131509813315,-0.0014038300144960658,0.19598687724116903,0.9574731059739072
1539131509829296,-0.007629510948348184,0.17413595788509983,0.9606469825284201
1539131509845277,-0.01617456321049815,0.16180666819256917,0.9462424658579387
1539131509861258,-0.020569161516746703,0.15436026550698134,0.930495155260548
1539131509877239,-0.028870069428549527,0.15594720378423776,0.9221942473487452
1539131509893221,-0.03448538948653379,0.15631342030975848,0.9357442587930116
1539131509909202,-0.039002059967955915,0.16351567864499916,0.9348897535667966
1539131509925183,-0.03961242084382377,0.171816586556802,0.9291523613336388
1539131509941164,-0.03424124513618665,0.17669947356374482,0.9307392996108952
1539131509957145,-0.02923628595407024,0.18622110322728336,0.939894712748913
1539131509973127,-0.025574120698863112,0.19122606240939977,0.9427023727779051
1539131509989108,-0.020691233691920274,0.19085984588387905,0.9412375066758223
1539131510005089,-0.01739528496223386,0.18976119630731692,0.9469748989089801
1539131510021026,-0.012878614480811734,0.19757381551842546,0.9516136415655758
1539131510037007,-0.011535820553902454,0.21026932173647683,0.9540550850690472
1539131510052989,-0.014221408407721015,0.20782787823300541,0.9601586938277258
1539131510068970,-0.012512397955291021,0.19769588769359903,0.9600366216525522
1539131510084951,-0.012634470130464592,0.1928130006866562,0.9596704051270315
1539131510100932,-0.011535820553902454,0.1890287632562755,0.955275806820783
1539131510116913,-0.015808346684977437,0.1893949797817962,0.9549095902952622
1539131510132895,-0.02008087281605242,0.19720759899290474,0.950148775463493
1539131510148876,-0.028381780727855244,0.20636301213092256,0.9505149919890137
1539131510164857,-0.024475471122300974,0.2141756313420311,0.952712291142138
1539131510180838,-0.027161058976119534,0.2108796826123447,0.9546654459449151
1539131510196819,-0.03216601815823594,0.203677424277104,0.9555199511711301
1539131510212801,-0.02777141985198739,0.1906157015335319,0.9502708476386665
1539131510228782,-0.029602502479590953,0.1835355153734648,0.9353780422674909
1539131510244763,-0.0252079041733424,0.17438010223544698,0.9208514534218359
1539131510260744,-0.027283131151293105,0.16998550392919842,0.9210955977721831
1539131510276725,-0.028747997253375956,0.17169451438162842,0.9241474021515224
1539131510292707,-0.028503852903028815,0.17755397878995982,0.9344014648661023
1539131510308688,-0.030945296406500233,0.19012741283283763,0.9375753414206152
1539131510324669,-0.04315251392385733,0.2108796826123447,0.945021744106203
1539131510340637,-0.04718089570458517,0.22699320973525605,0.9533226520180058
1539131510356618,-0.038757915617608774,0.20904859998474112,0.9638208590829329
1539131510372599,-0.023620965896085977,0.16888685435263628,0.9643091477836272
1539131510388580,-0.0017700465400167786,0.1398336766613264,0.9470969710841537
1539131510404562,0.012146181429770309,0.14496070801861638,0.9335469596398873
1539131510420543,0.014343480582894585,0.1738918135347527,0.9300068665598538
1539131510436524,0.014221408407721015,0.20428778515297186,0.934767681391623
1539131510452505,0.011535820553902454,0.21686121919584966,0.9326924544136723
1539131510468486,0.010193026626993174,0.2116121156633861,0.9273212787060352
1539131510484468,0.004699778744182481,0.19916075379568188,0.9280537117570766
1539131510500449,-0.0039673456931410556,0.19098191805905262,0.9359884031433587
1539131510516430,-0.013244831006332447,0.18084992751964624,0.9478294041351951
1539131510532411,-0.020569161516746703,0.1785305561913484,0.9556420233463037
1539131510548392,-0.02545204852368954,0.170962081330587,0.9604028381780729
1539131510564374,-0.026916914625772392,0.17169451438162842,0.9611352712291144
1539131510580355,-0.023010605020218122,0.17499046311131483,0.9586938277256429
1539131510596336,-0.021789883268482413,0.17743190661478625,0.9550316624704358
1539131510612317,-0.01898222323949028,0.17914091706721624,0.9529564354924851
1539131510628298,-0.015075913633936011,0.1835355153734648,0.9466086823834594
1539131510644280,-0.012634470130464592,0.18841840238040763,0.9387960631723509
1539131510660247,-0.011291676203555312,0.1893949797817962,0.9391622796978716
1539131510676228,-0.011291676203555312,0.18548867017624193,0.9406271457999544
1539131510692209,-0.01483176928358887,0.18487830930037408,0.9425803006027316
1539131510708190,-0.01629663538567172,0.17694361791409197,0.943312733653773
1539131510724170,-0.015930418860151008,0.17413595788509983,0.9418478675516901
1539131510740151,-0.019592584115358136,0.17145037003128127,0.9419699397268637
1539131510756132,-0.02008087281605242,0.17657740138857125,0.9376974135957887
1539131510772112,-0.019348439765010994,0.18402380407415908,0.9379415579461359
1539131510788093,-0.023010605020218122,0.18292515449759694,0.9386739909971773
1539131510804074,-0.021667811093308842,0.171816586556802,0.942458228427558
1539131510820055,-0.024963759822995257,0.1696192874036777,0.9413595788509959
1539131510836035,-0.025085831998168828,0.16607919432364415,0.9368429083695737
1539131510852016,-0.02423132677195383,0.16864271000228914,0.9344014648661023
1539131510867997,-0.028503852903028815,0.1763332570382241,0.9387960631723509
1539131510883978,-0.026062409399557396,0.18170443274586123,0.9385519188220037
1539131510899958,-0.02911421377889667,0.1881742580300605,0.9419699397268637
1539131510915939,-0.02789349202716096,0.18084992751964624,0.9403830014496073
1539131510931920,-0.025085831998168828,0.17206073090714913,0.9367208361944002
1539131510947900,-0.025696192874036683,0.16485847257190844,0.9328145265888459
1539131510963881,-0.02545204852368954,0.16571297779812344,0.9348897535667966
1539131510979858,-0.027405203326466676,0.17987335011825767,0.9408712901503016
1539131510995839,-0.03424124513618665,0.20123598077363258,0.9408712901503016
1539131511011819,-0.03936827649347663,0.20306706340123615,0.9425803006027316
1539131511027800,-0.03790341039139378,0.1893949797817962,0.9470969710841537
1539131511043781,-0.036438544289310926,0.16778820477607415,0.9494163424124515
1539131511059762,-0.03326466773479808,0.15741206988632062,0.9568627450980394
1539131511075742,-0.028503852903028815,0.16009765774013918,0.9613794155794615
1539131511091723,-0.020935378042267416,0.17084000915541342,0.9604028381780729
1539131511107704,-0.010437170977340315,0.1839017318989855,0.9560082398718244
1539131511123685,-0.0023804074158846333,0.1943999389639126,0.9547875181200887
1539131511139665,0.0020141908903639205,0.19928282597085545,0.954421301594568
1539131511155646,0.002868696116578917,0.206240939955749,0.9436789501792937
1539131511171627,-0.00457770656900891,0.19842832074464045,0.9413595788509959
1539131511187607,-0.015320057984283153,0.18573281452658907,0.9447775997558558
1539131511203588,-0.02398718242160669,0.17315938048371127,0.9457541771572444
1539131511219569,-0.031311512932020946,0.171816586556802,0.9420920119020373
1539131511235550,-0.037781338216220206,0.1687647821774627,0.9445334554055087
1539131511251530,-0.03851377126726163,0.16998550392919842,0.9420920119020373
1539131511267511,-0.040344853894865196,0.17438010223544698,0.9438010223544673
1539131511283492,-0.03839169909208806,0.1852445258258948,0.9429465171282523
1539131511299469,-0.03729304951552592,0.19305714503700333,0.9417257953765166
1539131511315449,-0.03338673990997165,0.1852445258258948,0.938185702296483
1539131511331430,-0.033630884260318794,0.17145037003128127,0.9362325474937059
1539131511347411,-0.03314259555962451,0.16473640039673487,0.9422140840772109
1539131511363392,-0.03399710078583951,0.171816586556802,0.9422140840772109
1539131511379372,-0.034973678187228074,0.1835355153734648,0.9411154345006487
1539131511395353,-0.03399710078583951,0.18597695887693622,0.945876249332418
1539131511411334,-0.028503852903028815,0.18414587624933265,0.9466086823834594
1539131511427314,-0.027283131151293105,0.17584496833752983,0.9523460746166172
1539131511443295,-0.02679484245059882,0.16998550392919842,0.9507591363393608
1539131511459276,-0.02777141985198739,0.17193865873197556,0.9459983215075916
1539131511475257,-0.029968719005111666,0.18084992751964624,0.952712291142138
1539131511491237,-0.025940337224383825,0.19220263981078833,0.954421301594568
1539131511507218,-0.024963759822995257,0.19549858854047475,0.9525902189669644
1539131511523199,-0.023498893720912406,0.19049362935835834,0.9457541771572444
1539131511539179,-0.022156099794003126,0.1852445258258948,0.9447775997558558
1539131511555160,-0.025818265049210254,0.1818265049210348,0.9440451667048144
1539131511571141,-0.03045700770580595,0.17608911268787697,0.9479514763103687
1539131511587122,-0.03436331731136022,0.16864271000228914,0.9491721980621044
1539131511603102,-0.03985656519417091,0.16559090562294987,0.9533226520180058
1539131511619110,-0.04046692607003877,0.1687647821774627,0.9615014877546351
1539131511635090,-0.042786297398336615,0.18036163881895195,0.9503929198138401
1539131511651071,-0.042786297398336615,0.18841840238040763,0.9389181353475244
1539131511667052,-0.04058899824521234,0.1839017318989855,0.9427023727779051
1539131511683033,-0.039002059967955915,0.17486839093614126,0.947585259784848
1539131511699013,-0.037659266041046635,0.17291523613336413,0.944167238879988
1539131511714994,-0.03668268863965807,0.17291523613336413,0.9368429083695737
1539131511730975,-0.03411917296101308,0.17730983443961268,0.9290302891584652
1539131511746955,-0.036316472114137355,0.18036163881895195,0.9308613717860688
1539131511762936,-0.03729304951552592,0.17779812314030696,0.9345235370412759
1539131511778917,-0.03790341039139378,0.17730983443961268,0.946730754558633
1539131511794898,-0.04083314259555948,0.17743190661478625,0.9505149919890137
1539131511810878,-0.03692683299000521,0.17914091706721624,0.9444113832303351
1539131511826859,-0.034973678187228074,0.17560082398718269,0.9394064240482187
1539131511842840,-0.037537193865873064,0.16131837949187489,0.9397726405737394
1539131511858821,-0.03472953383688093,0.1491111619745178,0.9457541771572444
1539131511874801,-0.035217822537575216,0.1465476462958728,0.945876249332418
1539131511890782,-0.03973449301899734,0.1532616159304192,0.9452658884565501
1539131511906763,-0.04437323567559304,0.15985351338979203,0.9417257953765166
1539131511922743,-0.04461738002594018,0.16021972991531275,0.9442893110551616
1539131511938720,-0.04486152437628732,0.15423819333180777,0.9455100328068973
1539131511954701,-0.04522774090180803,0.14630350194552566,0.9406271457999544
1539131511970682,-0.045593957427328746,0.1406881818875414,0.9479514763103687
1539131511986662,-0.04132143129625376,0.14142061493858282,0.9517357137407494
1539131512002643,-0.04351873044937804,0.15265125505455135,0.953566796368353
1539131512018624,-0.04193179217212162,0.1616845960173956,0.9617456321049822
1539131512034605,-0.04217593652246876,0.1730373083085377,0.9639429312581065
1539131512050585,-0.04351873044937804,0.1759670405127034,0.9599145494773786
1539131512066566,-0.042908369573510186,0.16522468909742916,0.9566186007476922
1539131512082547,-0.03692683299000521,0.15069810025177421,0.9528343633173115
1539131512098528,-0.03802548256656735,0.1465476462958728,0.9422140840772109
1539131512114508,-0.04388494697489875,0.15167467765316278,0.9521019302662701
1539131512130489,-0.03851377126726163,0.1558251316090642,0.949294270237278
1539131512146470,-0.042664225223163044,0.1579003585870149,0.9340352483405816
1539131512162450,-0.05560387579156156,0.15277332722972492,0.9462424658579387
1539131512178431,-0.05145342183566015,0.15252918287937778,0.948439765011063
1539131512194412,-0.046570534828717314,0.15130846112764207,0.9370870527199209
1539131512210393,-0.039124132143129486,0.1486228732738235,0.9452658884565501
1539131512226373,-0.03595025558861664,0.1461814297703521,0.9507591363393608
1539131512242354,-0.033752956435492365,0.14752422369726137,0.9469748989089801
1539131512258331,-0.03595025558861664,0.15680170901045276,0.9474631876096744
1539131512274312,-0.03814755474174092,0.16021972991531275,0.9564965285725187
1539131512290292,-0.03924620431830306,0.16449225604638773,0.9622339208056765
1539131512306273,-0.040100709544518054,0.17730983443961268,0.9479514763103687
1539131512322254,-0.042786297398336615,0.18036163881895195,0.9391622796978716
1539131512338235,-0.04583810177767589,0.16119630731670131,0.9414816510261694
1539131512354215,-0.04522774090180803,0.14129854276340925,0.9370870527199209
1539131512370196,-0.04571602960250232,0.13287556267643286,0.9319600213626309
1539131512386177,-0.04693675135423803,0.14081025406271497,0.9331807431143666
1539131512402157,-0.04571602960250232,0.15338368810559277,0.9408712901503016
1539131512418138,-0.044129091325245895,0.16937514305333057,0.9427023727779051
1539131512434119,-0.04315251392385733,0.17560082398718269,0.9451438162813766
1539131512450100,-0.03985656519417091,0.17376974135957912,0.954421301594568
1539131512466080,-0.035217822537575216,0.1713282978561077,0.9534447241931794
1539131512482061,-0.03668268863965807,0.17364766918440555,0.9547875181200887
1539131512498042,-0.03985656519417091,0.17267109178301698,0.9573510337987337
1539131512514022,-0.03936827649347663,0.17535667963683554,0.954421301594568
1539131512530003,-0.04095521477073305,0.17376974135957912,0.9550316624704358
1539131512545984,-0.04193179217212162,0.17193865873197556,0.9530785076676587
1539131512561965,-0.041687647821774476,0.16986343175402485,0.9572289616235601
1539131512577942,-0.038879987792782345,0.16852063782711557,0.9512474250400551
1539131512593922,-0.03741512169069949,0.1663233386739913,0.9491721980621044
1539131512609903,-0.034973678187228074,0.16681162737468558,0.9513694972152287
1539131512625884,-0.0386358434424352,0.17267109178301698,0.9479514763103687
1539131512641864,-0.03961242084382377,0.17816433966582768,0.9477073319600215
1539131512657845,-0.03997863736934448,0.1868314641031512,0.946730754558633
1539131512673826,-0.04046692607003877,0.19427786678873904,0.945021744106203
1539131512689807,-0.03802548256656735,0.19586480506599546,0.9392843518730452
1539131512705787,-0.03741512169069949,0.18548867017624193,0.936476691844053
1539131512721768,-0.03460746166170736,0.17486839093614126,0.9345235370412759
1539131512737749,-0.033752956435492365,0.1646143282215613,0.931349660486763
1539131512753729,-0.035217822537575216,0.1596093690394449,0.9348897535667966
1539131512769710,-0.035217822537575216,0.15899900816357704,0.9368429083695737
1539131512785691,-0.03802548256656735,0.15643549248493205,0.9405050736247809
1539131512801672,-0.03692683299000521,0.1537499046311135,0.9468528267338066
1539131512817652,-0.03814755474174092,0.1544823376821549,0.9542992294193944
1539131512833633,-0.03582818341344307,0.1520408941786835,0.9567406729228658
1539131512849614,-0.03668268863965807,0.1486228732738235,0.9604028381780729
1539131512865594,-0.038879987792782345,0.14642557412069923,0.9636987869077593
1539131512881575,-0.03997863736934448,0.15167467765316278,0.9622339208056765
1539131512897522,-0.03924620431830306,0.1544823376821549,0.9577172503242544
1539131512913502,-0.04254215304798947,0.1579003585870149,0.9579613946746015
1539131512929483,-0.041687647821774476,0.1575341420614942,0.9511253528648815
1539131512945464,-0.044129091325245895,0.15509269855802277,0.9430685893034259
1539131512961444,-0.04254215304798947,0.14972152285038565,0.9395284962233923
1539131512977425,-0.04132143129625376,0.14459449149309567,0.9479514763103687
1539131512993406,-0.03802548256656735,0.15106431677729493,0.9558861676966508
1539131513009387,-0.037781338216220206,0.15936522468909775,0.9605249103532465
1539131513025367,-0.03814755474174092,0.15716792553597347,0.9704127565423057
1539131513041348,-0.05938811322194226,0.15216296635385707,0.9988555733577478
1539131513057329,-0.0508430609597923,0.12164492256046344,1.0270542458228427
1539131513073310,-0.04351873044937804,0.10260166323338638,1.073319600213626
1539131513089290,-0.0289921416037231,0.09356832227054213,1.1087205310139616
1539131513105271,-0.019104295414663852,0.11944762340733917,1.142168307011521
1539131513121252,-0.005310139620050336,0.17157244220645484,1.1867246509498743
1539131513137232,6.103608758678547E-5,0.2473792629892424,1.2318913557640956
1539131513153213,0.007751583123521755,0.2507972838941024,1.402426184481575
1539131513169194,0.05230792706187515,0.2503089951934081,1.5557488364995802
1539131513185175,0.06939803158617508,0.22687113756008248,1.6558480201419092
1539131513201155,0.09930571450369996,0.2284580758373389,1.62240024414435
1539131513217132,0.06829938200961294,0.1990386816205083,1.5363393606469824
1539131513233113,0.04571602960250232,0.19134813458457334,1.3736171511406114
1539131513249094,-0.016540779736018862,0.16449225604638773,1.2035706111238271
1539131513265074,-0.054383154039825854,0.1427634088654921,1.034622720683604
1539131513281055,-0.09662012664988184,0.09332417792019498,0.9070572976272224
1539131513297036,-0.10162508583199825,0.058411535820553695,0.7644769970244907
1539131513313017,-0.12530708781567101,0.037659266041046635,0.6348363469901583
1539131513328997,-0.15887693598840302,0.022400244144350268,0.5108110170138094
1539131513344978,-0.22186617837796607,-0.0015259021896696368,0.46393530174715814
1539131513360959,-0.2356603341725796,0.004699778744182481,0.40582894636453837
1539131513376939,-0.27032883192187374,-0.0022583352407110624,0.3800717174029149
1539131513392920,-0.30560769054703574,-0.002868696116578917,0.34076447699702417
1539131513408901,-0.31097886625467286,0.01873807888914314,0.29803921568627434
1539131513424882,-0.3512626840619517,0.03338673990997165,0.27655451285572585
1539131513440862,-0.3676203555352102,0.07867551689936647,0.23456168459601745
1539131513456843,-0.39179064621957727,0.12396429388876129,0.17950713359273696
1539131513472824,-0.3937438010223544,0.1856107423514155,0.07208361943999364
1539131513488804,-0.4066834515907529,0.23529411764705888,-0.058533607995727266
1539131513504785,-0.3610284580758374,0.28876173037308295,-0.1686427100022887
1539131513520766,-0.2902265964751658,0.36517891203173836,-0.24054322117952243
1539131513536773,-0.201968413824674,0.43524834058136896,-0.2969405661097122
1539131513552754,-0.08368047608148332,0.5424277103837642,-0.382757305256733
1539131513568735,-0.007019150072480329,0.5915007248035398,-0.5081254291599908
1539131513584715,0.18023956664377838,0.6482642862592511,-0.6290989547570001
1539131513600696,0.3892271305409327,0.6269016556038762,-0.6561989776455328
1539131513616677,0.7357900358587015,0.5742885481040663,-0.39606317235065225
1539131513632658,1.2962233920805675,0.6654764629587246,1.985076676585031
1539131513648638,-0.8725108720531014,-0.48822766460669875,2.410620279240101
1539131513664619,-0.014465552758068156,1.1425345235370417,0.18963912413214334
1539131513680600,-0.40192263675898365,0.5404745555809871,0.34345006485084273
1539131513696581,0.01629663538567172,0.08331425955596217,0.7133287556267645
1539131513712561,0.14813458457312922,-0.5846646829938202,1.482383459220264
1539131513728542,0.18158236057068766,-0.6048065918974594,1.6182497901884485
1539131513744523,0.11969176775768631,0.05951018539711583,1.4523537041275656
1539131513760503,0.13482871747921,0.3241626611734185,1.3050125886930646
1539131513776484,0.133974212252995,0.24054322117952243,1.2367742427710384
1539131513792465,0.0567025253681237,0.31525139238574784,1.0387731746395055
1539131513808446,-0.018371862363622427,0.3218432898451207,0.8573739223315782
1539131513824426,-0.06561379415579482,0.3443045700770577,0.6908674753948274
1539131513840407,-0.12054627298390175,0.33490501258869276,0.5781948577096205
1539131513856384,-0.14813458457312878,0.33368429083695705,0.5055619134813458
1539131513872365,-0.16766613260090013,0.30548561837186217,0.5165484092469672
1539131513888345,-0.16180666819256873,0.2914473182269015,0.5634241245136185
1539131513904326,-0.15912108033875016,0.26520180056458376,0.6330052643625548
1539131513920307,-0.1450827801937895,0.2334630350194553,0.6940413519493402
1539131513936288,-0.13092240787365528,0.19476615548943332,0.7520256351567864
1539131513952268,-0.1333638513771267,0.15692378118562633,0.830395971618219
1539131513968249,-0.10833905546654465,0.12872510872053144,0.9015640497444117
1539131513984230,-0.09967193102922112,0.11566338597695847,0.953566796368353
1539131514000210,-0.08844129091325259,0.10650797283894065,0.9750514991989014
1539131514016191,-0.09625391012436113,0.08624399176012787,0.9766384374761579
1539131514032172,-0.11346608682383463,0.0831921873807886,0.97773708705272
1539131514048153,-0.10663004501411466,0.08136110475318503,0.9693141069657436
1539131514064133,-0.10955977721828036,0.10174715800717138,0.9532005798428322
1539131514080114,-0.11346608682383463,0.11688410772869418,0.9307392996108952
1539131514096095,-0.12347600518806745,0.130556191348135,0.906324864576181
1539131514112075,-0.12726024261844815,0.1499656672007328,0.8894789044022282
1539131514128056,-0.1190814068818189,0.1642481116960406,0.8885023270008396
1539131514144037,-0.11334401464866106,0.18365758754863837,0.8865491721980625
1539131514160018,-0.1001602197299154,0.20318913557640972,0.8887464713511868
1539131514175994,-0.09015030136568258,0.21222247653925397,0.8932631418326089
1539131514191975,-0.08892957961394687,0.2225986114290075,0.895216296635386
1539131514207956,-0.07403677424277122,0.23028915846494247,0.9024185549706267
1539131514223937,-0.0669565880827041,0.2276035706111239,0.9164568551155874
1539131514239917,-0.06182955672541368,0.23663691157396816,0.9214618142977038
1539131514255898,-0.061097123674372256,0.23004501411459533,0.9489280537117573
1539131514271879,-0.04766918440527945,0.22699320973525605,0.9705348287174793
1539131514287860,-0.03973449301899734,0.2191805905241475,0.9972686350804914
1539131514303840,-0.031189440756847375,0.22113374532692465,1.004226749065385
1539131514319821,-0.02911421377889667,0.21637293049515538,0.9990997177080949
1539131514335802,-0.02777141985198739,0.2188143739986268,0.9846952010376135
1539131514351782,-0.027527275501640247,0.2116121156633861,0.9696803234912643
1539131514367763,-0.025818265049210254,0.206240939955749,0.9584496833752958
1539131514383744,-0.02642862592507811,0.20550850690470757,0.9539330128938737
1539131514399725,-0.01886015106431671,0.1952544441901276,0.9528343633173115
1539131514415705,-0.019226367589837423,0.18597695887693622,0.9479514763103687
1539131514431686,-0.011902037079423167,0.1771877622644391,0.9352559700923173
1539131514447667,-0.016906996261539575,0.18121614404516695,0.9308613717860688
1539131514463647,-0.01239032578011745,0.13482871747921,1.0178988326848248
1539131514479628,-0.011413748378728883,0.13922331578545855,1.0888227664606696
1539131514495605,-0.02386511024643312,0.1642481116960406,1.1038376440070188
1539131514511586,-0.029724574654764524,0.2057526512550547,1.0291294728007934
1539131514527567,-0.03680476081483164,0.2348058289463646,0.933058670939193
1539131514543547,-0.036316472114137355,0.23785763332570387,0.8500495918211639
1539131514559528,-0.030945296406500233,0.21527428091859324,0.8091554131380176
1539131514575509,-0.01898222323949028,0.18194857709620837,0.8231937132829783
1539131514591489,-0.00579842832074462,0.1566796368352792,0.8823987182421611
1539131514607470,-0.001159685664148924,0.15558098725871705,0.9804226749065386
1539131514623451,-0.001037613488975353,0.168398565651942,1.0675822079804682
1539131514639432,-0.0061646448462653325,0.19464408331425975,1.0572060730907147
1539131514655412,-0.008239871824216038,0.2175936522468911,0.9669947356374458
1539131514671393,-0.00970473792629889,0.22418554970626392,0.908033875028611
1539131514687374,-0.003479056992446772,0.2196688792248418,0.9153582055390252
1539131514703354,-0.005310139620050336,0.2057526512550547,0.9610131990539408
1539131514719335,-0.007873655298695326,0.19171435111009405,0.9884794384679942
1539131514735316,-0.008728160524910322,0.19378957808804476,0.9735866330968186
1539131514751297,-0.021057450217440987,0.19891660944533474,0.9346456092164495
1539131514767277,-0.024597543297474544,0.20465400167849257,0.9312275883115895
1539131514783258,-0.0327763790341038,0.2179598687724118,0.9539330128938737
1539131514799239,-0.033752956435492365,0.22613870450904106,0.9671168078126193
1539131514815216,-0.03448538948653379,0.2360265506981003,0.9540550850690472
1539131514831196,-0.03155565728236809,0.239810788128481,0.9378194857709623
1539131514847177,-0.028259708552681673,0.2360265506981003,0.9311055161364159
1539131514863158,-0.02679484245059882,0.23150988021667818,0.9326924544136723
1539131514879139,-0.029724574654764524,0.2305333028152896,0.9300068665598538
1539131514895119,-0.02020294499122599,0.2348058289463646,0.9224383916990924
1539131514911100,-0.017761501487754572,0.24335088120851456,0.9204852368963152
1539131514927081,-0.01361104753185316,0.2558022430762188,0.9153582055390252
1539131514943061,-0.013977264057373873,0.27154955367360945,0.915724422064546
1539131514959042,-0.010437170977340315,0.28363469901579297,0.9093766689555203
1539131514975023,-0.017151140611886717,0.2838788433661401,0.9118181124589917
1539131514991004,-0.015564202334630295,0.2821698329137101,0.9286640726329445
1539131515006984,-0.017151140611886717,0.2818036163881894,0.9374532692454416
1539131515022965,-0.01751735713740743,0.28204776073853655,0.9226825360494395
1539131515038946,-0.019470511940184565,0.2876630807965208,0.9110856794079503
1539131515054926,-0.02008087281605242,0.2909590295262072,0.9217059586480509
1539131515070907,-0.019836728465705278,0.28668650339513224,0.9358663309681852
1539131515086888,-0.017639429312581,0.28705271992065295,0.930495155260548
1539131515102869,-0.01617456321049815,0.29010452429999223,0.9121843289845124
1539131515118849,-0.017151140611886717,0.29303425650415793,0.8942397192339975
1539131515134857,-0.018249790188448856,0.29755092698558006,0.8944838635843446
1539131515150838,-0.02020294499122599,0.29498741130693507,0.9113298237582974
1539131515166818,-0.022400244144350268,0.2894941634241244,0.9254901960784316
1539131515182799,-0.01995880064087885,0.28497749294270225,0.9219501029983981
1539131515198780,-0.02532997634851597,0.2805828946364537,0.914015411612116
1539131515214760,-0.02642862592507811,0.2822919050888837,0.9207293812466624
1539131515230741,-0.02642862592507811,0.2843671320668344,0.9334248874647137
1539131515246722,-0.025940337224383825,0.2871747920958265,0.9337911039902345
1539131515262703,-0.02264438849469741,0.29205767910276936,0.9231708247501338
1539131515278683,-0.022400244144350268,0.2957198443579765,0.9177996490424967
1539131515294664,-0.01751735713740743,0.29633020523384435,0.9147478446631574
1539131515310645,-0.021057450217440987,0.2957198443579765,0.9220721751735717
1539131515326625,-0.021667811093308842,0.29169146257724865,0.9215838864728774
1539131515342606,-0.019104295414663852,0.29010452429999223,0.9190203707942324
1539131515358587,-0.024475471122300974,0.2848554207675287,0.9224383916990924
1539131515374568,-0.02398718242160669,0.28204776073853655,0.9328145265888459
1539131515390548,-0.02423132677195383,0.2850995651178758,0.9278095674067295
1539131515406529,-0.026062409399557396,0.2926680399786372,0.9173113603418024
1539131515422510,-0.025574120698863112,0.2881513694972151,0.9204852368963152
1539131515438490,-0.0252079041733424,0.281925688563363,0.9256122682536052
1539131515454467,-0.025940337224383825,0.2843671320668344,0.9152361333638517
1539131515470448,-0.025085831998168828,0.2898603799496451,0.9090104524299996
1539131515486429,-0.028625925078202386,0.28754100862134724,0.9141374837872895
1539131515502410,-0.025940337224383825,0.2864423590447851,0.9203631647211417
1539131515518390,-0.026306553749904538,0.29047074082551294,0.9164568551155874
1539131515534371,-0.02386511024643312,0.2957198443579765,0.9099870298313881
1539131515550352,-0.021667811093308842,0.2931563286793315,0.9163347829404138
1539131515566332,-0.0252079041733424,0.28583199816891725,0.9231708247501338
1539131515582313,-0.025085831998168828,0.27582207980468443,0.916578927290761
1539131515598294,-0.023132677195391693,0.275089646753643,0.9116960402838181
1539131515614275,-0.023132677195391693,0.28448920424200796,0.9116960402838181
1539131515630255,-0.02777141985198739,0.2918135347524222,0.9192645151445795
1539131515646236,-0.02789349202716096,0.29254596780346365,0.9188982986190588
1539131515662217,-0.030823224231326662,0.28827344167238866,0.9176775768673231
1539131515678197,-0.02923628595407024,0.28375677119096654,0.9212176699473567
1539131515694178,-0.03143358510719452,0.27911802853437084,0.9254901960784316
1539131515710159,-0.028137636377508102,0.2800946059357594,0.9254901960784316
1539131515726140,-0.029968719005111666,0.2872968642710001,0.9229266803997866
1539131515742120,-0.029724574654764524,0.2955977721828029,0.9252460517280845
1539131515758101,-0.02923628595407024,0.29755092698558006,0.9254901960784316
1539131515774078,-0.027527275501640247,0.2955977721828029,0.9247577630273902
1539131515790059,-0.029480430304417382,0.2848554207675287,0.9275654230563823
1539131515806039,-0.028137636377508102,0.2789959563591973,0.9251239795529109
1539131515822020,-0.029480430304417382,0.27411306935225443,0.9220721751735717
1539131515838001,-0.031311512932020946,0.2746013580529487,0.9219501029983981
1539131515853982,-0.032288090333409514,0.279362172884718,0.9241474021515224
1539131515869962,-0.03472953383688093,0.2800946059357594,0.9273212787060352
1539131515885943,-0.033752956435492365,0.279362172884718,0.9253681239032581
1539131515901924,-0.03167772945754166,0.273380636301213,0.9169451438162817
1539131515917904,-0.030090791180285237,0.27447928587777515,0.9209735255970095
1539131515933885,-0.0319218738078888,0.27985046158541227,0.9176775768673231
1539131515949866,-0.032532234683756656,0.2855878538185701,0.9169451438162817
1539131515965847,-0.030823224231326662,0.2857099259937437,0.914869916838331
1539131515981827,-0.03179980163271523,0.2885175860227358,0.9177996490424967
1539131515997808,-0.0289921416037231,0.2835126268406194,0.918287937743191
1539131516013789,-0.03057907988097952,0.2754558632791637,0.9163347829404138
1539131516029770,-0.023132677195391693,0.2737468528267337,0.9160906385900667
1539131516045750,-0.0214236667429617,0.2864423590447851,0.9201190203707945
1539131516061731,-0.018127718013275285,0.305241474021515,0.9091325246051731
1539131516077712,-0.019104295414663852,0.31317616540779714,0.905470359349966
1539131516093658,-0.02008087281605242,0.3062180514229036,0.9113298237582974
1539131516109639,-0.025818265049210254,0.29083695735103365,0.9220721751735717
1539131516125620,-0.028137636377508102,0.2792401007095444,0.9314717326619366
1539131516141600,-0.03338673990997165,0.2781414511329823,0.931349660486763
1539131516157581,-0.0357061112382695,0.28241397726405726,0.930495155260548
1539131516173562,-0.037659266041046635,0.2835126268406194,0.9252460517280845
1539131516189542,-0.03595025558861664,0.28534370946822296,0.9181658655680174
1539131516205523,-0.034851606012054503,0.2872968642710001,0.9203631647211417
1539131516221504,-0.03338673990997165,0.2859540703440908,0.9240253299763488
1539131516237485,-0.03350881208514522,0.2840009155413137,0.9181658655680174
1539131516253465,-0.03265430685893023,0.2831464103150987,0.9152361333638517
1539131516269446,-0.031311512932020946,0.2847333485923551,0.9184100099183645
1539131516285427,-0.028747997253375956,0.2907148851758601,0.9160906385900667
1539131516301407,-0.02923628595407024,0.2991378652628365,0.9137712672617688
1539131516317388,-0.03302052338445094,0.30255588616769646,0.9264667734798202
1539131516333369,-0.028625925078202386,0.2995040817883572,0.928786144808118
1539131516349350,-0.025818265049210254,0.2905928130006865,0.9176775768673231
1539131516365330,-0.02276646066987098,0.2855878538185701,0.9104753185320824
1539131516381311,-0.018005645838101714,0.28534370946822296,0.9069352254520489
1539131516397292,-0.014587624933241727,0.2907148851758601,0.902906843671321
1539131516413269,-0.01495384145876244,0.2985275043869686,0.9030289158464946
1539131516429249,-0.01373311970702673,0.3014572365911343,0.9091325246051731
1539131516445230,-0.015930418860151008,0.2999923704890515,0.9180437933928438
1539131516461211,-0.019714656290531707,0.29596398870832363,0.9213397421225302
1539131516477192,-0.021179522392614558,0.2957198443579765,0.9252460517280845
1539131516493172,-0.02154573891813527,0.3029221026932172,0.9333028152895402
1539131516509153,-0.021179522392614558,0.3132982375829707,0.9331807431143666
1539131516525134,-0.025085831998168828,0.3107347219043257,0.9231708247501338
1539131516541114,-0.026062409399557396,0.2947432669565879,0.9175555046921495
1539131516557095,-0.030090791180285237,0.2680094605935759,0.9289082169832916
1539131516573076,-0.03045700770580595,0.25421530479896237,0.9361104753185323
1539131516589057,-0.029480430304417382,0.25592431525139236,0.9261005569542995
1539131516605037,-0.03033493553063238,0.26068513008316163,0.9138933394369424
1539131516621018,-0.026184481574730967,0.26776531624322875,0.9082780193789581
1539131516636999,-0.028137636377508102,0.271671625848783,0.9085221637293053
1539131516652979,-0.028137636377508102,0.27997253376058584,0.908033875028611
1539131516668960,-0.02679484245059882,0.2888838025482565,0.9129167620355538
1539131516684941,-0.024353398947127403,0.29889372091248934,0.914015411612116
1539131516700922,-0.022400244144350268,0.3058518348973829,0.910597390707256
1539131516716902,-0.02252231631952384,0.30646219577325073,0.915724422064546
1539131516732879,-0.019836728465705278,0.29755092698558006,0.9176775768673231
1539131516748860,-0.01605249103532458,0.2788738841840237,0.9204852368963152
1539131516764841,-0.021789883268482413,0.24127565423056385,0.9282978561074238
1539131516780821,-0.02935835812924381,0.20404364080262472,0.9413595788509959
1539131516796802,-0.0327763790341038,0.19305714503700333,0.9412375066758223
1539131516812783,-0.0365606164644845,0.207095445181964,0.9336690318150609
1539131516828764,-0.03704890516517878,0.23712520027466244,0.9281757839322502
1539131516844744,-0.0327763790341038,0.2578774700541695,0.9269550621805145
1539131516860725,-0.033752956435492365,0.2609292744335088,0.9290302891584652
1539131516876706,-0.032410162508583085,0.2515297169451438,0.9323262378881516
1539131516892686,-0.03216601815823594,0.24628061341268026,0.9325703822384988
1539131516908667,-0.033875028610665936,0.24591439688715955,0.9367208361944002
1539131516924648,-0.03338673990997165,0.25470359349965666,0.9383077744716566
1539131516940629,-0.031189440756847375,0.2659342336156252,0.9406271457999544
1539131516956609,-0.031189440756847375,0.2766765850308994,0.9367208361944002
1539131516972590,-0.03033493553063238,0.2818036163881894,0.933058670939193
1539131516988571,-0.02777141985198739,0.27740901808194085,0.9312275883115895
1539131517004552,-0.028870069428549527,0.27020675974670016,0.9264667734798202
1539131517020532,-0.027649347676813818,0.2671549553673609,0.9263447013046466
1539131517036513,-0.028747997253375956,0.26935225452048517,0.9243915465018695
1539131517052520,-0.03265430685893023,0.27399099717708086,0.9273212787060352
1539131517068501,-0.03399710078583951,0.2763103685053787,0.9264667734798202
1539131517084482,-0.03436331731136022,0.27484550240329586,0.9315938048371102
1539131517100463,-0.036316472114137355,0.2728923476005187,0.9372091248950944
1539131517116443,-0.03546196688792236,0.2746013580529487,0.9363546196688795
1539131517132424,-0.035095750362401645,0.2571450370031281,0.9394064240482187
1539131517148405,-0.036194399938963784,0.24432745860990313,0.9317158770122838
1539131517164385,-0.03790341039139378,0.238101777676051,0.9291523613336388
1539131517180366,-0.036438544289310926,0.2453040360112917,0.9242694743266959
1539131517196347,-0.03814755474174092,0.25885404745555807,0.917433432516976
1539131517212328,-0.0394903486686502,0.26349279011215376,0.9116960402838181
1539131517228308,-0.04046692607003877,0.2645914396887159,0.9153582055390252
1539131517244289,-0.03790341039139378,0.2642252231631952,0.9160906385900667
1539131517260270,-0.03985656519417091,0.27118333714808873,0.9116960402838181
1539131517276250,-0.03741512169069949,0.275944151979858,0.9130388342107274
1539131517292231,-0.03533989471274879,0.2695963988708323,0.9187762264438852
1539131517308212,-0.034973678187228074,0.2553139543755245,0.9253681239032581
1539131517324193,-0.031067368581673804,0.24286259250782027,0.9279316395819031
1539131517340173,-0.030945296406500233,0.243228809033341,0.9263447013046466
1539131517356154,-0.03204394598306237,0.25214007782101167,0.9245136186770431
1539131517372131,-0.03399710078583951,0.2638590066376745,0.9207293812466624
1539131517388112,-0.03033493553063238,0.27496757457846943,0.9203631647211417
1539131517404092,-0.028381780727855244,0.2752117189288166,0.9235370412756545
1539131517420073,-0.024597543297474544,0.27948424505989156,0.9236591134508281
1539131517436054,-0.026306553749904538,0.2805828946364537,0.919996948195621
1539131517452035,-0.028625925078202386,0.280216678110933,0.9153582055390252
1539131517468015,-0.03204394598306237,0.275089646753643,0.9146257724879838
1539131517483996,-0.03595025558861664,0.2658121614404516,0.9177996490424967
1539131517499977,-0.03936827649347663,0.2575112535286488,0.9273212787060352
1539131517515957,-0.0432745860990309,0.2532387273975738,0.9320820935378045
1539131517531938,-0.046570534828717314,0.24872205691615168,0.9408712901503016
1539131517547919,-0.04583810177767589,0.24921034561684596,0.9389181353475244
1539131517563900,-0.0432745860990309,0.2528725108720531,0.9315938048371102
1539131517579880,-0.04132143129625376,0.25775539787899593,0.9278095674067295
1539131517595861,-0.04351873044937804,0.2594644083314259,0.9309834439612423
1539131517611842,-0.04217593652246876,0.25299458304722666,0.9350118257419702
1539131517627823,-0.04205386434729519,0.2511635004196231,0.9256122682536052
1539131517643803,-0.038879987792782345,0.25091935606927596,0.9209735255970095
1539131517659784,-0.0424200808728159,0.25897611963073164,0.9206073090714888
1539131517675765,-0.04046692607003877,0.2658121614404516,0.9190203707942324
1539131517691742,-0.03936827649347663,0.2709391927977416,0.9212176699473567
1539131517707722,-0.0365606164644845,0.27362478065156015,0.9279316395819031
1539131517723703,-0.0357061112382695,0.27692072938124657,0.9312275883115895
1539131517739684,-0.0327763790341038,0.275089646753643,0.9234149691004809
1539131517755664,-0.031189440756847375,0.26813153276874946,0.9241474021515224
1539131517771645,-0.02923628595407024,0.2592202639810788,0.9306172274357216
1539131517787626,-0.03814755474174092,0.2609292744335088,0.9461203936827651
1539131517803607,-0.03167772945754166,0.27191577019913016,0.9306172274357216
1539131517819587,-0.03314259555962451,0.2780193789578087,0.9103532463569088
1539131517835568,-0.03338673990997165,0.2840009155413137,0.9073014419775696
1539131517851549,-0.034851606012054503,0.2814373998626687,0.9181658655680174
1539131517867529,-0.04058899824521234,0.2755779354543373,0.9185320820935381
1539131517883510,-0.04107728694590662,0.2692301823453116,0.9214618142977038
1539131517899491,-0.04132143129625376,0.26019684138246735,0.929640650034333
1539131517915472,-0.0424200808728159,0.25641260395208665,0.9289082169832916
1539131517931452,-0.04119935912108019,0.2553139543755245,0.9264667734798202
1539131517947433,-0.036194399938963784,0.2611734187838559,0.9251239795529109
1539131517963414,-0.0357061112382695,0.27032883192187374,0.9247577630273902
1539131517979395,-0.0327763790341038,0.2780193789578087,0.9250019073777374
1539131517995375,-0.0319218738078888,0.2848554207675287,0.929640650034333
1539131518011352,-0.028381780727855244,0.28448920424200796,0.9329365987640195
1539131518027333,-0.03155565728236809,0.28033875028610655,0.9348897535667966
1539131518043314,-0.03143358510719452,0.276798657206073,0.932204165712978
1539131518059294,-0.036316472114137355,0.26898603799496446,0.9309834439612423
1539131518075275,-0.03692683299000521,0.26434729533836876,0.9221942473487452
1539131518091256,-0.04046692607003877,0.2554360265506981,0.9177996490424967
1539131518107236,-0.03924620431830306,0.2410315098802167,0.9167009994659345
1539131518123217,-0.0394903486686502,0.23248645761806674,0.9215838864728774
1539131518139198,-0.03729304951552592,0.23553826199740602,0.9202410925459681
1539131518155179,-0.03839169909208806,0.242374303807126,0.919996948195621
1539131518171159,-0.03802548256656735,0.2465247577630274,0.9232928969253074
1539131518187140,-0.041565575646600905,0.24969863431754025,0.9256122682536052
1539131518203121,-0.03851377126726163,0.25262836652170595,0.9274433508812088
1539131518219102,-0.040222781719691625,0.2571450370031281,0.9341573205157552
1539131518235082,-0.04095521477073305,0.25506981002517737,0.9405050736247809
1539131518251063,-0.04046692607003877,0.2575112535286488,0.9336690318150609
1539131518267044,-0.04046692607003877,0.2609292744335088,0.9363546196688795
1539131518283024,-0.03851377126726163,0.2663004501411459,0.9337911039902345
1539131518299005,-0.03680476081483164,0.26434729533836876,0.9307392996108952
1539131518314986,-0.03717097734035235,0.2603189135576409,0.9282978561074238
1539131518330963,-0.035095750362401645,0.25433737697413594,0.9300068665598538
1539131518346943,-0.036194399938963784,0.2565346761272602,0.9264667734798202
1539131518362924,-0.03802548256656735,0.2604409857328145,0.9231708247501338
1539131518378905,-0.03802548256656735,0.26178377965972377,0.9226825360494395
1539131518394886,-0.03826962691691449,0.25506981002517737,0.9218280308232245
1539131518410866,-0.03802548256656735,0.24921034561684596,0.9251239795529109
1539131518426847,-0.03680476081483164,0.2527504386968795,0.9221942473487452
1539131518442828,-0.03558403906309593,0.25592431525139236,0.9229266803997866
1539131518458809,-0.03436331731136022,0.2583657587548638,0.9250019073777374
1539131518474789,-0.03326466773479808,0.25885404745555807,0.9307392996108952
1539131518490770,-0.03326466773479808,0.26691081101701375,0.9286640726329445
1539131518506751,-0.03411917296101308,0.27020675974670016,0.9262226291294731
1539131518522731,-0.036438544289310926,0.2667887388418402,0.9320820935378045
1539131518538712,-0.03741512169069949,0.26263828488593877,0.9320820935378045
1539131518554693,-0.03851377126726163,0.25384908827344166,0.9293965056839859
1539131518570674,-0.03997863736934448,0.2503089951934081,0.9311055161364159
1539131518586654,-0.03924620431830306,0.2506752117189288,0.9289082169832916
1539131518602635,-0.03826962691691449,0.25140764476997024,0.9281757839322502
1539131518618616,-0.03436331731136022,0.2554360265506981,0.931349660486763
1539131518634596,-0.03704890516517878,0.2608072022583352,0.9329365987640195
1539131518650604,-0.03314259555962451,0.26520180056458376,0.9269550621805145
1539131518666585,-0.034851606012054503,0.2658121614404516,0.9215838864728774
1539131518682565,-0.03839169909208806,0.2582436865796902,0.9212176699473567
1539131518698546,-0.03985656519417091,0.2533607995727474,0.9231708247501338
1539131518714527,-0.03839169909208806,0.25299458304722666,0.9219501029983981
1539131518730507,-0.03790341039139378,0.2536049439230945,0.9207293812466624
1539131518746488,-0.03924620431830306,0.25690089265278093,0.9228046082246131
1539131518762469,-0.03985656519417091,0.2603189135576409,0.9230487525749602
1539131518778450,-0.04205386434729519,0.2641031509880216,0.9239032578011752
1539131518794430,-0.0394903486686502,0.2641031509880216,0.9279316395819031
1539131518810411,-0.0394903486686502,0.2609292744335088,0.9328145265888459
1539131518826392,-0.03790341039139378,0.24896620126649882,0.9320820935378045
1539131518842373,-0.03680476081483164,0.238101777676051,0.938185702296483
1539131518858353,-0.037781338216220206,0.23504997329671173,0.939894712748913
1539131518874334,-0.037781338216220206,0.2477454795147631,0.9370870527199209
1539131518890315,-0.03826962691691449,0.26569008926527804,0.9318379491874573
1539131518906295,-0.03790341039139378,0.2754558632791637,0.9290302891584652
1539131518922276,-0.037781338216220206,0.27118333714808873,0.9268329900053409
1539131518938257,-0.03717097734035235,0.26056305790798806,0.9262226291294731
1539131518954238,-0.03802548256656735,0.25177386129549095,0.9263447013046466
1539131518970184,-0.04071107042038591,0.25299458304722666,0.9237811856260016
1539131518986165,-0.04254215304798947,0.26178377965972377,0.9259784847791259
1539131519002145,-0.04119935912108019,0.26178377965972377,0.9292744335088123
1539131519018126,-0.03961242084382377,0.25604638742656594,0.9307392996108952
1539131519034107,-0.03839169909208806,0.25397116044861523,0.9253681239032581
1539131519050088,-0.03802548256656735,0.2583657587548638,0.9177996490424967
1539131519066068,-0.040100709544518054,0.26349279011215376,0.9159685664148931
1539131519082049,-0.0424200808728159,0.2611734187838559,0.9156023498893724
1539131519098030,-0.04449530785076661,0.2583657587548638,0.9240253299763488
1539131519114010,-0.04449530785076661,0.2536049439230945,0.9363546196688795
1539131519129991,-0.044129091325245895,0.24676890211337454,0.940749217975128
1539131519145972,-0.036438544289310926,0.23968871595330743,0.9303730830853745
1539131519161953,-0.03582818341344307,0.24090943770504314,0.9253681239032581
1539131519177933,-0.034851606012054503,0.2528725108720531,0.9264667734798202
1539131519193914,-0.03717097734035235,0.26190585183489734,0.9337911039902345
1539131519209895,-0.03582818341344307,0.2641031509880216,0.9265888456549938
1539131519225875,-0.036438544289310926,0.2603189135576409,0.9242694743266959
1539131519241856,-0.0357061112382695,0.25970855268177306,0.9234149691004809
1539131519257837,-0.037537193865873064,0.2611734187838559,0.9268329900053409
1539131519273818,-0.04254215304798947,0.2571450370031281,0.9292744335088123
1539131519289795,-0.0432745860990309,0.2494544899671931,0.9315938048371102
1539131519305775,-0.04632639047837017,0.24164187075608456,0.9344014648661023
1539131519321756,-0.04388494697489875,0.240665293354696,0.9344014648661023
1539131519337737,-0.0432745860990309,0.25299458304722666,0.930495155260548
1539131519353717,-0.04119935912108019,0.26446936751354233,0.9284199282825973
1539131519369698,-0.04046692607003877,0.2663004501411459,0.9301289387350273
1539131519385679,-0.039002059967955915,0.2536049439230945,0.9308613717860688
1539131519401660,-0.037537193865873064,0.24225223163195242,0.9319600213626309
1539131519417640,-0.04083314259555948,0.237247272449836,0.931349660486763
1539131519433621,-0.04119935912108019,0.239810788128481,0.9331807431143666
1539131519449602,-0.042664225223163044,0.24518196383611812,0.9270771343556881
1539131519465582,-0.042908369573510186,0.2537270160982681,0.9258564126039524
1539131519481563,-0.04193179217212162,0.2549477378500038,0.9273212787060352
1539131519497544,-0.044251163500419466,0.2549477378500038,0.929640650034333
1539131519513525,-0.04388494697489875,0.2473792629892424,0.9291523613336388
1539131519529505,-0.04315251392385733,0.2456702525368124,0.9286640726329445
1539131519545486,-0.044007019150072324,0.2506752117189288,0.9264667734798202
1539131519561467,-0.04351873044937804,0.2571450370031281,0.9309834439612423
1539131519577448,-0.04315251392385733,0.2586099031052109,0.9341573205157552
1539131519593428,-0.03936827649347663,0.25397116044861523,0.934767681391623
1539131519609405,-0.038879987792782345,0.24872205691615168,0.9329365987640195
1539131519625386,-0.03814755474174092,0.2516517891203174,0.928786144808118
1539131519641367,-0.040100709544518054,0.2485999847409781,0.9252460517280845
1539131519657347,-0.04107728694590662,0.24603646906233312,0.9229266803997866
1539131519673328,-0.04339665827420447,0.24420538643472955,0.9256122682536052
1539131519689309,-0.04254215304798947,0.24383916990920884,0.9314717326619366
1539131519705289,-0.04730296787975874,0.24383916990920884,0.9365987640192266
1539131519721270,-0.046692607003890885,0.24493781948577098,0.9342793926909287
1539131519737251,-0.04388494697489875,0.2473792629892424,0.9281757839322502
1539131519753232,-0.04205386434729519,0.24762340733958954,0.9237811856260016
1539131519769212,-0.041687647821774476,0.24750133516441597,0.9262226291294731
1539131519785193,-0.04193179217212162,0.24689097428854812,0.9273212787060352
1539131519801174,-0.04132143129625376,0.24383916990920884,0.9262226291294731
1539131519817155,-0.038757915617608774,0.24896620126649882,0.9251239795529109
1539131519833135,-0.037659266041046635,0.2571450370031281,0.9228046082246131
1539131519849116,-0.04058899824521234,0.26227206836041805,0.929640650034333
1539131519865097,-0.041443503471427334,0.25812161440451664,0.9328145265888459
1539131519881077,-0.04583810177767589,0.2503089951934081,0.9281757839322502
1539131519897058,-0.044007019150072324,0.23700312809948887,0.9314717326619366
1539131519913039,-0.04962233920805659,0.2334630350194553,0.9403830014496073
1539131519929016,-0.04132143129625376,0.23492790112153816,0.9375753414206152
1539131519944996,-0.04095521477073305,0.24261844815747313,0.9265888456549938
1539131519960977,-0.04339665827420447,0.24042114900434886,0.9286640726329445
1539131519976958,-0.04888990615701516,0.23077744716563675,0.9383077744716566
1539131519992939,-0.040100709544518054,0.21222247653925397,0.9481956206607158
1539131520008919,-0.03802548256656735,0.204531929503319,0.9451438162813766
1539131520024900,-0.03802548256656735,0.2086823834592204,0.9434348058289466
1539131520040881,-0.042908369573510186,0.21844815747310609,0.9370870527199209
1539131520056862,-0.0432745860990309,0.23126573586633103,0.9324483100633252
1539131520072842,-0.04437323567559304,0.24005493247882814,0.9279316395819031
1539131520088823,-0.042664225223163044,0.24469367513542384,0.9290302891584652
1539131520104804,-0.041565575646600905,0.2456702525368124,0.9270771343556881
1539131520120784,-0.04180971999694805,0.2510414282444495,0.9262226291294731
1539131520136765,-0.04461738002594018,0.2545815213244831,0.9300068665598538
1539131520152746,-0.045349813076981604,0.2575112535286488,0.9289082169832916
1539131520168727,-0.04827954528114731,0.2583657587548638,0.9317158770122838
1539131520184707,-0.04522774090180803,0.25262836652170595,0.9302510109102009
1539131520200688,-0.04461738002594018,0.24847791256580454,0.9292744335088123
