Timestamp (microseconds),Gyro X (°/s),Gyro Y (°/s),Gyro Z (°/s)
1539131495317962,10.711833371480907,3.0212863355459376,-1.8005645838102282
1539131495333958,11.01701380941472,3.997863736934505,-0.6408789196611906
1539131495349954,12.115663385976859,5.096513313496644,0.5798428320745188
1539131495365950,11.07804989700162,4.669260700389032,1.1291676203554744
1539131495381946,5.0354772259097444,3.3875028610666504,0.7629510948347615
1539131495397942,-0.2746623941404778,2.5940337224383256,0.09155413138023505
1539131495413938,-2.9602502479590385,2.4719615472647547,-1.3733119707026162
1539131495429934,-3.692683299000464,2.410925459678083,-2.532997634851654
1539131495445930,-1.739528496223329,2.3498893720911838,-2.8381780727854675
1539131495461926,4.791332875562603,2.5940337224383256,-3.1433585107195086
1539131495477922,8.880750743877343,1.3733119707026162,-3.875791561760934
1539131495493918,8.33142595559616,-0.7019150072480898,-4.791332875562603
1539131495509914,6.622415503166167,-1.739528496223329,-3.997863736934505
1539131495525910,5.889982452124741,-2.166781109330941,-2.655069810025225
1539131495541906,5.645838101777599,-2.105745021744042,-2.288853284504512
1539131495557902,6.500343327992596,-1.3122758831159445,-1.6784924086366573
1539131495573898,7.2938124666209205,-0.213626306553806,-0.8850232700083325
1539131495589894,8.697642481116873,0.33569848172737693,-0.213626306553806
1539131495605890,9.063859006637585,0.7019150072480898,-0.5798428320745188
1539131495621886,8.51453421835663,0.8850232700083325,-1.2512397955290453
1539131495637878,8.6366063935302,1.0681315327688026,-1.4953841458761872
1539131495653874,9.430075532158298,1.1291676203554744,-1.3122758831159445
1539131495669870,6.683451590753066,0.8850232700083325,-1.2512397955290453
1539131495685866,3.6316472114137923,0.7019150072480898,-1.6784924086366573
1539131495701862,-0.3967345693140487,0.15259021896690683,-2.227817196917613
1539131495717858,2.166781109330941,-0.15259021896690683,-2.3498893720911838
1539131495733854,5.523765926604028,-0.15259021896690683,-1.4953841458761872
1539131495749850,7.598992904554734,-0.03051804379333589,-0.7019150072480898
1539131495765846,8.087281605249018,0.213626306553806,0.03051804379333589
1539131495781842,8.270389868009488,1.0070954451819034,-0.33569848172737693
1539131495797838,9.85732814526591,1.6784924086366573,-0.7629510948347615
1539131495813834,8.941786831464015,1.6784924086366573,-1.2512397955290453
1539131495829830,6.8665598535133086,1.4953841458761872,-1.6784924086366573
1539131495845826,4.547188525215461,1.3733119707026162,-1.739528496223329
1539131495861822,0.5188067444876197,1.8616006713969,-2.3498893720911838
1539131495877818,-2.5940337224383256,1.9226367589837992,-2.7771419851987957
1539131495893814,-1.9226367589837992,2.3498893720911838,-2.410925459678083
1539131495909810,0.2746623941404778,2.166781109330941,-2.04470893415737
1539131495925806,0.213626306553806,1.6784924086366573,-1.9226367589837992
1539131495941802,-0.213626306553806,1.3733119707026162,-1.1902037079423735
1539131495957794,-0.5798428320745188,0.8850232700083325,-0.2746623941404778
1539131495973790,0.9460593575952316,0.5798428320745188,0.8239871824216607
1539131495989786,4.303044174868319,0.3967345693140487,1.8005645838102282
1539131496005782,5.76791027695117,-0.03051804379333589,1.8616006713969
1539131496021778,4.486152437628789,-0.45777065690094787,1.8616006713969
1539131496037774,0.7019150072480898,-0.45777065690094787,1.983672846570471
1539131496053770,-3.7537193865873633,0.2746623941404778,1.9226367589837992
1539131496069766,-6.9886320286868795,0.6408789196611906,1.9226367589837992
1539131496085762,-9.796292057679011,0.6408789196611906,1.8005645838102282
1539131496101758,-15.167467765316132,0.09155413138023505,1.2512397955290453
1539131496117754,-22.61387045090396,-0.7629510948347615,0.6408789196611906
1539131496133750,-27.679865720607268,-1.739528496223329,0.8239871824216607
1539131496149746,-28.229190508888223,-2.166781109330941,1.2512397955290453
1539131496165742,-22.49179827573039,-2.410925459678083,1.6784924086366573
1539131496181738,-13.702601663233281,-2.288853284504512,2.105745021744042
1539131496197734,-4.9134050507361735,-1.9226367589837992,2.4719615472647547
1539131496213729,-0.03051804379333589,-1.5564202334630863,2.532997634851654
1539131496229725,1.0681315327688026,-1.3733119707026162,2.4719615472647547
1539131496245721,-1.3122758831159445,-1.0070954451819034,2.227817196917613
1539131496261717,-1.1902037079423735,-0.5798428320745188,2.288853284504512
1539131496277435,0.45777065690094787,-0.2746623941404778,3.0212863355459376
1539131496293429,3.7537193865873633,0.2746623941404778,3.814755474174035
1539131496309424,5.401693751430457,0.33569848172737693,4.42511635004189
1539131496325419,4.547188525215461,0.7019150072480898,4.60822461280236
1539131496341413,3.5095750362402214,1.6174563210497581,4.42511635004189
1539131496357408,-0.03051804379333589,2.166781109330941,4.119935912108076
1539131496373402,-7.904173342488775,2.5940337224383256,4.42511635004189
1539131496389397,-22.73594262607753,2.9602502479590385,4.058899824521177
1539131496405391,-29.755092698557974,2.9602502479590385,2.7161058976118966
1539131496421386,-32.99000534065772,2.7161058976118966,1.983672846570471
1539131496437380,-31.830319676508907,2.4719615472647547,1.4343480582895154
1539131496453375,-24.994277866788707,1.739528496223329,0.8239871824216607
1539131496469370,-16.44922560463874,1.1902037079423735,1.0681315327688026
1539131496485364,-9.246967269398056,0.9460593575952316,1.6784924086366573
1539131496501359,-2.8381780727854675,0.8850232700083325,2.227817196917613
1539131496517353,0.33569848172737693,0.9460593575952316,2.3498893720911838
1539131496533348,1.3122758831159445,0.8850232700083325,1.9226367589837992
1539131496549342,1.983672846570471,0.33569848172737693,1.2512397955290453
1539131496565337,4.180971999694748,-0.09155413138023505,0.6408789196611906
1539131496581331,6.378271152819025,-0.5188067444876197,0.2746623941404778
1539131496597046,5.462729839017356,-0.6408789196611906,-0.09155413138023505
1539131496613039,2.7771419851987957,-0.7629510948347615,-0.213626306553806
1539131496629033,0.213626306553806,-0.7629510948347615,-0.45777065690094787
1539131496645026,-1.0681315327688026,-0.45777065690094787,-0.7019150072480898
1539131496661020,-2.3498893720911838,-0.213626306553806,-0.7019150072480898
1539131496677013,-4.852368963149502,-0.09155413138023505,-0.7019150072480898
1539131496693007,-6.927595941100208,0.2746623941404778,-0.5798428320745188
1539131496709001,-6.195162890058782,0.5798428320745188,-0.15259021896690683
1539131496724994,-5.2185854886702145,1.1291676203554744,-0.09155413138023505
1539131496740988,-5.096513313496644,1.3733119707026162,-0.3967345693140487
1539131496756981,-4.730296787975931,1.1902037079423735,-0.6408789196611906
1539131496772975,-5.889982452124741,0.8239871824216607,-0.5188067444876197
1539131496788969,-6.8665598535133086,0.6408789196611906,-0.5188067444876197
1539131496804962,-6.012054627298312,0.8239871824216607,-0.33569848172737693
1539131496820956,-3.7537193865873633,1.3733119707026162,0.09155413138023505
1539131496836949,-3.0823224231326094,1.739528496223329,0.2746623941404778
1539131496852943,-2.227817196917613,1.9226367589837992,0.45777065690094787
1539131496868937,-2.227817196917613,2.3498893720911838,0.33569848172737693
1539131496884930,-3.2654306858930795,2.5940337224383256,-0.03051804379333589
1539131496900924,-4.730296787975931,2.7161058976118966,-0.5188067444876197
1539131496916717,-9.796292057679011,2.410925459678083,-1.3122758831159445
1539131496932710,-16.754406042572555,1.8005645838102282,-2.8381780727854675
1539131496948702,-18.524452582589447,0.9460593575952316,-3.936827649347606
1539131496964695,-13.153276874952326,0.3967345693140487,-3.875791561760934
1539131496980688,-5.3406576638437855,0.03051804379333589,-3.2043945983061803
1539131496996680,2.166781109330941,0.03051804379333589,-1.6784924086366573
1539131497012673,9.613183794918768,0.7629510948347615,-0.45777065690094787
1539131497028666,13.275349050125897,1.0070954451819034,0.213626306553806
1539131497044658,13.031204699778755,0.7019150072480898,0.213626306553806
1539131497060651,10.89494163424115,0.5798428320745188,0.09155413138023505
1539131497076644,8.697642481116873,0.9460593575952316,-0.15259021896690683
1539131497092636,10.89494163424115,1.8616006713969,-0.213626306553806
1539131497108629,18.097199969481835,2.8992141603723667,0.5798428320745188
1539131497124621,25.909819180590375,3.7537193865873633,1.4953841458761872
1539131497140614,33.96658274204606,4.730296787975931,1.4953841458761872
1539131497156607,37.506675822079615,5.0354772259097444,1.3733119707026162
1539131497172599,32.379644464789635,3.936827649347606,1.4343480582895154
1539131497188592,20.538643472953254,2.288853284504512,2.105745021744042
1539131497204585,9.369039444571627,0.5188067444876197,1.1902037079423735
1539131497220577,2.227817196917613,1.0681315327688026,0.3967345693140487
1539131497236358,3.0823224231326094,1.8005645838102282,0.7019150072480898
1539131497252350,8.575570305943302,2.5940337224383256,1.739528496223329
1539131497268342,14.312962539101136,3.692683299000464,2.8992141603723667
1539131497284333,16.32715342946517,3.936827649347606,3.6316472114137923
1539131497300325,13.031204699778755,3.6316472114137923,3.7537193865873633
1539131497316317,4.791332875562603,3.5095750362402214,2.288853284504512
1539131497332308,-4.180971999694748,3.4485389486533222,0.7019150072480898
1539131497348300,-11.07804989700162,2.8992141603723667,-0.15259021896690683
1539131497364292,-13.64156557564661,3.0823224231326094,-0.8850232700083325
1539131497380283,-10.040436408026153,2.532997634851654,-0.8239871824216607
1539131497396275,-3.2654306858930795,2.105745021744042,-0.03051804379333589
1539131497412267,2.288853284504512,2.105745021744042,0.7629510948347615
1539131497428259,2.8992141603723667,1.983672846570471,1.2512397955290453
1539131497444250,1.0070954451819034,2.04470893415737,1.3733119707026162
1539131497460242,-2.655069810025225,1.9226367589837992,1.1291676203554744
1539131497476234,-9.430075532158298,1.4343480582895154,0.15259021896690683
1539131497492225,-20.904859998473967,0.6408789196611906,-1.3733119707026162
1539131497508217,-30.30441748683893,0.15259021896690683,-2.7771419851987957
1539131497524209,-36.530098420691274,-0.5798428320745188,-3.6316472114137923
1539131497540200,-39.093614099336264,-0.8239871824216607,-3.7537193865873633
1539131497555969,-33.41725795376533,0.8239871824216607,-3.2654306858930795
1539131497571960,-26.214999618524416,2.3498893720911838,-2.105745021744042
1539131497587951,-18.58548867017612,3.875791561760934,-0.5798428320745188
1539131497603942,-8.758678568703772,4.9134050507361735,1.3733119707026162
1539131497619934,0.6408789196611906,5.0354772259097444,3.0212863355459376
1539131497635925,7.4158846417944915,4.486152437628789,3.7537193865873633
1539131497651916,10.223544670786623,3.3264667734797513,3.692683299000464
1539131497667907,10.467689021133765,2.532997634851654,2.7161058976118966
1539131497683899,7.965209430075447,1.739528496223329,1.2512397955290453
1539131497699890,4.730296787975931,1.0681315327688026,-0.03051804379333589
1539131497715881,3.2043945983061803,0.6408789196611906,-0.45777065690094787
1539131497731872,4.730296787975931,0.5188067444876197,-0.15259021896690683
1539131497747863,6.927595941100208,0.2746623941404778,-0.03051804379333589
1539131497763855,5.95101853971164,0.15259021896690683,-0.5188067444876197
1539131497779846,1.4343480582895154,-0.15259021896690683,-0.7629510948347615
1539131497795837,-2.105745021744042,-0.33569848172737693,-0.7629510948347615
1539131497811828,-1.6174563210497581,-0.09155413138023505,0.03051804379333589
1539131497827819,2.9602502479590385,0.5188067444876197,1.0681315327688026
1539131497843811,7.11070420386045,0.8850232700083325,1.739528496223329
1539131497859802,7.721065079728305,1.0070954451819034,1.6174563210497581
1539131497875579,4.669260700389032,0.7019150072480898,1.1902037079423735
1539131497891570,1.8005645838102282,0.6408789196611906,1.5564202334630863
1539131497907560,1.2512397955290453,1.2512397955290453,1.6784924086366573
1539131497923550,0.8850232700083325,1.8005645838102282,1.8005645838102282
1539131497939540,0.6408789196611906,2.105745021744042,1.8005645838102282
1539131497955531,1.1902037079423735,2.166781109330941,1.9226367589837992
1539131497971521,0.6408789196611906,2.105745021744042,1.739528496223329
1539131497987511,-1.2512397955290453,1.8005645838102282,1.6784924086366573
1539131498003502,-1.3122758831159445,1.4953841458761872,1.5564202334630863
1539131498019492,0.33569848172737693,1.4343480582895154,1.4953841458761872
1539131498035482,2.410925459678083,1.5564202334630863,1.3122758831159445
1539131498051472,1.3733119707026162,1.6174563210497581,1.0681315327688026
1539131498067463,0.09155413138023505,1.739528496223329,0.5188067444876197
1539131498083453,-1.1291676203554744,1.9226367589837992,0.09155413138023505
1539131498099443,-0.8850232700083325,2.105745021744042,0.03051804379333589
1539131498115433,0.09155413138023505,1.9226367589837992,0.03051804379333589
1539131498131424,0.7019150072480898,1.3122758831159445,-0.2746623941404778
1539131498147414,1.3733119707026162,0.7019150072480898,-0.8239871824216607
1539131498163404,0.8239871824216607,0.33569848172737693,-0.8850232700083325
1539131498179394,-0.7019150072480898,0.15259021896690683,-0.7019150072480898
1539131498195190,-2.288853284504512,0.09155413138023505,-0.3967345693140487
1539131498211179,-2.288853284504512,0.15259021896690683,-0.09155413138023505
1539131498227169,-0.5188067444876197,0.33569848172737693,-0.03051804379333589
1539131498243158,1.8005645838102282,0.45777065690094787,-0.3967345693140487
1539131498259147,0.3967345693140487,0.5188067444876197,-0.8850232700083325
1539131498275137,-1.983672846570471,0.5188067444876197,-0.9460593575952316
1539131498291126,-3.6316472114137923,0.5798428320745188,-0.8239871824216607
1539131498307115,-4.058899824521177,0.8850232700083325,-0.7629510948347615
1539131498323104,-4.852368963149502,1.1291676203554744,-0.9460593575952316
1539131498339094,-5.76791027695117,1.0070954451819034,-1.0070954451819034
1539131498355083,-6.8665598535133086,0.5188067444876197,-0.9460593575952316
1539131498371072,-7.721065079728305,0.2746623941404778,-1.0681315327688026
1539131498387062,-7.660028992141633,0.33569848172737693,-0.9460593575952316
1539131498403051,-6.622415503166167,0.6408789196611906,-0.7019150072480898
1539131498419040,-4.180971999694748,1.0070954451819034,-0.213626306553806
1539131498435030,-0.7019150072480898,1.3733119707026162,0.09155413138023505
1539131498451019,1.4343480582895154,1.3122758831159445,-0.09155413138023505
1539131498467008,1.9226367589837992,1.0681315327688026,-0.45777065690094787
1539131498482998,2.105745021744042,0.7629510948347615,-0.33569848172737693
1539131498498987,2.9602502479590385,0.45777065690094787,-0.09155413138023505
1539131498514831,3.875791561760934,0.45777065690094787,0.15259021896690683
1539131498530820,4.852368963149502,0.7019150072480898,0.5798428320745188
1539131498546809,5.096513313496644,0.8850232700083325,0.7629510948347615
1539131498562798,3.3264667734797513,0.7629510948347615,0.7629510948347615
1539131498578786,2.288853284504512,0.7629510948347615,0.7019150072480898
1539131498594775,1.9226367589837992,0.8239871824216607,0.9460593575952316
1539131498610764,1.4343480582895154,1.0070954451819034,1.2512397955290453
1539131498626753,0.33569848172737693,1.1902037079423735,1.6174563210497581
1539131498642742,-0.213626306553806,1.2512397955290453,2.04470893415737
1539131498658731,0.33569848172737693,1.2512397955290453,2.227817196917613
1539131498674719,0.7019150072480898,1.1902037079423735,2.288853284504512
1539131498690708,1.1291676203554744,1.0681315327688026,1.8616006713969
1539131498706697,1.4343480582895154,1.2512397955290453,1.3122758831159445
1539131498722686,1.1291676203554744,1.5564202334630863,0.6408789196611906
1539131498738675,-1.6784924086366573,1.983672846570471,-0.3967345693140487
1539131498754664,-4.669260700389032,2.7161058976118966,-0.8850232700083325
1539131498770652,-5.462729839017356,3.2654306858930795,-1.0681315327688026
1539131498786641,-5.462729839017356,3.692683299000464,-1.1291676203554744
1539131498802630,-5.279621576256886,3.692683299000464,-1.4953841458761872
1539131498818619,-4.60822461280236,3.2654306858930795,-1.8616006713969
1539131498834442,-4.119935912108076,2.8381780727854675,-1.983672846570471
1539131498850430,-3.4485389486533222,2.3498893720911838,-1.9226367589837992
1539131498866418,-2.105745021744042,1.9226367589837992,-1.5564202334630863
1539131498882405,-0.5798428320745188,1.8005645838102282,-1.3733119707026162
1539131498898393,-0.213626306553806,1.5564202334630863,-1.4343480582895154
1539131498914381,-1.5564202334630863,1.2512397955290453,-1.739528496223329
1539131498930369,-1.8616006713969,0.7019150072480898,-1.6174563210497581
1539131498946357,-0.03051804379333589,0.03051804379333589,-1.0681315327688026
1539131498962345,1.4953841458761872,-0.45777065690094787,-0.3967345693140487
1539131498978333,2.166781109330941,-0.6408789196611906,0.15259021896690683
1539131498994320,1.6174563210497581,-0.5188067444876197,0.213626306553806
1539131499010308,0.09155413138023505,-0.3967345693140487,0.33569848172737693
1539131499026296,-0.33569848172737693,-0.15259021896690683,0.5188067444876197
1539131499042284,1.3122758831159445,0.2746623941404778,0.7629510948347615
1539131499058272,2.7771419851987957,0.5188067444876197,0.6408789196611906
1539131499074260,1.983672846570471,0.5188067444876197,0.45777065690094787
1539131499090248,0.2746623941404778,0.33569848172737693,0.5188067444876197
1539131499106236,-0.33569848172737693,0.45777065690094787,0.7629510948347615
1539131499122223,0.2746623941404778,0.5188067444876197,1.0070954451819034
1539131499138211,0.6408789196611906,0.5798428320745188,1.1902037079423735
1539131499154052,0.7019150072480898,0.5188067444876197,1.3122758831159445
1539131499170040,1.1291676203554744,0.5188067444876197,1.2512397955290453
1539131499186027,0.8850232700083325,0.45777065690094787,1.3122758831159445
1539131499202015,-0.7019150072480898,0.213626306553806,1.1291676203554744
1539131499218002,-1.8005645838102282,-0.09155413138023505,1.0070954451819034
1539131499233989,-0.3967345693140487,-0.45777065690094787,1.1902037079423735
1539131499249977,3.3264667734797513,-0.8850232700083325,1.6174563210497581
1539131499265964,5.706874189364498,-1.1902037079423735,1.2512397955290453
1539131499281952,3.6316472114137923,-1.3122758831159445,0.33569848172737693
1539131499297939,0.2746623941404778,-1.4343480582895154,-0.33569848172737693
1539131499313926,-0.8850232700083325,-1.4953841458761872,-0.09155413138023505
1539131499329914,1.983672846570471,-1.0070954451819034,0.5798428320745188
1539131499345901,6.378271152819025,-0.09155413138023505,1.2512397955290453
1539131499361889,8.697642481116873,0.6408789196611906,1.3122758831159445
1539131499377876,8.392462043183059,0.8239871824216607,1.2512397955290453
1539131499393863,8.209353780422589,0.45777065690094787,1.1902037079423735
1539131499409851,6.8665598535133086,0.09155413138023505,1.0070954451819034
1539131499425838,3.4485389486533222,-0.213626306553806,0.2746623941404778
1539131499441825,-0.6408789196611906,-0.3967345693140487,-0.7019150072480898
1539131499457813,-3.1433585107195086,-0.2746623941404778,-1.4953841458761872
1539131499473724,-3.5095750362402214,-0.03051804379333589,-1.5564202334630863
1539131499489711,-2.4719615472647547,0.213626306553806,-1.0070954451819034
1539131499505698,-1.0681315327688026,0.7019150072480898,-0.5798428320745188
1539131499521685,-1.1902037079423735,0.8850232700083325,-0.45777065690094787
1539131499537672,-1.0070954451819034,0.5798428320745188,-0.5798428320745188
1539131499553659,-1.3122758831159445,0.15259021896690683,-0.8239871824216607
1539131499569646,-1.1902037079423735,0.15259021896690683,-0.8239871824216607
1539131499585632,-0.15259021896690683,0.45777065690094787,-0.45777065690094787
1539131499601619,0.6408789196611906,1.1902037079423735,-0.03051804379333589
1539131499617606,-0.15259021896690683,1.6174563210497581,0.213626306553806
1539131499633593,-1.3733119707026162,2.04470893415737,0.33569848172737693
1539131499649580,-1.1291676203554744,2.3498893720911838,0.6408789196611906
1539131499665567,0.8239871824216607,2.655069810025225,0.6408789196611906
1539131499681554,1.8616006713969,2.532997634851654,0.5798428320745188
1539131499697541,1.4953841458761872,2.4719615472647547,0.3967345693140487
1539131499713528,0.2746623941404778,2.288853284504512,0.213626306553806
1539131499729515,0.2746623941404778,2.3498893720911838,0.15259021896690683
1539131499745502,1.0070954451819034,2.4719615472647547,0.15259021896690683
1539131499761489,1.1291676203554744,2.288853284504512,0.2746623941404778
1539131499777475,1.6784924086366573,2.166781109330941,0.45777065690094787
1539131499793335,2.5940337224383256,1.8616006713969,0.5188067444876197
1539131499809321,3.4485389486533222,1.739528496223329,0.7019150072480898
1539131499825307,4.364080262455218,1.8005645838102282,0.45777065690094787
1539131499841294,5.279621576256886,2.04470893415737,0.33569848172737693
1539131499857280,5.76791027695117,2.227817196917613,0.2746623941404778
1539131499873267,5.0354772259097444,2.166781109330941,0.213626306553806
1539131499889253,3.997863736934505,2.288853284504512,-0.03051804379333589
1539131499905240,2.7771419851987957,2.166781109330941,-0.3967345693140487
1539131499921226,2.4719615472647547,2.04470893415737,-0.5798428320745188
1539131499937213,2.532997634851654,1.8005645838102282,-0.5798428320745188
1539131499953199,3.692683299000464,1.6784924086366573,-0.3967345693140487
1539131499969185,4.364080262455218,1.3733119707026162,0.03051804379333589
1539131499985172,4.42511635004189,1.1902037079423735,0.09155413138023505
1539131500001158,4.058899824521177,1.1291676203554744,-0.09155413138023505
1539131500017145,3.692683299000464,1.0681315327688026,-0.33569848172737693
1539131500033131,3.570611123826893,1.0681315327688026,-0.3967345693140487
1539131500049118,3.2654306858930795,1.1291676203554744,-0.5188067444876197
1539131500065104,1.4343480582895154,1.1902037079423735,-0.7629510948347615
1539131500081091,0.33569848172737693,1.1902037079423735,-0.8850232700083325
1539131500097077,0.213626306553806,1.1291676203554744,-0.8239871824216607
1539131500112945,0.33569848172737693,1.1291676203554744,-0.6408789196611906
1539131500128931,1.0070954451819034,1.1291676203554744,-0.45777065690094787
1539131500144917,0.9460593575952316,1.0681315327688026,-0.3967345693140487
1539131500160903,-0.2746623941404778,1.0070954451819034,-0.3967345693140487
1539131500176889,-1.8616006713969,0.7019150072480898,-0.5188067444876197
1539131500192875,-2.105745021744042,0.3967345693140487,-0.5798428320745188
1539131500208861,-1.6174563210497581,0.213626306553806,-0.33569848172737693
1539131500224847,-0.5798428320745188,0.213626306553806,-0.03051804379333589
1539131500240833,-0.15259021896690683,0.2746623941404778,0.213626306553806
1539131500256819,0.03051804379333589,0.7019150072480898,0.33569848172737693
1539131500272805,-1.0070954451819034,1.1291676203554744,0.09155413138023505
1539131500288791,-2.04470893415737,1.4343480582895154,-0.15259021896690683
1539131500304777,-1.1291676203554744,1.6784924086366573,-0.09155413138023505
1539131500320763,-0.15259021896690683,1.4953841458761872,-0.09155413138023505
1539131500336749,0.5798428320745188,1.3733119707026162,-0.03051804379333589
1539131500352735,0.213626306553806,1.2512397955290453,-0.03051804379333589
1539131500368721,-0.8850232700083325,1.2512397955290453,0.03051804379333589
1539131500384707,-1.6784924086366573,1.1902037079423735,0.15259021896690683
1539131500400693,-1.739528496223329,1.1291676203554744,0.2746623941404778
1539131500416679,-1.6174563210497581,0.9460593575952316,0.33569848172737693
1539131500432586,-1.5564202334630863,0.7629510948347615,0.45777065690094787
1539131500448572,-2.5940337224383256,0.7019150072480898,0.5188067444876197
1539131500464557,-2.8381780727854675,0.6408789196611906,0.45777065690094787
1539131500480543,-4.058899824521177,0.3967345693140487,0.45777065690094787
1539131500496528,-6.927595941100208,0.3967345693140487,0.45777065690094787
1539131500512514,-11.20012207217519,0.33569848172737693,0.33569848172737693
1539131500528499,-12.848096437018285,0.5798428320745188,0.03051804379333589
1539131500544485,-9.613183794918768,1.0681315327688026,-0.09155413138023505
1539131500560470,-3.997863736934505,1.3122758831159445,-0.15259021896690683
1539131500576456,1.3122758831159445,1.5564202334630863,-0.09155413138023505
1539131500592441,4.486152437628789,1.739528496223329,0.03051804379333589
1539131500608427,5.462729839017356,1.739528496223329,-0.03051804379333589
1539131500624412,4.852368963149502,1.739528496223329,-0.09155413138023505
1539131500640398,4.42511635004189,1.9226367589837992,-0.03051804379333589
1539131500656383,3.3875028610666504,1.8005645838102282,-0.33569848172737693
1539131500672369,1.9226367589837992,1.5564202334630863,-0.45777065690094787
1539131500688354,1.2512397955290453,1.3122758831159445,-0.45777065690094787
1539131500704340,1.9226367589837992,1.2512397955290453,-0.33569848172737693
1539131500720325,2.105745021744042,1.1291676203554744,-0.09155413138023505
1539131500736311,1.4953841458761872,0.9460593575952316,0.33569848172737693
1539131500752166,0.33569848172737693,0.7019150072480898,0.6408789196611906
1539131500768151,-2.655069810025225,0.33569848172737693,0.7629510948347615
1539131500784136,-8.6366063935302,-0.15259021896690683,0.45777065690094787
1539131500800121,-11.07804989700162,-0.33569848172737693,0.03051804379333589
1539131500816106,-10.223544670786623,-0.3967345693140487,0.03051804379333589
1539131500832091,-7.660028992141633,-0.5188067444876197,0.33569848172737693
1539131500848076,-7.049668116273779,-0.45777065690094787,0.9460593575952316
1539131500864061,-5.76791027695117,0.7019150072480898,1.1902037079423735
1539131500880046,-4.303044174868319,1.1291676203554744,1.6174563210497581
1539131500896031,-1.8616006713969,1.1291676203554744,2.04470893415737
1539131500912016,-0.213626306553806,1.4343480582895154,2.105745021744042
1539131500928002,0.7629510948347615,1.4343480582895154,1.9226367589837992
1539131500943987,1.8005645838102282,1.6174563210497581,1.4953841458761872
1539131500959972,1.9226367589837992,1.8616006713969,0.8850232700083325
1539131500975957,1.739528496223329,1.8005645838102282,0.3967345693140487
1539131500991942,1.6784924086366573,1.983672846570471,-0.03051804379333589
1539131501007927,0.5798428320745188,1.8005645838102282,-0.8239871824216607
1539131501023912,-0.33569848172737693,1.6174563210497581,-1.5564202334630863
1539131501039897,-1.8005645838102282,1.1291676203554744,-1.6784924086366573
1539131501055882,-1.739528496223329,0.7629510948347615,-0.8850232700083325
1539131501071777,-0.6408789196611906,0.2746623941404778,-0.15259021896690683
1539131501087762,-1.6174563210497581,-0.09155413138023505,0.03051804379333589
1539131501103747,-5.401693751430457,-0.2746623941404778,-0.213626306553806
1539131501119732,-8.758678568703772,-0.3967345693140487,-0.5798428320745188
1539131501135717,-9.491111619745197,-0.15259021896690683,-0.3967345693140487
1539131501151702,-8.758678568703772,-0.09155413138023505,0.33569848172737693
1539131501167687,-6.561379415579495,-0.09155413138023505,1.6784924086366573
1539131501183672,-5.3406576638437855,-0.3967345693140487,2.655069810025225
1539131501199657,-6.9886320286868795,-1.5564202334630863,3.2043945983061803
1539131501215642,-9.369039444571627,-2.532997634851654,3.570611123826893
1539131501231627,-11.261158159761862,-2.3498893720911838,3.3875028610666504
1539131501247612,-13.153276874952326,-1.739528496223329,2.7161058976118966
1539131501263597,-14.92332341496899,-1.1902037079423735,2.105745021744042
1539131501279582,-12.970168612191856,-0.45777065690094787,1.6784924086366573
1539131501295567,-10.040436408026153,0.33569848172737693,1.1902037079423735
1539131501311552,-9.369039444571627,1.0070954451819034,0.5798428320745188
1539131501327537,-12.4208438239109,1.2512397955290453,0.09155413138023505
1539131501343522,-18.82963302052326,0.45777065690094787,-0.213626306553806
1539131501359507,-21.087968261234437,-0.5188067444876197,-0.5798428320745188
1539131501375492,-20.05035477225897,-1.2512397955290453,-0.6408789196611906
1539131501391388,-18.341344319828977,-1.3122758831159445,-0.33569848172737693
1539131501407372,-15.167467765316132,-1.0681315327688026,0.5188067444876197
1539131501423357,-12.115663385976859,-0.6408789196611906,1.3733119707026162
1539131501439341,-13.397421225299468,-0.5798428320745188,1.9226367589837992
1539131501455326,-14.312962539101136,-0.45777065690094787,1.3733119707026162
1539131501471310,-12.115663385976859,0.15259021896690683,1.1291676203554744
1539131501487295,-4.180971999694748,0.9460593575952316,1.739528496223329
1539131501503279,2.5940337224383256,1.4343480582895154,2.8992141603723667
1539131501519264,0.5188067444876197,1.3122758831159445,2.532997634851654
1539131501535248,-9.124895094224485,0.3967345693140487,1.1902037079423735
1539131501551233,-15.045395590142562,-0.45777065690094787,0.03051804379333589
1539131501567217,-16.632333867398984,-1.983672846570471,0.3967345693140487
1539131501583202,-14.129854276340893,-2.227817196917613,0.8850232700083325
1539131501599187,-13.275349050125897,-1.6174563210497581,0.9460593575952316
1539131501615171,-17.120622568093268,-0.8239871824216607,0.7629510948347615
1539131501631156,-21.69832913710229,0.15259021896690683,0.33569848172737693
1539131501647140,-21.51522087434182,0.8239871824216607,0.213626306553806
1539131501663125,-18.463416495002548,0.9460593575952316,0.7019150072480898
1539131501679109,-13.519493400473038,0.3967345693140487,1.2512397955290453
1539131501695094,-11.261158159761862,-0.09155413138023505,1.6174563210497581
1539131501711059,-11.444266422522333,0.213626306553806,1.3733119707026162
1539131501727044,-21.942473487449433,-0.6408789196611906,1.0681315327688026
1539131501743028,-36.591134508278174,-1.8005645838102282,-0.03051804379333589
1539131501759013,-47.63866636148623,-3.0823224231326094,-0.15259021896690683
1539131501774997,-55.45128557259477,-4.60822461280236,-0.8239871824216607
1539131501790982,-56.244754711223095,-4.974441138323073,-2.8992141603723667
1539131501806966,-47.51659418631266,-3.7537193865873633,-4.60822461280236
1539131501822951,-29.20576791027679,-1.0070954451819034,-4.852368963149502
1539131501838935,-5.523765926604028,1.739528496223329,-3.1433585107195086
1539131501854920,13.092240787365427,3.692683299000464,-0.9460593575952316
1539131501870905,19.256885633630873,4.60822461280236,1.0681315327688026
1539131501886889,17.914091706721592,4.669260700389032,1.739528496223329
1539131501902874,11.932555123216616,3.6316472114137923,1.6174563210497581
1539131501918858,6.622415503166167,1.8005645838102282,1.1902037079423735
1539131501934843,6.134126802471883,0.15259021896690683,0.8239871824216607
1539131501950827,9.369039444571627,-1.0070954451819034,0.7019150072480898
1539131501966812,12.726024261844714,-1.8005645838102282,0.2746623941404778
1539131501982796,15.045395590142562,-2.410925459678083,-0.3967345693140487
1539131501998781,17.79201953154802,-2.288853284504512,-0.03051804379333589
1539131502014765,20.843823910887295,-1.4953841458761872,1.3122758831159445
1539131502030670,22.003509575036105,-0.03051804379333589,2.166781109330941
1539131502046654,22.125581750209676,1.4953841458761872,2.7771419851987957
1539131502062638,26.337071793697987,2.532997634851654,3.3875028610666504
1539131502078622,32.379644464789635,4.180971999694748,3.570611123826893
1539131502094606,39.82604715037746,5.0354772259097444,3.692683299000464
1539131502110590,43.12199588006388,5.279621576256886,3.4485389486533222
1539131502126574,40.68055237659246,5.401693751430457,2.3498893720911838
1539131502142558,32.80689707789725,5.096513313496644,0.7019150072480898
1539131502158542,21.57625696192872,4.242008087281647,-1.0681315327688026
1539131502174526,12.848096437018285,3.7537193865873633,-2.7161058976118966
1539131502190510,10.345616845960194,3.1433585107195086,-3.5095750362402214
1539131502206494,11.993591210803288,2.166781109330941,-3.4485389486533222
1539131502222478,17.24269474326684,1.2512397955290453,-2.8992141603723667
1539131502238463,24.811169604028237,1.0681315327688026,-2.532997634851654
1539131502254447,28.900587472342977,1.1902037079423735,-2.410925459678083
1539131502270431,30.73167009994654,1.8005645838102282,-2.7771419851987957
1539131502286415,30.792706187533213,2.655069810025225,-3.0212863355459376
1539131502302399,30.60959792477297,3.1433585107195086,-3.3264667734797513
1539131502318383,31.70824750133511,3.0212863355459376,-3.1433585107195086
1539131502334367,31.219958800640825,2.5940337224383256,-3.0212863355459376
1539131502350280,29.32784008545036,1.983672846570471,-2.8381780727854675
1539131502366264,24.444953078507524,1.6784924086366573,-3.3264667734797513
1539131502382248,16.754406042572555,1.4343480582895154,-4.364080262455218
1539131502398231,12.787060349431613,1.3122758831159445,-4.974441138323073
1539131502414215,12.970168612191856,1.1291676203554744,-4.730296787975931
1539131502430198,14.496070801861606,0.9460593575952316,-4.42511635004189
1539131502446182,13.519493400473038,0.45777065690094787,-3.875791561760934
1539131502462165,10.040436408026153,0.09155413138023505,-3.3875028610666504
1539131502478149,8.45349813076973,0.03051804379333589,-2.9602502479590385
1539131502494133,6.8665598535133086,0.09155413138023505,-2.532997634851654
1539131502510116,3.997863736934505,0.15259021896690683,-2.4719615472647547
1539131502526100,1.2512397955290453,0.213626306553806,-2.8992141603723667
1539131502542083,0.3967345693140487,0.5188067444876197,-3.2043945983061803
1539131502558067,2.7161058976118966,0.9460593575952316,-2.410925459678083
1539131502574051,5.584802014190927,1.1291676203554744,-1.4343480582895154
1539131502590034,5.889982452124741,1.2512397955290453,-1.0070954451819034
1539131502606018,3.814755474174035,0.9460593575952316,-0.7629510948347615
1539131502622001,0.7019150072480898,0.9460593575952316,-0.9460593575952316
1539131502637985,-1.3122758831159445,0.8239871824216607,-1.1902037079423735
1539131502653968,-0.7629510948347615,0.7019150072480898,-0.6408789196611906
1539131502669891,0.7629510948347615,0.7629510948347615,0.213626306553806
1539131502685875,0.5798428320745188,0.5798428320745188,0.9460593575952316
1539131502701858,-0.8239871824216607,0.5188067444876197,1.1902037079423735
1539131502717842,-2.227817196917613,0.5188067444876197,0.6408789196611906
1539131502733825,-3.936827649347606,0.8850232700083325,-0.7019150072480898
1539131502749809,-5.706874189364498,1.739528496223329,-2.3498893720911838
1539131502765792,-7.476920729381163,3.0212863355459376,-3.936827649347606
1539131502781776,-6.256198977645454,4.791332875562603,-4.852368963149502
1539131502797760,-3.5095750362402214,5.645838101777599,-4.60822461280236
1539131502813743,-1.4343480582895154,6.073090714885211,-3.875791561760934
1539131502829727,-1.4953841458761872,5.645838101777599,-3.0212863355459376
1539131502845710,-3.875791561760934,4.60822461280236,-2.227817196917613
1539131502861694,-3.7537193865873633,2.655069810025225,-1.1291676203554744
1539131502877678,0.15259021896690683,1.0681315327688026,-0.3967345693140487
1539131502893661,2.655069810025225,0.5188067444876197,-0.03051804379333589
1539131502909645,1.3733119707026162,0.5798428320745188,-0.213626306553806
1539131502925628,-1.1291676203554744,1.0070954451819034,-0.7629510948347615
1539131502941612,-2.105745021744042,1.6174563210497581,-1.6784924086366573
1539131502957595,-3.2043945983061803,1.739528496223329,-2.7771419851987957
1539131502973579,-3.0212863355459376,1.6174563210497581,-3.814755474174035
1539131502989502,-2.5940337224383256,1.6174563210497581,-4.852368963149502
1539131503005485,-3.3875028610666504,1.5564202334630863,-5.95101853971164
1539131503021468,-4.42511635004189,1.4953841458761872,-6.927595941100208
1539131503037451,-3.7537193865873633,2.04470893415737,-7.598992904554734
1539131503053434,-2.288853284504512,2.655069810025225,-8.026245517662346
1539131503069417,-1.4953841458761872,2.8992141603723667,-7.904173342488775
1539131503085400,-0.45777065690094787,3.3264667734797513,-7.232776379034021
1539131503101383,1.5564202334630863,3.692683299000464,-6.256198977645454
1539131503117366,3.6316472114137923,4.058899824521177,-5.2185854886702145
1539131503133350,3.1433585107195086,4.303044174868319,-4.242008087281647
1539131503149333,1.9226367589837992,4.303044174868319,-3.4485389486533222
1539131503165316,1.3122758831159445,3.6316472114137923,-2.4719615472647547
1539131503181299,3.0212863355459376,3.0823224231326094,-1.1902037079423735
1539131503197282,6.439307240405924,2.7771419851987957,0.15259021896690683
1539131503213265,7.904173342488775,2.410925459678083,1.3733119707026162
1539131503229248,7.232776379034021,2.166781109330941,1.8005645838102282
1539131503245231,4.303044174868319,2.04470893415737,1.8616006713969
1539131503261214,1.6174563210497581,2.4719615472647547,2.04470893415737
1539131503277197,-0.09155413138023505,2.655069810025225,2.4719615472647547
1539131503293181,0.45777065690094787,1.983672846570471,3.0823224231326094
1539131503309112,4.60822461280236,1.0681315327688026,3.5095750362402214
1539131503325095,7.537956816968062,-0.2746623941404778,3.2654306858930795
1539131503341078,8.880750743877343,-1.2512397955290453,2.7161058976118966
1539131503357061,9.246967269398056,-1.8005645838102282,2.288853284504512
1539131503373045,9.246967269398056,-1.8005645838102282,1.6784924086366573
1539131503389028,7.721065079728305,-1.8616006713969,0.6408789196611906
1539131503405011,6.561379415579495,-2.04470893415737,-0.5188067444876197
1539131503420994,5.462729839017356,-2.8381780727854675,-1.0070954451819034
1539131503436977,4.669260700389032,-4.547188525215461,-1.6784924086366573
1539131503452960,7.354848554207592,-8.33142595559616,-2.655069810025225
1539131503468943,12.298771648737329,-11.20012207217519,-2.04470893415737
1539131503484926,20.599679560540153,-10.833905546654478,0.8850232700083325
1539131503500909,29.022659647516548,-7.598992904554734,3.6316472114137923
1539131503516893,21.942473487449433,-4.058899824521177,4.058899824521177
1539131503532876,3.997863736934505,0.3967345693140487,3.2043945983061803
1539131503548859,5.645838101777599,11.383230334935433,0.213626306553806
1539131503564842,10.650797283894008,38.54428931105508,-1.1902037079423735
1539131503580825,12.787060349431613,69.55062180514233,-1.0681315327688026
1539131503596808,0.213626306553806,98.60379949645221,2.105745021744042
1539131503612791,-9.491111619745197,123.32341496910067,6.9886320286868795
1539131503628753,-8.880750743877343,145.60158693827725,10.528725108720437
1539131503644736,-6.134126802471883,161.34889753566767,13.031204699778755
1539131503660719,-6.378271152819025,170.13809414816478,15.594720378423744
1539131503676703,-6.9886320286868795,176.91309987029808,22.064545662623004
1539131503692686,-3.1433585107195086,177.70656900892618,31.586175326161538
1539131503708669,9.491111619745197,172.64057373922333,39.27672236209651
1539131503724652,17.975127794308264,162.56961928740338,43.8544289311053
1539131503740635,17.54787518120088,150.66758220798056,46.17380025940315
1539131503756618,14.435034714274707,135.83581292439158,46.47898069733719
1539131503772601,16.815442130159454,119.11192492561213,46.05172808422958
1539131503788584,22.919050888838,100.92317082475029,43.976501106278874
1539131503804567,23.95666437781324,82.30716411078083,40.9246967269396
1539131503820551,23.041123064011572,63.38597695887711,36.65217059586462
1539131503836534,20.904859998473967,40.86366063935293,31.70824750133511
1539131503852517,26.153963530937517,15.960936903944457,26.886396581978943
1539131503868500,28.656443121995835,-11.20012207217519,21.637293049515392
1539131503884483,26.337071793697987,-41.16884107728697,14.251926451514464
1539131503900466,29.38887617303726,-71.62584878309303,4.791332875562603
1539131503916449,23.83459220263967,-100.06866559853529,-3.2654306858930795
1539131503932432,33.478294041351774,-128.81666285191113,-9.491111619745197
1539131503948364,29.938200961318216,-167.02525368123906,-15.533684290836845
1539131503964347,19.867246509498727,-217.685206378271,-23.95666437781324
1539131503980329,13.885709925993751,-282.5665674830245,-37.38460364690627
1539131503996312,10.345616845960194,-364.04974441138324,-64.24048218509188
1539131504012294,-4.730296787975931,-442.420080872816,-88.5328450446325
1539131504028277,-246.3721675440604,-144.0756847486075,-19.195849546043974
1539131504044260,102.99839780270077,69.18440527962184,12.787060349431613
1539131504060242,0.5798428320745188,-15.10643167772946,-17.730983443961122
1539131504076225,3.5095750362402214,-89.93667505912867,-39.215686274509835
1539131504092208,-69.06233310444804,-83.64995803768966,-26.276035706111088
1539131504108190,3.5095750362402214,-32.745860990310575,-3.1433585107195086
1539131504124173,52.948805981536225,2.166781109330941,15.777828641183987
1539131504140155,86.33554589150845,28.229190508888223,24.689097428854666
1539131504156138,55.45128557259477,48.493171587701,29.08369573510322
1539131504172121,25.116350041962278,68.39093614099374,29.20576791027679
1539131504188103,-1.9226367589837992,77.36324101625087,25.23842221713585
1539131504204086,-26.337071793697987,72.54139009689516,17.914091706721592
1539131504220069,-24.26184481574728,61.9211108567938,7.843137254901876
1539131504236051,-11.688410772869474,50.263218127717664,-0.7019150072480898
1539131504252034,-6.500343327992596,36.408026245517476,-6.012054627298312
1539131504267974,-4.364080262455218,22.125581750209676,-8.51453421835663
1539131504283957,-4.180971999694748,9.430075532158298,-10.040436408026153
1539131504299940,-3.997863736934505,0.8850232700083325,-11.688410772869474
1539131504315922,-3.997863736934505,-5.645838101777599,-12.848096437018285
1539131504331905,4.058899824521177,-9.491111619745197,-14.129854276340893
1539131504347888,7.17174029144735,-10.589761196307336,-14.679179064621849
1539131504363870,-0.2746623941404778,-10.650797283894008,-14.312962539101136
1539131504379853,-3.875791561760934,-10.345616845960194,-13.519493400473038
1539131504395836,-5.76791027695117,-10.467689021133765,-11.871519035629717
1539131504411818,-5.279621576256886,-9.063859006637585,-10.101472495613052
1539131504427801,-4.60822461280236,-6.561379415579495,-7.4158846417944915
1539131504443783,-5.157549401083315,-4.974441138323073,-5.584802014190927
1539131504459766,-4.119935912108076,-5.2185854886702145,-3.814755474174035
1539131504475749,-0.03051804379333589,-5.828946364538069,-1.6174563210497581
1539131504491731,0.33569848172737693,-7.476920729381163,0.7019150072480898
1539131504507714,0.213626306553806,-9.308003356984727,3.0823224231326094
1539131504523697,-0.09155413138023505,-10.284580758373295,4.9134050507361735
1539131504539679,2.410925459678083,-10.711833371480907,5.645838101777599
1539131504555662,6.256198977645454,-11.627374685282575,6.134126802471883
1539131504571644,10.833905546654478,-12.4208438239109,6.073090714885211
1539131504587585,9.55214770733187,-11.871519035629717,6.073090714885211
1539131504603567,3.5095750362402214,-10.955977721828049,6.012054627298312
1539131504619549,0.8850232700083325,-11.01701380941472,5.401693751430457
1539131504635532,2.410925459678083,-13.092240787365427,4.303044174868319
1539131504651514,7.537956816968062,-13.702601663233281,2.04470893415737
1539131504667496,7.476920729381163,-12.909132524605184,0.33569848172737693
1539131504683478,2.410925459678083,-11.20012207217519,-0.5798428320745188
1539131504699460,-3.7537193865873633,-10.223544670786623,-1.4953841458761872
1539131504715442,-6.073090714885211,-11.505302510109004,-3.4485389486533222
1539131504731424,-2.227817196917613,-15.289539940489703,-5.76791027695117
1539131504747407,9.002822919050914,-17.36476691844041,-6.805523765926637
1539131504763389,12.298771648737329,-15.777828641183987,-6.134126802471883
1539131504779371,3.3875028610666504,-12.848096437018285,-4.42511635004189
1539131504795353,-1.2512397955290453,-10.284580758373295,-4.303044174868319
1539131504811335,-2.655069810025225,-9.67421988250544,-4.242008087281647
1539131504827317,-16.2050812542916,-9.246967269398056,-1.8616006713969
1539131504843299,-6.744487678339738,-3.570611123826893,1.5564202334630863
1539131504859282,6.9886320286868795,5.157549401083315,4.486152437628789
1539131504875264,14.557106889448278,11.505302510109004,4.9134050507361735
1539131504891246,11.07804989700162,11.566338597695903,2.9602502479590385
1539131504907196,2.105745021744042,6.622415503166167,0.09155413138023505
1539131504923178,-4.486152437628789,1.8005645838102282,-1.1291676203554744
1539131504939160,-2.288853284504512,-0.15259021896690683,-0.9460593575952316
1539131504955142,7.049668116273779,1.1902037079423735,-0.03051804379333589
1539131504971124,14.740215152208748,3.5095750362402214,0.7019150072480898
1539131504987106,14.92332341496899,3.7537193865873633,0.45777065690094787
1539131505003089,8.45349813076973,2.8381780727854675,-0.213626306553806
1539131505019071,3.2043945983061803,2.166781109330941,-0.9460593575952316
1539131505035053,1.0070954451819034,1.0070954451819034,-0.3967345693140487
1539131505051035,5.462729839017356,-0.09155413138023505,1.1291676203554744
1539131505067017,12.603952086671143,-1.1902037079423735,2.532997634851654
1539131505082999,18.524452582589447,-1.8616006713969,3.570611123826893
1539131505098981,18.280308232242305,-2.5940337224383256,3.6316472114137923
1539131505114964,12.481879911497572,-2.7771419851987957,2.227817196917613
1539131505130946,6.561379415579495,-1.9226367589837992,0.5798428320745188
1539131505146928,1.4343480582895154,0.7019150072480898,-0.5798428320745188
1539131505162910,-2.227817196917613,3.3875028610666504,-1.983672846570471
1539131505178892,-3.814755474174035,5.462729839017356,-3.692683299000464
1539131505194874,-3.1433585107195086,6.378271152819025,-4.730296787975931
1539131505210857,-1.739528496223329,5.706874189364498,-3.997863736934505
1539131505226806,1.6784924086366573,3.997863736934505,-1.8005645838102282
1539131505242788,2.288853284504512,1.3733119707026162,0.5798428320745188
1539131505258771,0.33569848172737693,-1.1291676203554744,2.410925459678083
1539131505274753,-1.0681315327688026,-2.3498893720911838,3.5095750362402214
1539131505290735,-2.7771419851987957,-1.5564202334630863,3.3264667734797513
1539131505306717,-3.3264667734797513,0.45777065690094787,2.04470893415737
1539131505322699,-3.570611123826893,2.532997634851654,0.2746623941404778
1539131505338681,-2.04470893415737,3.997863736934505,-1.3122758831159445
1539131505354663,0.03051804379333589,4.852368963149502,-2.288853284504512
1539131505370646,1.5564202334630863,4.547188525215461,-1.9226367589837992
1539131505386628,0.9460593575952316,3.5095750362402214,-0.7019150072480898
1539131505402610,-1.739528496223329,2.410925459678083,0.7019150072480898
1539131505418592,-5.3406576638437855,1.1291676203554744,1.6784924086366573
1539131505434574,-7.843137254901876,-0.09155413138023505,1.9226367589837992
1539131505450556,-7.782101167315204,-0.5798428320745188,1.3733119707026162
1539131505466539,-6.317235065232353,-0.5188067444876197,0.45777065690094787
1539131505482521,-3.2654306858930795,0.03051804379333589,-0.2746623941404778
1539131505498503,0.213626306553806,0.8850232700083325,-0.7629510948347615
1539131505514485,2.105745021744042,1.6784924086366573,-0.8239871824216607
1539131505530467,2.7161058976118966,2.288853284504512,-0.5188067444876197
1539131505546417,2.3498893720911838,2.5940337224383256,-0.15259021896690683
1539131505562399,2.3498893720911838,2.7161058976118966,0.33569848172737693
1539131505578381,3.2654306858930795,2.7771419851987957,0.5188067444876197
1539131505594363,5.645838101777599,2.655069810025225,0.5798428320745188
1539131505610345,8.880750743877343,2.410925459678083,0.7019150072480898
1539131505626328,9.613183794918768,2.655069810025225,0.7019150072480898
1539131505642310,7.721065079728305,3.1433585107195086,0.03051804379333589
1539131505658292,4.60822461280236,3.5095750362402214,-0.8239871824216607
1539131505674274,0.8239871824216607,3.814755474174035,-1.3122758831159445
1539131505690256,-1.0070954451819034,4.303044174868319,-1.5564202334630863
1539131505706238,-1.0070954451819034,4.791332875562603,-1.5564202334630863
1539131505722221,-1.3733119707026162,5.0354772259097444,-1.6784924086366573
1539131505738203,-0.8239871824216607,4.791332875562603,-1.4953841458761872
1539131505754185,-1.5564202334630863,4.058899824521177,-1.4343480582895154
1539131505770167,-3.4485389486533222,3.4485389486533222,-1.6174563210497581
1539131505786149,-4.058899824521177,2.8992141603723667,-1.8616006713969
1539131505802131,-2.8381780727854675,2.105745021744042,-1.6174563210497581
1539131505818113,0.3967345693140487,1.6784924086366573,-1.3122758831159445
1539131505834096,1.0681315327688026,1.6784924086366573,-1.2512397955290453
1539131505850078,-1.0070954451819034,1.8616006713969,-1.983672846570471
1539131505866058,-4.791332875562603,1.8616006713969,-2.532997634851654
1539131505882040,-7.965209430075447,1.9226367589837992,-2.655069810025225
1539131505898022,-9.85732814526591,1.3733119707026162,-2.5940337224383256
1539131505914004,-11.139085984588291,0.45777065690094787,-2.227817196917613
1539131505929987,-11.993591210803288,0.213626306553806,-1.8616006713969
1539131505945969,-11.993591210803288,0.3967345693140487,-1.4953841458761872
1539131505961951,-11.566338597695903,0.33569848172737693,-1.3733119707026162
1539131505977933,-10.040436408026153,0.3967345693140487,-1.1291676203554744
1539131505993915,-6.805523765926637,0.8850232700083325,-0.3967345693140487
1539131506009897,-2.288853284504512,1.3122758831159445,0.33569848172737693
1539131506025879,-0.5798428320745188,1.4343480582895154,0.8239871824216607
1539131506041862,-1.9226367589837992,1.739528496223329,1.1291676203554744
1539131506057844,-2.8992141603723667,2.04470893415737,0.8850232700083325
1539131506073826,-1.1902037079423735,2.410925459678083,0.8850232700083325
1539131506089808,2.7771419851987957,2.7161058976118966,0.9460593575952316
1539131506105790,6.012054627298312,2.532997634851654,0.8850232700083325
1539131506121772,4.730296787975931,1.983672846570471,0.7019150072480898
1539131506137755,-0.5188067444876197,1.4953841458761872,0.3967345693140487
1539131506153737,-6.195162890058782,1.3122758831159445,-0.03051804379333589
1539131506169719,-10.833905546654478,1.1291676203554744,-0.5188067444876197
1539131506185669,-12.176699473563758,1.3733119707026162,-1.2512397955290453
1539131506201650,-7.904173342488775,1.8005645838102282,-1.2512397955290453
1539131506217632,-1.6174563210497581,1.739528496223329,-0.7629510948347615
1539131506233614,3.570611123826893,1.4953841458761872,0.15259021896690683
1539131506249595,6.317235065232353,1.1291676203554744,1.3122758831159445
1539131506265577,6.561379415579495,0.7629510948347615,2.227817196917613
1539131506281559,4.60822461280236,0.45777065690094787,2.288853284504512
1539131506297540,2.5940337224383256,0.33569848172737693,1.9226367589837992
1539131506313522,3.5095750362402214,0.213626306553806,1.4953841458761872
1539131506329504,5.584802014190927,-0.09155413138023505,1.2512397955290453
1539131506345485,7.11070420386045,-0.213626306553806,1.1291676203554744
1539131506361467,6.805523765926637,-0.33569848172737693,0.7019150072480898
1539131506377449,6.256198977645454,-0.15259021896690683,0.09155413138023505
1539131506393430,4.119935912108076,0.2746623941404778,-0.2746623941404778
1539131506409412,1.1291676203554744,0.9460593575952316,-0.7629510948347615
1539131506425394,-2.04470893415737,1.4953841458761872,-1.2512397955290453
1539131506441375,-4.547188525215461,1.6174563210497581,-1.6784924086366573
1539131506457357,-5.096513313496644,1.4953841458761872,-1.8616006713969
1539131506473339,-3.2654306858930795,1.4343480582895154,-1.739528496223329
1539131506489320,0.3967345693140487,1.5564202334630863,-1.3733119707026162
1539131506505279,1.9226367589837992,1.739528496223329,-0.9460593575952316
1539131506521261,1.4953841458761872,2.227817196917613,-0.5188067444876197
1539131506537243,0.45777065690094787,2.5940337224383256,-0.15259021896690683
1539131506553224,-1.1291676203554744,2.8992141603723667,0.213626306553806
1539131506569206,-2.532997634851654,3.0823224231326094,0.8239871824216607
1539131506585188,-2.8381780727854675,3.0823224231326094,1.5564202334630863
1539131506601169,0.33569848172737693,3.1433585107195086,2.4719615472647547
1539131506617151,4.242008087281647,2.7771419851987957,3.2654306858930795
1539131506633133,4.791332875562603,2.7771419851987957,3.2043945983061803
1539131506649114,2.9602502479590385,2.655069810025225,2.655069810025225
1539131506665096,-0.09155413138023505,2.5940337224383256,1.9226367589837992
1539131506681078,-1.4343480582895154,2.532997634851654,1.2512397955290453
1539131506697059,-1.4953841458761872,2.3498893720911838,0.7019150072480898
1539131506713041,-1.1291676203554744,1.5564202334630863,0.33569848172737693
1539131506729023,0.6408789196611906,0.5798428320745188,0.5798428320745188
1539131506745004,1.1902037079423735,0.03051804379333589,1.0070954451819034
1539131506760986,0.45777065690094787,-0.33569848172737693,1.3733119707026162
1539131506776968,0.213626306553806,-0.5798428320745188,1.5564202334630863
1539131506792949,0.15259021896690683,-0.8850232700083325,1.5564202334630863
1539131506808931,0.8239871824216607,-1.0681315327688026,1.6784924086366573
1539131506824859,1.5564202334630863,-1.2512397955290453,1.983672846570471
1539131506840841,1.6174563210497581,-1.1291676203554744,2.166781109330941
1539131506856823,1.983672846570471,-0.33569848172737693,2.3498893720911838
1539131506872804,1.4953841458761872,0.45777065690094787,2.288853284504512
1539131506888786,0.03051804379333589,0.9460593575952316,2.227817196917613
1539131506904768,-1.4953841458761872,1.4343480582895154,2.105745021744042
1539131506920749,-2.532997634851654,1.6174563210497581,1.9226367589837992
1539131506936731,-2.7771419851987957,1.9226367589837992,1.983672846570471
1539131506952713,-1.4343480582895154,2.105745021744042,2.105745021744042
1539131506968694,-0.15259021896690683,1.983672846570471,2.166781109330941
1539131506984676,-0.5798428320745188,1.6174563210497581,1.983672846570471
1539131507000658,0.03051804379333589,1.3122758831159445,1.6174563210497581
1539131507016639,0.6408789196611906,1.0070954451819034,1.5564202334630863
1539131507032621,0.5188067444876197,1.0681315327688026,1.6174563210497581
1539131507048603,0.8850232700083325,0.8850232700083325,1.4953841458761872
1539131507064584,0.8239871824216607,0.9460593575952316,1.3733119707026162
1539131507080566,0.7629510948347615,1.0070954451819034,1.1902037079423735
1539131507096548,1.1291676203554744,0.9460593575952316,0.8239871824216607
1539131507112529,1.2512397955290453,1.1902037079423735,0.5188067444876197
1539131507128511,0.7629510948347615,1.5564202334630863,0.213626306553806
1539131507144470,-1.2512397955290453,1.983672846570471,-0.15259021896690683
1539131507160452,-4.180971999694748,2.227817196917613,-0.2746623941404778
1539131507176433,-4.9134050507361735,2.288853284504512,-0.33569848172737693
1539131507192415,-3.7537193865873633,2.04470893415737,-0.03051804379333589
1539131507208397,-1.5564202334630863,1.5564202334630863,0.5798428320745188
1539131507224378,0.3967345693140487,1.2512397955290453,0.9460593575952316
1539131507240360,-0.5798428320745188,0.7629510948347615,0.8239871824216607
1539131507256342,-4.486152437628789,0.33569848172737693,0.2746623941404778
1539131507272323,-7.598992904554734,0.33569848172737693,-0.2746623941404778
1539131507288305,-8.33142595559616,0.5798428320745188,-0.33569848172737693
1539131507304287,-8.148317692835917,0.7019150072480898,-0.15259021896690683
1539131507320268,-6.378271152819025,0.9460593575952316,0.3967345693140487
1539131507336250,-2.227817196917613,1.3122758831159445,0.8239871824216607
1539131507352232,-0.5798428320745188,1.6784924086366573,1.0070954451819034
1539131507368213,-1.1291676203554744,2.04470893415737,0.7629510948347615
1539131507384195,-1.0681315327688026,2.655069810025225,0.3967345693140487
1539131507400177,-2.105745021744042,3.1433585107195086,-0.09155413138023505
1539131507416158,-2.5940337224383256,3.692683299000464,-0.3967345693140487
1539131507432140,-2.5940337224383256,3.875791561760934,-0.45777065690094787
1539131507448122,-2.166781109330941,3.692683299000464,-0.09155413138023505
1539131507464080,-2.5940337224383256,3.3875028610666504,-0.09155413138023505
1539131507480062,-4.60822461280236,3.0823224231326094,-0.3967345693140487
1539131507496043,-6.683451590753066,2.8381780727854675,-0.7019150072480898
1539131507512024,-6.317235065232353,2.5940337224383256,-0.9460593575952316
1539131507528005,-4.42511635004189,2.288853284504512,-1.0070954451819034
1539131507543986,-1.3733119707026162,2.227817196917613,-0.6408789196611906
1539131507559968,0.7629510948347615,2.288853284504512,-0.33569848172737693
1539131507575949,0.2746623941404778,2.288853284504512,-0.33569848172737693
1539131507591930,-1.4343480582895154,2.288853284504512,-0.45777065690094787
1539131507607911,-1.3122758831159445,2.288853284504512,-0.45777065690094787
1539131507623892,-0.5798428320745188,2.532997634851654,-0.5188067444876197
1539131507639874,-0.7629510948347615,2.5940337224383256,-0.5188067444876197
1539131507655855,-1.3122758831159445,2.410925459678083,-0.5798428320745188
1539131507671836,-2.04470893415737,2.227817196917613,-0.3967345693140487
1539131507687817,-1.3733119707026162,1.8005645838102282,0.03051804379333589
1539131507703798,1.0070954451819034,1.5564202334630863,0.45777065690094787
1539131507719780,3.692683299000464,1.1902037079423735,0.7629510948347615
1539131507735761,4.364080262455218,0.9460593575952316,0.9460593575952316
1539131507751742,3.936827649347606,0.6408789196611906,0.8850232700083325
1539131507767723,2.5940337224383256,0.45777065690094787,0.6408789196611906
1539131507783722,1.1291676203554744,0.45777065690094787,0.3967345693140487
1539131507799703,0.9460593575952316,0.7019150072480898,0.213626306553806
1539131507815684,1.4953841458761872,0.5188067444876197,-0.15259021896690683
1539131507831665,2.4719615472647547,-0.03051804379333589,-0.45777065690094787
1539131507847646,3.570611123826893,-0.8239871824216607,-0.7019150072480898
1539131507863628,4.058899824521177,-1.2512397955290453,-0.7019150072480898
1539131507879609,3.2654306858930795,-1.1902037079423735,-0.7629510948347615
1539131507895590,0.9460593575952316,-1.0681315327688026,-0.8850232700083325
1539131507911571,0.7629510948347615,-0.8850232700083325,-1.0070954451819034
1539131507927552,2.288853284504512,-0.8239871824216607,-1.0681315327688026
1539131507943534,3.2043945983061803,-1.0681315327688026,-1.3733119707026162
1539131507959515,3.5095750362402214,-1.4343480582895154,-1.9226367589837992
1539131507975496,2.7161058976118966,-1.6784924086366573,-2.532997634851654
1539131507991477,1.6784924086366573,-1.6784924086366573,-2.8381780727854675
1539131508007458,1.739528496223329,-1.3733119707026162,-2.8992141603723667
1539131508023440,2.655069810025225,-0.8239871824216607,-2.655069810025225
1539131508039421,3.570611123826893,0.15259021896690683,-2.288853284504512
1539131508055402,3.5095750362402214,0.8239871824216607,-2.227817196917613
1539131508071383,2.8381780727854675,1.4953841458761872,-2.532997634851654
1539131508087364,-0.45777065690094787,1.983672846570471,-3.0212863355459376
1539131508103332,-4.119935912108076,2.227817196917613,-3.4485389486533222
1539131508119313,-5.523765926604028,2.532997634851654,-3.3264667734797513
1539131508135295,-3.936827649347606,3.0212863355459376,-2.9602502479590385
1539131508151276,-0.9460593575952316,3.2654306858930795,-2.3498893720911838
1539131508167257,0.5798428320745188,3.1433585107195086,-1.9226367589837992
1539131508183238,0.5188067444876197,2.4719615472647547,-1.739528496223329
1539131508199219,-0.15259021896690683,1.5564202334630863,-1.4343480582895154
1539131508215201,0.7019150072480898,0.7629510948347615,-1.0070954451819034
1539131508231182,3.5095750362402214,0.2746623941404778,-0.45777065690094787
1539131508247163,5.95101853971164,-0.213626306553806,-0.3967345693140487
1539131508263144,6.134126802471883,-0.6408789196611906,-0.5798428320745188
1539131508279125,3.0212863355459376,-0.8850232700083325,-0.8850232700083325
1539131508295107,-0.09155413138023505,-0.5798428320745188,-1.1902037079423735
1539131508311088,-1.0070954451819034,0.03051804379333589,-1.0070954451819034
1539131508327069,0.2746623941404778,0.5188067444876197,-0.45777065690094787
1539131508343050,1.6784924086366573,0.5188067444876197,0.15259021896690683
1539131508359031,1.4343480582895154,0.45777065690094787,0.7019150072480898
1539131508375012,1.1902037079423735,0.33569848172737693,1.0070954451819034
1539131508390994,1.1291676203554744,0.3967345693140487,1.1291676203554744
1539131508406975,0.33569848172737693,0.15259021896690683,1.0681315327688026
1539131508422973,-1.4343480582895154,-0.45777065690094787,0.8239871824216607
1539131508438954,-1.9226367589837992,-1.4343480582895154,0.8239871824216607
1539131508454936,0.33569848172737693,-1.8616006713969,1.3122758831159445
1539131508470917,3.875791561760934,-1.5564202334630863,1.739528496223329
1539131508486898,4.9134050507361735,-0.9460593575952316,1.6174563210497581
1539131508502879,3.692683299000464,-0.3967345693140487,1.0070954451819034
1539131508518860,1.2512397955290453,0.2746623941404778,0.213626306553806
1539131508534842,-0.2746623941404778,0.9460593575952316,-0.15259021896690683
1539131508550823,0.15259021896690683,1.6784924086366573,-0.213626306553806
1539131508566804,1.3733119707026162,2.105745021744042,-0.2746623941404778
1539131508582785,2.227817196917613,2.04470893415737,-0.6408789196611906
1539131508598766,1.3122758831159445,1.4953841458761872,-0.8239871824216607
1539131508614748,-0.33569848172737693,1.1291676203554744,-0.8850232700083325
1539131508630729,-0.8239871824216607,1.1902037079423735,-0.45777065690094787
1539131508646710,0.03051804379333589,1.4953841458761872,0.03051804379333589
1539131508662691,1.4343480582895154,1.8616006713969,0.15259021896690683
1539131508678672,2.8381780727854675,1.4953841458761872,0.15259021896690683
1539131508694654,2.8992141603723667,1.0681315327688026,0.2746623941404778
1539131508710635,3.570611123826893,0.8850232700083325,0.3967345693140487
1539131508726616,3.0823224231326094,0.8239871824216607,0.3967345693140487
1539131508742584,1.4343480582895154,1.0070954451819034,0.33569848172737693
1539131508758565,-1.0681315327688026,0.7019150072480898,0.09155413138023505
1539131508774546,-2.227817196917613,0.2746623941404778,-0.03051804379333589
1539131508790527,-0.8850232700083325,-0.03051804379333589,-0.03051804379333589
1539131508806509,1.0681315327688026,-0.3967345693140487,0.03051804379333589
1539131508822490,1.3733119707026162,-0.8239871824216607,0.15259021896690683
1539131508838471,0.213626306553806,-1.1902037079423735,0.3967345693140487
1539131508854452,-1.6174563210497581,-1.739528496223329,0.5798428320745188
1539131508870433,-1.8005645838102282,-1.739528496223329,0.9460593575952316
1539131508886415,0.213626306553806,-2.227817196917613,0.8850232700083325
1539131508902396,1.983672846570471,-2.8992141603723667,0.45777065690094787
1539131508918377,1.3733119707026162,-3.1433585107195086,-0.213626306553806
1539131508934358,0.09155413138023505,-3.875791561760934,-0.33569848172737693
1539131508950339,0.15259021896690683,-3.814755474174035,-0.33569848172737693
1539131508966321,3.936827649347606,-2.9602502479590385,-0.213626306553806
1539131508982302,7.2938124666209205,-3.0212863355459376,-0.45777065690094787
1539131508998283,5.157549401083315,-2.9602502479590385,-1.0681315327688026
1539131509014264,3.6316472114137923,-2.105745021744042,-1.3733119707026162
1539131509030245,2.105745021744042,-0.8850232700083325,-1.2512397955290453
1539131509046227,-1.2512397955290453,-0.213626306553806,-1.4343480582895154
1539131509062194,-3.3264667734797513,-0.3967345693140487,-1.4953841458761872
1539131509078176,-1.3733119707026162,-1.1291676203554744,-1.3733119707026162
1539131509094157,1.1291676203554744,-1.739528496223329,-0.9460593575952316
1539131509110138,4.547188525215461,-1.9226367589837992,-0.213626306553806
1539131509126119,6.8665598535133086,-2.288853284504512,0.33569848172737693
1539131509142100,8.148317692835917,-2.7161058976118966,0.8850232700083325
1539131509158082,11.810482948043045,-2.410925459678083,1.4953841458761872
1539131509174063,15.594720378423744,-2.288853284504512,1.9226367589837992
1539131509190044,17.66994735637445,-2.4719615472647547,2.166781109330941
1539131509206025,17.24269474326684,-3.0823224231326094,1.8616006713969
1539131509222006,12.481879911497572,-3.0823224231326094,1.3733119707026162
1539131509237988,9.55214770733187,-1.6174563210497581,1.4343480582895154
1539131509253969,6.8665598535133086,-1.4953841458761872,1.4343480582895154
1539131509269950,5.706874189364498,-2.166781109330941,1.2512397955290453
1539131509285931,6.378271152819025,-2.7161058976118966,1.8005645838102282
1539131509301912,7.598992904554734,-1.3733119707026162,3.0212863355459376
1539131509317894,10.223544670786623,0.213626306553806,4.180971999694748
1539131509333875,12.23773556115043,0.03051804379333589,4.669260700389032
1539131509349856,13.214312962538997,-0.5188067444876197,4.9134050507361735
1539131509365837,13.092240787365427,-0.6408789196611906,4.9134050507361735
1539131509381805,13.58052948805971,-1.0070954451819034,4.60822461280236
1539131509397786,18.76859693293659,-0.45777065690094787,5.3406576638437855
1539131509413767,23.651483939879427,2.9602502479590385,6.744487678339738
1539131509429749,22.003509575036105,4.486152437628789,7.660028992141633
1539131509445730,14.373998626688035,2.5940337224383256,7.598992904554734
1539131509461711,11.322194247348762,-1.739528496223329,6.317235065232353
1539131509477692,13.092240787365427,-4.364080262455218,5.462729839017356
1539131509493673,13.885709925993751,-4.180971999694748,5.0354772259097444
1539131509509655,17.181658655680167,-0.3967345693140487,5.401693751430457
1539131509525636,11.749446860456146,2.410925459678083,5.645838101777599
1539131509541617,4.852368963149502,2.227817196917613,4.42511635004189
1539131509557598,-1.1902037079423735,1.0070954451819034,3.0212863355459376
1539131509573579,-5.157549401083315,-0.15259021896690683,1.1291676203554744
1539131509589561,-6.378271152819025,-2.04470893415737,-0.8239871824216607
1539131509605542,-4.180971999694748,-2.9602502479590385,-1.4953841458761872
1539131509621523,0.15259021896690683,-0.8239871824216607,-1.3733119707026162
1539131509637504,0.6408789196611906,1.6174563210497581,-0.9460593575952316
1539131509653485,-2.532997634851654,3.570611123826893,-0.8850232700083325
1539131509669467,-9.002822919050914,3.4485389486533222,-1.5564202334630863
1539131509685448,-13.153276874952326,2.7771419851987957,-1.8616006713969
1539131509701446,-11.322194247348762,3.692683299000464,-1.9226367589837992
1539131509717427,-7.2938124666209205,4.60822461280236,-1.4953841458761872
1539131509733409,-3.0823224231326094,4.60822461280236,-1.4953841458761872
1539131509749390,-0.213626306553806,3.7537193865873633,-1.2512397955290453
1539131509765371,2.166781109330941,4.119935912108076,-0.7629510948347615
1539131509781352,3.1433585107195086,5.523765926604028,-0.9460593575952316
1539131509797333,-1.1291676203554744,5.95101853971164,-1.6174563210497581
1539131509813315,-5.2185854886702145,5.95101853971164,-2.3498893720911838
1539131509829296,-7.476920729381163,6.195162890058782,-2.4719615472647547
1539131509845277,-9.246967269398056,6.317235065232353,-2.04470893415737
1539131509861258,-9.185931181811156,6.317235065232353,-1.4343480582895154
1539131509877239,-7.17174029144735,5.584802014190927,-0.8239871824216607
1539131509893221,-5.645838101777599,4.303044174868319,0.09155413138023505
1539131509909202,-1.8616006713969,3.3264667734797513,1.1291676203554744
1539131509925183,2.3498893720911838,2.3498893720911838,2.166781109330941
1539131509941164,5.706874189364498,0.8239871824216607,2.8992141603723667
1539131509957145,7.4158846417944915,-0.3967345693140487,3.2043945983061803
1539131509973127,7.660028992141633,-0.7629510948347615,3.2654306858930795
1539131509989108,5.95101853971164,-0.8850232700083325,3.0212863355459376
1539131510005089,5.523765926604028,-0.7629510948347615,2.9602502479590385
1539131510021026,7.782101167315204,-0.03051804379333589,2.7771419851987957
1539131510037007,8.6366063935302,0.5188067444876197,2.288853284504512
1539131510052989,6.012054627298312,0.5798428320745188,1.8616006713969
1539131510068970,3.4485389486533222,0.7629510948347615,1.6174563210497581
1539131510084951,1.8616006713969,1.1291676203554744,1.2512397955290453
1539131510100932,1.0070954451819034,1.6174563210497581,0.8239871824216607
1539131510116913,1.4953841458761872,2.227817196917613,0.45777065690094787
1539131510132895,2.7771419851987957,2.8381780727854675,0.03051804379333589
1539131510148876,2.4719615472647547,3.3875028610666504,-0.213626306553806
1539131510164857,1.6174563210497581,3.875791561760934,-0.9460593575952316
1539131510180838,-0.3967345693140487,3.875791561760934,-1.5564202334630863
1539131510196819,-1.8616006713969,3.5095750362402214,-2.105745021744042
1539131510212801,-2.4719615472647547,3.0823224231326094,-2.4719615472647547
1539131510228782,-4.119935912108076,2.8381780727854675,-2.410925459678083
1539131510244763,-4.486152437628789,2.7161058976118966,-1.9226367589837992
1539131510260744,-4.42511635004189,2.655069810025225,-1.4343480582895154
1539131510276725,-2.7771419851987957,2.410925459678083,-0.8850232700083325
1539131510292707,1.1291676203554744,1.8005645838102282,-0.213626306553806
1539131510308688,3.692683299000464,0.45777065690094787,0.3967345693140487
1539131510324669,3.0212863355459376,-1.3122758831159445,0.5188067444876197
1539131510340637,-2.3498893720911838,-3.997863736934505,-0.5798428320745188
1539131510356618,-11.627374685282575,-7.4158846417944915,-2.7771419851987957
1539131510372599,-14.312962539101136,-9.796292057679011,-4.119935912108076
1539131510388580,-8.33142595559616,-10.284580758373295,-3.7537193865873633
1539131510404562,0.5188067444876197,-9.246967269398056,-2.410925459678083
1539131510420543,7.843137254901876,-7.17174029144735,-0.7019150072480898
1539131510436524,11.20012207217519,-4.791332875562603,0.15259021896690683
1539131510452505,8.45349813076973,-2.7161058976118966,-0.03051804379333589
1539131510468486,2.3498893720911838,-0.8850232700083325,-0.7019150072480898
1539131510484468,-3.2654306858930795,0.3967345693140487,-1.3122758831159445
1539131510500449,-6.561379415579495,1.4953841458761872,-1.5564202334630863
1539131510516430,-7.598992904554734,2.288853284504512,-1.5564202334630863
1539131510532411,-6.744487678339738,2.655069810025225,-1.4953841458761872
1539131510548392,-5.279621576256886,2.8992141603723667,-1.3122758831159445
1539131510564374,-2.227817196917613,3.0823224231326094,-1.4343480582895154
1539131510580355,-0.213626306553806,3.2043945983061803,-1.6174563210497581
1539131510596336,0.7019150072480898,3.3875028610666504,-1.8005645838102282
1539131510612317,1.1902037079423735,3.3264667734797513,-1.983672846570471
1539131510628298,2.655069810025225,3.570611123826893,-2.04470893415737
1539131510644280,3.4485389486533222,3.875791561760934,-2.105745021744042
1539131510660247,2.288853284504512,3.997863736934505,-2.105745021744042
1539131510676228,0.7019150072480898,4.180971999694748,-2.227817196917613
1539131510692209,-1.3733119707026162,4.180971999694748,-2.227817196917613
1539131510708190,-2.5940337224383256,3.997863736934505,-1.983672846570471
1539131510724170,-2.105745021744042,3.6316472114137923,-1.8616006713969
1539131510740151,-0.8239871824216607,3.5095750362402214,-1.4953841458761872
1539131510756132,2.410925459678083,3.3875028610666504,-1.1902037079423735
1539131510772112,2.166781109330941,3.2043945983061803,-1.0070954451819034
1539131510788093,0.3967345693140487,3.0212863355459376,-1.0681315327688026
1539131510804074,-1.6174563210497581,2.655069810025225,-1.1902037079423735
1539131510820055,-2.227817196917613,2.532997634851654,-0.9460593575952316
1539131510836035,-0.5798428320745188,2.288853284504512,-0.2746623941404778
1539131510852016,1.0681315327688026,2.166781109330941,0.213626306553806
1539131510867997,0.9460593575952316,1.983672846570471,0.45777065690094787
1539131510883978,1.4343480582895154,1.6174563210497581,0.5798428320745188
1539131510899958,0.5798428320745188,1.0070954451819034,0.5798428320745188
1539131510915939,0.213626306553806,0.09155413138023505,0.7629510948347615
1539131510931920,-0.09155413138023505,-0.45777065690094787,0.7629510948347615
1539131510947900,0.15259021896690683,-0.8239871824216607,0.9460593575952316
1539131510963881,0.8239871824216607,-0.8850232700083325,1.4953841458761872
1539131510979858,3.0212863355459376,-0.45777065690094787,2.5940337224383256
1539131510995839,5.462729839017356,0.33569848172737693,3.997863736934505
1539131511011819,4.974441138323073,0.9460593575952316,4.852368963149502
1539131511027800,1.8616006713969,1.2512397955290453,5.096513313496644
1539131511043781,-0.3967345693140487,1.6784924086366573,4.60822461280236
1539131511059762,-0.45777065690094787,1.983672846570471,3.875791561760934
1539131511075742,1.3733119707026162,2.04470893415737,2.9602502479590385
1539131511091723,3.3875028610666504,1.8005645838102282,1.4953841458761872
1539131511107704,4.669260700389032,1.4343480582895154,0.15259021896690683
1539131511123685,4.119935912108076,1.1902037079423735,-0.7629510948347615
1539131511139665,3.0823224231326094,1.2512397955290453,-1.1291676203554744
1539131511155646,1.5564202334630863,1.6784924086366573,-0.9460593575952316
1539131511171627,-1.4343480582895154,2.166781109330941,-0.6408789196611906
1539131511187607,-3.7537193865873633,2.410925459678083,-0.5188067444876197
1539131511203588,-3.814755474174035,2.532997634851654,-0.7019150072480898
1539131511219569,-3.1433585107195086,2.4719615472647547,-1.1291676203554744
1539131511235550,-2.410925459678083,2.410925459678083,-1.3733119707026162
1539131511251530,-1.0070954451819034,2.166781109330941,-1.4953841458761872
1539131511267511,-0.03051804379333589,1.9226367589837992,-1.4953841458761872
1539131511283492,2.288853284504512,1.739528496223329,-1.3122758831159445
1539131511299469,2.655069810025225,1.4343480582895154,-1.0070954451819034
1539131511315449,0.03051804379333589,1.1291676203554744,-0.7629510948347615
1539131511331430,-2.7161058976118966,0.9460593575952316,-0.3967345693140487
1539131511347411,-2.166781109330941,0.9460593575952316,0.213626306553806
1539131511363392,1.0070954451819034,1.1902037079423735,0.8239871824216607
1539131511379372,2.9602502479590385,1.5564202334630863,1.2512397955290453
1539131511395353,2.9602502479590385,1.8616006713969,1.5564202334630863
1539131511411334,1.1902037079423735,2.166781109330941,1.6784924086366573
1539131511427314,-0.33569848172737693,2.7771419851987957,1.983672846570471
1539131511443295,-0.33569848172737693,3.3264667734797513,2.04470893415737
1539131511459276,0.33569848172737693,3.4485389486533222,1.8616006713969
1539131511475257,1.0681315327688026,2.8381780727854675,1.3122758831159445
1539131511491237,1.3733119707026162,1.9226367589837992,0.7629510948347615
1539131511507218,0.8239871824216607,1.1291676203554744,0.2746623941404778
1539131511523199,-0.45777065690094787,0.8850232700083325,-0.09155413138023505
1539131511539179,-1.5564202334630863,0.9460593575952316,-0.3967345693140487
1539131511555160,-1.8005645838102282,1.5564202334630863,-0.6408789196611906
1539131511571141,-1.8616006713969,2.166781109330941,-0.8850232700083325
1539131511587122,-2.9602502479590385,2.7771419851987957,-0.7629510948347615
1539131511603102,-3.0823224231326094,3.6316472114137923,-0.7019150072480898
1539131511619110,-1.1291676203554744,3.875791561760934,-0.7019150072480898
1539131511635090,1.1291676203554744,4.058899824521177,-0.6408789196611906
1539131511651071,1.0070954451819034,4.242008087281647,-0.6408789196611906
1539131511667052,-1.739528496223329,4.119935912108076,-0.8239871824216607
1539131511683033,-3.2043945983061803,4.058899824521177,-0.8850232700083325
1539131511699013,-2.532997634851654,3.997863736934505,-0.8239871824216607
1539131511714994,-0.7019150072480898,3.936827649347606,-0.7629510948347615
1539131511730975,0.03051804379333589,3.570611123826893,-0.5798428320745188
1539131511746955,-0.7629510948347615,3.2654306858930795,-0.6408789196611906
1539131511762936,-2.227817196917613,2.8381780727854675,-0.7629510948347615
1539131511778917,-3.1433585107195086,2.410925459678083,-0.9460593575952316
1539131511794898,-3.5095750362402214,1.6784924086366573,-1.0681315327688026
1539131511810878,-3.997863736934505,0.7019150072480898,-1.3733119707026162
1539131511826859,-6.744487678339738,-0.33569848172737693,-1.6784924086366573
1539131511842840,-8.697642481116873,-0.7629510948347615,-1.9226367589837992
1539131511858821,-7.660028992141633,-0.5188067444876197,-1.6784924086366573
1539131511874801,-4.119935912108076,-0.03051804379333589,-1.0070954451819034
1539131511890782,-0.5798428320745188,0.2746623941404778,-0.5188067444876197
1539131511906763,0.8239871824216607,0.15259021896690683,-0.33569848172737693
1539131511922743,0.09155413138023505,-0.03051804379333589,-0.3967345693140487
1539131511938720,-0.5798428320745188,-0.33569848172737693,-0.3967345693140487
1539131511954701,-1.3733119707026162,-0.5798428320745188,-0.15259021896690683
1539131511970682,-1.4343480582895154,-0.7629510948347615,0.33569848172737693
1539131511986662,-0.33569848172737693,-0.7019150072480898,0.8850232700083325
1539131512002643,1.4343480582895154,-0.213626306553806,1.2512397955290453
1539131512018624,2.04470893415737,0.2746623941404778,1.4343480582895154
1539131512034605,0.8850232700083325,1.1291676203554744,1.4343480582895154
1539131512050585,-2.532997634851654,1.739528496223329,0.8850232700083325
1539131512066566,-5.76791027695117,2.105745021744042,0.33569848172737693
1539131512082547,-5.889982452124741,2.288853284504512,0.09155413138023505
1539131512098528,-2.3498893720911838,2.8992141603723667,0.09155413138023505
1539131512114508,-0.09155413138023505,3.0212863355459376,0.213626306553806
1539131512130489,1.1291676203554744,2.5940337224383256,0.03051804379333589
1539131512146470,1.8005645838102282,3.0823224231326094,-0.3967345693140487
1539131512162450,0.7629510948347615,2.4719615472647547,-0.8850232700083325
1539131512178431,-0.5798428320745188,1.739528496223329,-1.0070954451819034
1539131512194412,-1.4343480582895154,1.1291676203554744,-0.8850232700083325
1539131512210393,-0.9460593575952316,0.33569848172737693,-0.7629510948347615
1539131512226373,0.6408789196611906,-0.2746623941404778,-0.5188067444876197
1539131512242354,4.119935912108076,-0.3967345693140487,-0.2746623941404778
1539131512258331,5.889982452124741,-0.213626306553806,-0.03051804379333589
1539131512274312,6.500343327992596,0.03051804379333589,-0.09155413138023505
1539131512290292,8.026245517662346,0.15259021896690683,0.03051804379333589
1539131512306273,8.209353780422589,0.2746623941404778,0.33569848172737693
1539131512322254,3.5095750362402214,0.3967345693140487,0.15259021896690683
1539131512338235,-1.8616006713969,0.213626306553806,-0.15259021896690683
1539131512354215,-2.7771419851987957,0.09155413138023505,0.09155413138023505
1539131512370196,-0.9460593575952316,-0.03051804379333589,1.0681315327688026
1539131512386177,2.532997634851654,-0.213626306553806,1.9226367589837992
1539131512402157,5.462729839017356,-0.6408789196611906,2.532997634851654
1539131512418138,7.2938124666209205,-1.0681315327688026,2.7161058976118966
1539131512434119,6.805523765926637,-1.5564202334630863,2.8381780727854675
1539131512450100,5.0354772259097444,-1.739528496223329,2.655069810025225
1539131512466080,3.875791561760934,-1.4953841458761872,2.288853284504512
1539131512482061,2.8992141603723667,-1.0070954451819034,1.8616006713969
1539131512498042,2.5940337224383256,-0.33569848172737693,1.3122758831159445
1539131512514022,2.532997634851654,0.2746623941404778,0.8239871824216607
1539131512530003,2.410925459678083,0.8850232700083325,0.45777065690094787
1539131512545984,2.655069810025225,1.1902037079423735,0.03051804379333589
1539131512561965,3.3264667734797513,1.1902037079423735,-0.03051804379333589
1539131512577942,3.2043945983061803,1.1291676203554744,0.09155413138023505
1539131512593922,2.8992141603723667,1.2512397955290453,0.213626306553806
1539131512609903,2.8992141603723667,1.8005645838102282,0.45777065690094787
1539131512625884,2.7771419851987957,2.532997634851654,0.5798428320745188
1539131512641864,2.8381780727854675,2.9602502479590385,0.45777065690094787
1539131512657845,3.3875028610666504,2.7771419851987957,0.09155413138023505
1539131512673826,3.2654306858930795,2.227817196917613,-0.3967345693140487
1539131512689807,1.1902037079423735,1.3122758831159445,-0.7629510948347615
1539131512705787,-2.532997634851654,0.7019150072480898,-1.1291676203554744
1539131512721768,-6.927595941100208,0.5188067444876197,-1.4953841458761872
1539131512737749,-10.650797283894008,0.33569848172737693,-1.5564202334630863
1539131512753729,-13.336385137712568,-0.03051804379333589,-1.3733119707026162
1539131512769710,-13.64156557564661,-0.3967345693140487,-1.2512397955290453
1539131512785691,-12.542915999084471,-0.8239871824216607,-1.0070954451819034
1539131512801672,-10.406652933546866,-1.1291676203554744,-0.6408789196611906
1539131512817652,-7.721065079728305,-1.0681315327688026,-0.33569848172737693
1539131512833633,-5.706874189364498,-0.5188067444876197,-0.03051804379333589
1539131512849614,-4.058899824521177,0.03051804379333589,0.03051804379333589
1539131512865594,-2.227817196917613,0.45777065690094787,0.15259021896690683
1539131512881575,-0.03051804379333589,0.7629510948347615,0.15259021896690683
1539131512897522,0.5798428320745188,0.8850232700083325,0.09155413138023505
1539131512913502,-0.5188067444876197,1.0070954451819034,-0.09155413138023505
1539131512929483,-1.3733119707026162,0.8239871824216607,0.03051804379333589
1539131512945464,-2.288853284504512,0.5188067444876197,-0.15259021896690683
1539131512961444,-2.655069810025225,-0.15259021896690683,-0.33569848172737693
1539131512977425,-1.0070954451819034,-0.8239871824216607,-0.45777065690094787
1539131512993406,0.7629510948347615,-1.983672846570471,-0.7019150072480898
1539131513009387,-0.15259021896690683,-3.3875028610666504,-1.0070954451819034
1539131513025367,-3.875791561760934,-5.3406576638437855,-1.6174563210497581
1539131513041348,-8.51453421835663,-8.33142595559616,-2.105745021744042
1539131513057329,-8.392462043183059,-12.054627298390187,-1.4343480582895154
1539131513073310,0.8850232700083325,-17.181658655680167,-1.0681315327688026
1539131513089290,16.510261692225413,-22.8580148012511,0.8239871824216607
1539131513105271,34.2107270923932,-25.48256656748299,2.7161058976118966
1539131513121252,41.412985427633885,-23.163195239185143,4.242008087281647
1539131513137232,33.783474479285815,-13.946746013580423,4.9134050507361735
1539131513153213,10.162508583199724,0.15259021896690683,3.2043945983061803
1539131513169194,-3.0823224231326094,17.60891126878755,-2.04470893415737
1539131513185175,-1.1291676203554744,46.11276417181648,-6.622415503166167
1539131513201155,-9.796292057679011,76.02044708934181,-9.002822919050914
1539131513217132,-29.32784008545036,106.72159914549502,-6.195162890058782
1539131513233113,-45.685511558709095,130.03738460364684,-3.1433585107195086
1539131513249094,-52.70466163118954,145.47951476310345,-1.3733119707026162
1539131513265074,-43.183031967651004,152.74280918593104,-1.6174563210497581
1539131513281055,-26.52018005645823,154.39078355077436,-1.5564202334630863
1539131513297036,-12.481879911497572,150.97276264591437,-1.2512397955290453
1539131513313017,-2.8381780727854675,148.53131914244295,1.983672846570471
1539131513328997,-12.603952086671143,141.45113298237584,7.354848554207592
1539131513344978,-17.181658655680167,129.67116807812636,11.932555123216616
1539131513360959,-2.8381780727854675,114.41214618142976,14.312962539101136
1539131513376939,7.843137254901876,103.48668650339505,16.876478217746126
1539131513392920,9.85732814526591,91.70672159914557,19.80621042191183
1539131513408901,4.669260700389032,78.03463797970562,24.567025253681095
1539131513424882,0.213626306553806,64.42359044785235,30.60959792477297
1539131513440862,8.392462043183059,48.31006332494053,34.45487144274034
1539131513456843,19.073777370870403,32.379644464789635,36.346990157930804
1539131513472824,21.881437399862534,16.1440451667047,37.689784084840085
1539131513488804,18.097199969481835,-1.3733119707026162,39.032578011749365
1539131513504785,22.430762188143717,-25.787747005416804,38.11703669794747
1539131513520766,38.849469748988895,-57.34340428778523,34.57694361791391
1539131513536773,61.9211108567938,-92.07293812466605,30.121309224078686
1539131513552754,71.8699931334404,-125.70382238498519,22.49179827573039
1539131513568735,41.7792019531546,-161.59304188601527,12.359807736324
1539131513584715,-6.195162890058782,-204.92866407263296,-2.7771419851987957
1539131513600696,-32.19653620202962,-260.1663233386739,-22.61387045090396
1539131513616677,-32.806897077897474,-331.94476234073386,-51.85015640497454
1539131513632658,-20.904859998473967,-408.9112687876709,-81.75783932249942
1539131513648638,-273.89944304570076,-103.12046997787456,-15.411612115663274
1539131513664619,111.23826962691692,46.35690852216362,-2.04470893415737
1539131513680600,3.1433585107195086,-31.158922713053926,-29.999237048905115
1539131513696581,-62.836652170595926,-93.17158770122819,-49.774929427023835
1539131513712561,-143.7094682230868,-80.59815365835038,-31.280994888227724
1539131513728542,-37.20149538414603,-35.79766536964985,-2.8381780727854675
1539131513744523,171.29777981231382,11.322194247348762,12.664988174258042
1539131513760503,177.88967727168665,38.0560006103608,18.95170519569683
1539131513776484,45.380331120775054,54.10849164568526,23.590447852292527
1539131513792465,17.730983443961122,79.13328755626799,22.49179827573039
1539131513808446,-15.045395590142562,88.10559243152511,18.89066910811016
1539131513824426,-25.48256656748299,84.62653543907845,10.955977721828049
1539131513840407,-22.49179827573039,74.98283360036658,2.7161058976118966
1539131513856384,-13.885709925993751,59.662775616082854,-3.997863736934505
1539131513872365,-7.232776379034021,40.192263675898175,-7.660028992141633
1539131513888345,4.119935912108076,20.05035477225897,-11.01701380941472
1539131513904326,9.185931181811156,4.547188525215461,-14.190890363927565
1539131513920307,5.0354772259097444,-4.974441138323073,-16.571297779812312
1539131513936288,-3.875791561760934,-10.467689021133765,-17.730983443961122
1539131513952268,-4.42511635004189,-15.228503852903032,-18.402380407415876
1539131513968249,6.8665598535133086,-20.23346303501944,-18.463416495002548
1539131513984230,18.097199969481835,-20.11139085984587,-17.36476691844041
1539131514000210,10.833905546654478,-15.960936903944457,-14.312962539101136
1539131514016191,-3.814755474174035,-10.772869459067579,-10.223544670786623
1539131514032172,-9.002822919050914,-7.11070420386045,-6.927595941100208
1539131514048153,-6.073090714885211,-6.500343327992596,-3.692683299000464
1539131514064133,4.180971999694748,-4.669260700389032,-0.7019150072480898
1539131514080114,2.7161058976118966,-3.6316472114137923,2.410925459678083
1539131514096095,-3.2654306858930795,-3.5095750362402214,5.401693751430457
1539131514112075,-4.303044174868319,-5.157549401083315,7.11070420386045
1539131514128056,-2.105745021744042,-8.392462043183059,8.209353780422589
1539131514144037,6.195162890058782,-11.261158159761862,8.6366063935302
1539131514160018,8.45349813076973,-13.519493400473038,8.6366063935302
1539131514175994,4.9134050507361735,-14.80125123979542,8.33142595559616
1539131514191975,4.364080262455218,-15.777828641183987,7.354848554207592
1539131514207956,3.4485389486533222,-17.42580300602731,5.706874189364498
1539131514223937,6.134126802471883,-18.036163881895163,4.058899824521177
1539131514239917,8.270389868009488,-18.463416495002548,2.227817196917613
1539131514255898,3.5095750362402214,-19.195849546043974,0.7629510948347615
1539131514271879,-0.2746623941404778,-20.11139085984587,-1.1291676203554744
1539131514287860,0.3967345693140487,-18.82963302052326,-2.7161058976118966
1539131514303840,3.6316472114137923,-16.632333867398984,-3.2043945983061803
1539131514319821,4.669260700389032,-14.190890363927565,-3.2043945983061803
1539131514335802,4.058899824521177,-12.176699473563758,-3.4485389486533222
1539131514351782,-1.1902037079423735,-10.833905546654478,-3.2043945983061803
1539131514367763,-1.9226367589837992,-10.406652933546866,-3.5095750362402214
1539131514383744,0.09155413138023505,-10.833905546654478,-4.791332875562603
1539131514399725,0.15259021896690683,-10.772869459067579,-5.645838101777599
1539131514415705,1.0681315327688026,-9.918364232852582,-5.76791027695117
1539131514431686,1.0070954451819034,-9.796292057679011,-4.974441138323073
1539131514447667,0.2746623941404778,-9.979400320439481,-3.7537193865873633
1539131514463647,-10.162508583199724,-9.613183794918768,-1.739528496223329
1539131514479628,-3.7537193865873633,-5.584802014190927,0.15259021896690683
1539131514495605,4.730296787975931,0.7629510948347615,1.5564202334630863
1539131514511586,9.491111619745197,6.378271152819025,1.5564202334630863
1539131514527567,7.4158846417944915,9.063859006637585,0.8239871824216607
1539131514543547,2.4719615472647547,7.4158846417944915,0.09155413138023505
1539131514559528,-3.692683299000464,2.655069810025225,-0.5798428320745188
1539131514575509,-7.11070420386045,-2.655069810025225,-0.5798428320745188
1539131514591489,-5.096513313496644,-6.073090714885211,0.09155413138023505
1539131514607470,0.33569848172737693,-5.462729839017356,1.1291676203554744
1539131514623451,6.744487678339738,-1.4343480582895154,1.8005645838102282
1539131514639432,14.373998626688035,3.814755474174035,1.3122758831159445
1539131514655412,16.571297779812312,6.073090714885211,0.15259021896690683
1539131514671393,12.664988174258042,5.157549401083315,-0.7019150072480898
1539131514687374,7.476920729381163,2.9602502479590385,-1.983672846570471
1539131514703354,2.4719615472647547,1.8005645838102282,-2.655069810025225
1539131514719335,2.9602502479590385,1.4953841458761872,-2.410925459678083
1539131514735316,7.049668116273779,1.6174563210497581,-1.5564202334630863
1539131514751297,11.261158159761862,2.288853284504512,-0.45777065690094787
1539131514767277,15.045395590142562,2.3498893720911838,0.6408789196611906
1539131514783258,15.777828641183987,1.8005645838102282,1.3733119707026162
1539131514799239,14.92332341496899,1.3733119707026162,1.5564202334630863
1539131514815216,15.289539940489703,1.5564202334630863,1.739528496223329
1539131514831196,14.373998626688035,1.6174563210497581,1.6784924086366573
1539131514847177,13.031204699778755,1.3733119707026162,1.3733119707026162
1539131514863158,12.23773556115043,1.3122758831159445,1.4953841458761872
1539131514879139,12.787060349431613,1.6784924086366573,1.4953841458761872
1539131514895119,15.045395590142562,1.983672846570471,1.8005645838102282
1539131514911100,18.097199969481835,2.655069810025225,2.227817196917613
1539131514927081,20.35553521019301,3.0823224231326094,2.410925459678083
1539131514943061,19.501029983978015,3.1433585107195086,2.288853284504512
1539131514959042,17.66994735637445,3.2654306858930795,2.288853284504512
1539131514975023,14.190890363927565,3.2654306858930795,2.166781109330941
1539131514991004,11.932555123216616,2.7771419851987957,2.166781109330941
1539131515006984,11.627374685282575,2.410925459678083,2.166781109330941
1539131515022965,12.054627298390187,2.288853284504512,2.105745021744042
1539131515038946,11.20012207217519,1.9226367589837992,1.739528496223329
1539131515054926,8.697642481116873,1.4953841458761872,1.0681315327688026
1539131515070907,6.8665598535133086,0.8239871824216607,0.33569848172737693
1539131515086888,6.683451590753066,0.2746623941404778,0.15259021896690683
1539131515102869,6.805523765926637,0.09155413138023505,0.3967345693140487
1539131515118849,5.401693751430457,0.03051804379333589,0.2746623941404778
1539131515134857,2.3498893720911838,-0.09155413138023505,-0.2746623941404778
1539131515150838,-0.8850232700083325,-0.2746623941404778,-0.33569848172737693
1539131515166818,-2.7161058976118966,-0.2746623941404778,-0.33569848172737693
1539131515182799,-2.288853284504512,0.09155413138023505,-0.03051804379333589
1539131515198780,-1.983672846570471,0.8239871824216607,0.33569848172737693
1539131515214760,-1.1291676203554744,0.8850232700083325,0.2746623941404778
1539131515230741,0.5188067444876197,0.9460593575952316,0.45777065690094787
1539131515246722,2.4719615472647547,0.8850232700083325,0.33569848172737693
1539131515262703,2.7771419851987957,0.8239871824216607,0.15259021896690683
1539131515278683,1.4343480582895154,0.9460593575952316,-0.03051804379333589
1539131515294664,-0.15259021896690683,1.1902037079423735,-0.2746623941404778
1539131515310645,-1.3733119707026162,2.105745021744042,-0.7019150072480898
1539131515326625,-1.4953841458761872,2.4719615472647547,-1.1291676203554744
1539131515342606,-2.4719615472647547,2.655069810025225,-1.0681315327688026
1539131515358587,-3.5095750362402214,3.0212863355459376,-0.9460593575952316
1539131515374568,-2.04470893415737,2.5940337224383256,-1.0681315327688026
1539131515390548,0.33569848172737693,2.410925459678083,-0.8850232700083325
1539131515406529,1.1291676203554744,2.7161058976118966,-0.5188067444876197
1539131515422510,1.3733119707026162,2.655069810025225,-0.3967345693140487
1539131515438490,2.410925459678083,2.105745021744042,-0.213626306553806
1539131515454467,1.739528496223329,2.105745021744042,-0.03051804379333589
1539131515470448,1.0681315327688026,2.166781109330941,0.03051804379333589
1539131515486429,-0.33569848172737693,2.04470893415737,-0.03051804379333589
1539131515502410,0.8239871824216607,2.166781109330941,-0.2746623941404778
1539131515518390,1.6784924086366573,1.983672846570471,-0.33569848172737693
1539131515534371,0.8850232700083325,1.8005645838102282,-0.45777065690094787
1539131515550352,-1.1291676203554744,1.6174563210497581,-0.5798428320745188
1539131515566332,-1.983672846570471,1.3122758831159445,-0.8239871824216607
1539131515582313,-0.9460593575952316,1.0681315327688026,-0.5798428320745188
1539131515598294,0.8239871824216607,0.8850232700083325,-0.2746623941404778
1539131515614275,1.983672846570471,0.8850232700083325,0.09155413138023505
1539131515630255,1.4343480582895154,0.7629510948347615,0.33569848172737693
1539131515646236,-0.213626306553806,0.5188067444876197,0.213626306553806
1539131515662217,-2.288853284504512,0.213626306553806,0.15259021896690683
1539131515678197,-2.7771419851987957,-0.03051804379333589,0.09155413138023505
1539131515694178,-1.8005645838102282,0.03051804379333589,0.03051804379333589
1539131515710159,0.7629510948347615,0.213626306553806,0.03051804379333589
1539131515726140,2.288853284504512,0.5188067444876197,-0.03051804379333589
1539131515742120,2.410925459678083,0.9460593575952316,-0.2746623941404778
1539131515758101,1.2512397955290453,1.0070954451819034,-0.7019150072480898
1539131515774078,-0.7629510948347615,1.3122758831159445,-1.1291676203554744
1539131515790059,-1.8616006713969,1.6174563210497581,-1.3122758831159445
1539131515806039,-2.166781109330941,1.6174563210497581,-1.2512397955290453
1539131515822020,-2.105745021744042,2.04470893415737,-1.0681315327688026
1539131515838001,-1.3122758831159445,2.410925459678083,-1.0070954451819034
1539131515853982,-0.7019150072480898,2.532997634851654,-0.8850232700083325
1539131515869962,0.09155413138023505,2.410925459678083,-0.8239871824216607
1539131515885943,-0.5188067444876197,2.04470893415737,-0.8239871824216607
1539131515901924,-0.9460593575952316,1.4953841458761872,-0.5188067444876197
1539131515917904,0.03051804379333589,1.1291676203554744,0.03051804379333589
1539131515933885,1.8616006713969,0.6408789196611906,0.45777065690094787
1539131515949866,2.4719615472647547,0.213626306553806,0.45777065690094787
1539131515965847,1.8616006713969,-0.15259021896690683,0.33569848172737693
1539131515981827,1.1291676203554744,-0.2746623941404778,0.09155413138023505
1539131515997808,0.09155413138023505,-0.45777065690094787,-0.09155413138023505
1539131516013789,2.227817196917613,-0.5188067444876197,-0.15259021896690683
1539131516029770,6.195162890058782,-0.5798428320745188,-0.03051804379333589
1539131516045750,8.758678568703772,-0.7019150072480898,-0.213626306553806
1539131516061731,9.124895094224485,-0.8239871824216607,-0.5798428320745188
1539131516077712,5.645838101777599,-0.7629510948347615,-1.1902037079423735
1539131516093658,1.0070954451819034,-0.7629510948347615,-1.6174563210497581
1539131516109639,-2.3498893720911838,-0.3967345693140487,-1.4343480582895154
1539131516125620,-2.227817196917613,0.15259021896690683,-0.8850232700083325
1539131516141600,-0.6408789196611906,0.7019150072480898,-0.5798428320745188
1539131516157581,0.3967345693140487,0.9460593575952316,-0.33569848172737693
1539131516173562,0.5798428320745188,0.9460593575952316,-0.3967345693140487
1539131516189542,0.5798428320745188,1.0681315327688026,-0.45777065690094787
1539131516205523,0.7629510948347615,1.1291676203554744,-0.3967345693140487
1539131516221504,0.2746623941404778,1.3733119707026162,-0.33569848172737693
1539131516237485,0.9460593575952316,1.3733119707026162,-0.45777065690094787
1539131516253465,0.9460593575952316,0.9460593575952316,-0.2746623941404778
1539131516269446,1.983672846570471,0.45777065690094787,-0.33569848172737693
1539131516285427,3.814755474174035,0.15259021896690683,-0.213626306553806
1539131516301407,4.242008087281647,0.03051804379333589,-0.213626306553806
1539131516317388,3.4485389486533222,-0.7019150072480898,-0.5798428320745188
1539131516333369,1.3122758831159445,-2.105745021744042,-0.6408789196611906
1539131516349350,0.2746623941404778,-2.8381780727854675,-0.8239871824216607
1539131516365330,-0.15259021896690683,-3.0823224231326094,-0.8850232700083325
1539131516381311,-0.09155413138023505,-2.9602502479590385,-0.8850232700083325
1539131516397292,0.45777065690094787,-2.3498893720911838,-0.6408789196611906
1539131516413269,0.45777065690094787,-1.4343480582895154,-0.7019150072480898
1539131516429249,-0.2746623941404778,-0.7629510948347615,-0.8850232700083325
1539131516445230,-1.5564202334630863,-0.3967345693140487,-1.0681315327688026
1539131516461211,-2.410925459678083,0.03051804379333589,-0.9460593575952316
1539131516477192,-2.105745021744042,0.3967345693140487,-0.7019150072480898
1539131516493172,0.3967345693140487,1.3122758831159445,-0.9460593575952316
1539131516509153,1.0681315327688026,2.105745021744042,-1.4953841458761872
1539131516525134,-3.1433585107195086,2.5940337224383256,-2.4719615472647547
1539131516541114,-9.491111619745197,2.532997634851654,-3.3264667734797513
1539131516557095,-12.481879911497572,2.227817196917613,-3.5095750362402214
1539131516573076,-9.67421988250544,1.8616006713969,-2.7161058976118966
1539131516589057,-4.974441138323073,1.8005645838102282,-1.4953841458761872
1539131516605037,-2.166781109330941,1.9226367589837992,-0.5188067444876197
1539131516621018,-0.7629510948347615,1.6784924086366573,0.09155413138023505
1539131516636999,-0.2746623941404778,1.3733119707026162,0.5798428320745188
1539131516652979,-0.213626306553806,1.1902037079423735,0.8239871824216607
1539131516668960,0.2746623941404778,0.8850232700083325,0.7019150072480898
1539131516684941,0.8850232700083325,0.5188067444876197,0.2746623941404778
1539131516700922,-1.739528496223329,0.45777065690094787,-0.6408789196611906
1539131516716902,-8.148317692835917,0.5188067444876197,-1.6174563210497581
1539131516732879,-16.632333867398984,1.1291676203554744,-2.288853284504512
1539131516748860,-24.07873655298681,2.227817196917613,-2.8992141603723667
1539131516764841,-27.374685282673227,3.1433585107195086,-3.1433585107195086
1539131516780821,-21.942473487449433,3.4485389486533222,-2.5940337224383256
1539131516796802,-10.528725108720437,3.0212863355459376,-0.7629510948347615
1539131516812783,0.3967345693140487,2.288853284504512,1.1291676203554744
1539131516828764,6.9886320286868795,1.4343480582895154,2.227817196917613
1539131516844744,7.660028992141633,0.7019150072480898,2.5940337224383256
1539131516860725,6.256198977645454,0.2746623941404778,2.532997634851654
1539131516876706,3.997863736934505,0.15259021896690683,2.288853284504512
1539131516892686,3.1433585107195086,0.213626306553806,2.4719615472647547
1539131516908667,3.936827649347606,0.5798428320745188,2.7771419851987957
1539131516924648,6.012054627298312,0.8239871824216607,3.1433585107195086
1539131516940629,7.965209430075447,1.1902037079423735,3.2043945983061803
1539131516956609,9.063859006637585,1.4953841458761872,2.8992141603723667
1539131516972590,7.4158846417944915,1.3733119707026162,2.4719615472647547
1539131516988571,4.974441138323073,1.1902037079423735,2.227817196917613
1539131517004552,3.2654306858930795,1.4343480582895154,2.04470893415737
1539131517020532,2.7771419851987957,1.983672846570471,1.8616006713969
1539131517036513,3.4485389486533222,2.5940337224383256,1.6174563210497581
1539131517052520,4.119935912108076,2.8992141603723667,1.3733119707026162
1539131517068501,2.8992141603723667,2.7771419851987957,1.1902037079423735
1539131517084482,0.8239871824216607,2.410925459678083,1.3122758831159445
1539131517100463,-0.3967345693140487,2.410925459678083,1.4953841458761872
1539131517116443,-2.4719615472647547,2.7771419851987957,0.6408789196611906
1539131517132424,-5.096513313496644,2.8992141603723667,0.03051804379333589
1539131517148405,-5.523765926604028,3.0823224231326094,-0.2746623941404778
1539131517164385,-3.875791561760934,3.4485389486533222,-0.09155413138023505
1539131517180366,-1.0681315327688026,3.5095750362402214,0.2746623941404778
1539131517196347,0.5798428320745188,3.4485389486533222,0.7019150072480898
1539131517212328,0.6408789196611906,3.3875028610666504,0.8239871824216607
1539131517228308,0.09155413138023505,3.0212863355459376,0.5188067444876197
1539131517244289,0.9460593575952316,2.655069810025225,-0.03051804379333589
1539131517260270,2.532997634851654,2.8381780727854675,-0.5188067444876197
1539131517276250,2.410925459678083,3.0212863355459376,-1.0681315327688026
1539131517292231,-0.7019150072480898,2.9602502479590385,-1.4343480582895154
1539131517308212,-3.692683299000464,2.8381780727854675,-1.2512397955290453
1539131517324193,-3.1433585107195086,2.8381780727854675,-0.5188067444876197
1539131517340173,-0.7629510948347615,2.8381780727854675,0.3967345693140487
1539131517356154,1.8005645838102282,2.532997634851654,1.2512397955290453
1539131517372131,3.1433585107195086,2.166781109330941,1.739528496223329
1539131517388112,3.0212863355459376,1.4953841458761872,1.8005645838102282
1539131517404092,2.5940337224383256,0.8850232700083325,1.4343480582895154
1539131517420073,2.04470893415737,0.45777065690094787,1.0681315327688026
1539131517436054,1.2512397955290453,0.3967345693140487,0.7629510948347615
1539131517452035,0.09155413138023505,0.5188067444876197,0.5798428320745188
1539131517468015,-2.532997634851654,0.8239871824216607,0.2746623941404778
1539131517483996,-4.852368963149502,0.9460593575952316,-0.213626306553806
1539131517499977,-5.462729839017356,0.8850232700083325,-0.45777065690094787
1539131517515957,-4.058899824521177,0.7019150072480898,-0.213626306553806
1539131517531938,-2.410925459678083,0.2746623941404778,0.2746623941404778
1539131517547919,-0.3967345693140487,-0.213626306553806,0.8850232700083325
1539131517563900,1.6784924086366573,-0.213626306553806,1.4343480582895154
1539131517579880,2.8381780727854675,-0.03051804379333589,1.4953841458761872
1539131517595861,2.7161058976118966,0.2746623941404778,1.4343480582895154
1539131517611842,3.2654306858930795,0.5188067444876197,1.4343480582895154
1539131517627823,5.157549401083315,1.0681315327688026,1.4953841458761872
1539131517643803,8.33142595559616,1.8005645838102282,1.8616006713969
1539131517659784,10.406652933546866,2.166781109330941,2.227817196917613
1539131517675765,9.67421988250544,1.983672846570471,2.532997634851654
1539131517691742,8.392462043183059,1.4953841458761872,2.532997634851654
1539131517707722,6.195162890058782,0.7629510948347615,2.4719615472647547
1539131517723703,4.303044174868319,0.3967345693140487,2.166781109330941
1539131517739684,2.04470893415737,0.15259021896690683,2.04470893415737
1539131517755664,0.2746623941404778,0.213626306553806,1.6174563210497581
1539131517771645,-1.983672846570471,0.09155413138023505,1.1902037079423735
1539131517787626,-1.6174563210497581,-0.3967345693140487,0.3967345693140487
1539131517803607,-1.2512397955290453,-0.9460593575952316,0.15259021896690683
1539131517819587,1.1291676203554744,0.09155413138023505,0.5188067444876197
1539131517835568,1.0070954451819034,0.3967345693140487,0.8239871824216607
1539131517851549,-1.983672846570471,0.8850232700083325,1.2512397955290453
1539131517867529,-3.875791561760934,1.6784924086366573,1.1902037079423735
1539131517883510,-5.889982452124741,1.6174563210497581,0.7629510948347615
1539131517899491,-5.76791027695117,1.3733119707026162,0.45777065690094787
1539131517915472,-3.5095750362402214,1.0681315327688026,0.45777065690094787
1539131517931452,-1.1291676203554744,1.0070954451819034,0.7019150072480898
1539131517947433,0.7019150072480898,0.8850232700083325,0.8239871824216607
1539131517963414,1.6784924086366573,1.0681315327688026,0.8239871824216607
1539131517979395,1.4343480582895154,1.3122758831159445,0.5798428320745188
1539131517995375,0.7019150072480898,1.4343480582895154,-0.03051804379333589
1539131518011352,0.03051804379333589,1.6174563210497581,-0.6408789196611906
1539131518027333,-1.1902037079423735,1.8005645838102282,-1.3733119707026162
1539131518043314,-2.04470893415737,1.983672846570471,-1.8005645838102282
1539131518059294,-2.288853284504512,2.227817196917613,-2.04470893415737
1539131518075275,-2.7771419851987957,2.04470893415737,-2.04470893415737
1539131518091256,-3.875791561760934,1.8005645838102282,-2.105745021744042
1539131518107236,-5.157549401083315,1.2512397955290453,-2.04470893415737
1539131518123217,-4.119935912108076,0.9460593575952316,-1.5564202334630863
1539131518139198,-1.983672846570471,0.9460593575952316,-0.7019150072480898
1539131518155179,-0.5188067444876197,0.9460593575952316,0.213626306553806
1539131518171159,-0.33569848172737693,0.8850232700083325,0.6408789196611906
1539131518187140,-0.33569848172737693,0.8850232700083325,1.0070954451819034
1539131518203121,-0.45777065690094787,0.8239871824216607,1.0070954451819034
1539131518219102,-0.8239871824216607,0.8239871824216607,1.1291676203554744
1539131518235082,-0.7629510948347615,0.5798428320745188,1.3122758831159445
1539131518251063,-0.2746623941404778,0.5188067444876197,1.4343480582895154
1539131518267044,1.0681315327688026,0.7629510948347615,1.5564202334630863
1539131518283024,1.9226367589837992,1.0681315327688026,1.1291676203554744
1539131518299005,0.8850232700083325,1.2512397955290453,0.5798428320745188
1539131518314986,-0.8850232700083325,1.1902037079423735,0.213626306553806
1539131518330963,-0.9460593575952316,1.3122758831159445,0.213626306553806
1539131518346943,0.6408789196611906,1.4343480582895154,0.2746623941404778
1539131518362924,2.166781109330941,1.5564202334630863,0.45777065690094787
1539131518378905,1.1902037079423735,1.4953841458761872,0.213626306553806
1539131518394886,-0.5188067444876197,0.8850232700083325,-0.09155413138023505
1539131518410866,-0.7629510948347615,0.15259021896690683,0.03051804379333589
1539131518426847,1.0070954451819034,-0.213626306553806,0.33569848172737693
1539131518442828,1.983672846570471,-0.45777065690094787,0.8850232700083325
1539131518458809,1.739528496223329,-0.3967345693140487,1.1902037079423735
1539131518474789,1.8616006713969,0.03051804379333589,1.3733119707026162
1539131518490770,1.3122758831159445,0.5798428320745188,1.1291676203554744
1539131518506751,0.15259021896690683,1.0070954451819034,0.5188067444876197
1539131518522731,-1.3122758831159445,1.0070954451819034,0.213626306553806
1539131518538712,-1.739528496223329,0.8850232700083325,0.09155413138023505
1539131518554693,-1.5564202334630863,0.8239871824216607,0.213626306553806
1539131518570674,-0.7019150072480898,0.8850232700083325,0.2746623941404778
1539131518586654,-0.15259021896690683,0.7629510948347615,0.33569848172737693
1539131518602635,0.5188067444876197,0.5798428320745188,0.6408789196611906
1539131518618616,1.1291676203554744,0.45777065690094787,0.8239871824216607
1539131518634596,1.8005645838102282,0.5188067444876197,0.7019150072480898
1539131518650604,3.0212863355459376,0.7629510948347615,0.5798428320745188
1539131518666585,1.9226367589837992,0.9460593575952316,0.3967345693140487
1539131518682565,0.6408789196611906,1.0070954451819034,0.213626306553806
1539131518698546,-0.5188067444876197,1.0070954451819034,-0.15259021896690683
1539131518714527,-0.3967345693140487,1.1291676203554744,-0.33569848172737693
1539131518730507,0.03051804379333589,1.0681315327688026,-0.33569848172737693
1539131518746488,0.8850232700083325,1.0070954451819034,-0.213626306553806
1539131518762469,1.8616006713969,0.8850232700083325,0.15259021896690683
1539131518778450,2.227817196917613,0.7629510948347615,0.3967345693140487
1539131518794430,0.5798428320745188,0.3967345693140487,0.6408789196611906
1539131518810411,-1.0070954451819034,0.2746623941404778,0.7629510948347615
1539131518826392,-2.655069810025225,0.33569848172737693,0.8850232700083325
1539131518842373,-2.4719615472647547,0.45777065690094787,1.1291676203554744
1539131518858353,-0.03051804379333589,0.7629510948347615,1.6784924086366573
1539131518874334,3.692683299000464,1.4343480582895154,2.105745021744042
1539131518890315,5.096513313496644,1.8616006713969,2.105745021744042
1539131518906295,3.5095750362402214,2.166781109330941,1.5564202334630863
1539131518922276,0.5188067444876197,2.288853284504512,0.9460593575952316
1539131518938257,-2.166781109330941,2.3498893720911838,0.5188067444876197
1539131518954238,-2.166781109330941,2.655069810025225,0.213626306553806
1539131518970184,-1.0070954451819034,2.8381780727854675,0.213626306553806
1539131518986165,-0.5188067444876197,2.9602502479590385,-0.09155413138023505
1539131519002145,-1.0681315327688026,2.4719615472647547,-0.6408789196611906
1539131519018126,-1.1291676203554744,1.6174563210497581,-0.8850232700083325
1539131519034107,-0.03051804379333589,1.3122758831159445,-0.6408789196611906
1539131519050088,1.0681315327688026,1.3122758831159445,-0.15259021896690683
1539131519066068,0.6408789196611906,1.4953841458761872,0.03051804379333589
1539131519082049,-0.3967345693140487,1.4953841458761872,0.15259021896690683
1539131519098030,-1.1291676203554744,1.3122758831159445,0.213626306553806
1539131519114010,-1.2512397955290453,0.9460593575952316,0.15259021896690683
1539131519129991,-0.5798428320745188,0.3967345693140487,0.09155413138023505
1539131519145972,0.09155413138023505,0.09155413138023505,0.33569848172737693
1539131519161953,1.0681315327688026,0.33569848172737693,0.7019150072480898
1539131519177933,1.739528496223329,0.8850232700083325,0.8850232700083325
1539131519193914,1.6784924086366573,1.1291676203554744,0.8850232700083325
1539131519209895,0.7019150072480898,0.8239871824216607,0.45777065690094787
1539131519225875,-0.5188067444876197,0.6408789196611906,0.15259021896690683
1539131519241856,-1.2512397955290453,0.5188067444876197,0.03051804379333589
1539131519257837,-1.5564202334630863,0.8239871824216607,-0.15259021896690683
1539131519273818,-2.410925459678083,0.9460593575952316,-0.213626306553806
1539131519289795,-3.3264667734797513,0.9460593575952316,-0.3967345693140487
1539131519305775,-2.9602502479590385,0.8850232700083325,-0.45777065690094787
1539131519321756,-0.3967345693140487,0.6408789196611906,-0.213626306553806
1539131519337737,2.7771419851987957,0.6408789196611906,-0.2746623941404778
1539131519353717,3.814755474174035,0.8239871824216607,-0.5188067444876197
1539131519369698,1.3733119707026162,0.7629510948347615,-0.8850232700083325
1539131519385679,-1.8005645838102282,0.7629510948347615,-1.1291676203554744
1539131519401660,-2.7161058976118966,1.0681315327688026,-1.0681315327688026
1539131519417640,-1.6174563210497581,1.3122758831159445,-0.7019150072480898
1539131519433621,-0.03051804379333589,1.4343480582895154,-0.2746623941404778
1539131519449602,1.3733119707026162,1.4343480582895154,0.09155413138023505
1539131519465582,1.3733119707026162,1.3733119707026162,0.15259021896690683
1539131519481563,0.2746623941404778,1.1902037079423735,0.15259021896690683
1539131519497544,-1.2512397955290453,1.0070954451819034,-0.03051804379333589
1539131519513525,-1.1291676203554744,0.9460593575952316,0.03051804379333589
1539131519529505,-0.09155413138023505,1.0681315327688026,0.09155413138023505
1539131519545486,1.3122758831159445,1.4953841458761872,0.15259021896690683
1539131519561467,1.1291676203554744,1.739528496223329,-0.03051804379333589
1539131519577448,-0.15259021896690683,1.4953841458761872,-0.7019150072480898
1539131519593428,-1.2512397955290453,0.8850232700083325,-0.9460593575952316
1539131519609405,-0.6408789196611906,0.5188067444876197,-0.8850232700083325
1539131519625386,0.213626306553806,0.45777065690094787,-0.6408789196611906
1539131519641367,0.5798428320745188,0.7019150072480898,-0.5188067444876197
1539131519657347,-0.2746623941404778,0.9460593575952316,-0.45777065690094787
1539131519673328,-0.8239871824216607,1.3733119707026162,-0.5188067444876197
1539131519689309,-0.8850232700083325,1.4953841458761872,-0.7629510948347615
1539131519705289,-0.45777065690094787,1.3122758831159445,-0.8850232700083325
1539131519721270,0.6408789196611906,1.0070954451819034,-0.7629510948347615
1539131519737251,1.6174563210497581,0.9460593575952316,-0.5798428320745188
1539131519753232,1.3733119707026162,1.1902037079423735,-0.213626306553806
1539131519769212,0.5188067444876197,1.1902037079423735,-0.03051804379333589
1539131519785193,0.03051804379333589,0.8850232700083325,0.15259021896690683
1539131519801174,0.3967345693140487,0.33569848172737693,0.213626306553806
1539131519817155,1.4953841458761872,0.03051804379333589,0.15259021896690683
1539131519833135,1.0681315327688026,0.09155413138023505,0.15259021896690683
1539131519849116,-1.5564202334630863,0.15259021896690683,-0.15259021896690683
1539131519865097,-4.119935912108076,0.213626306553806,-0.5188067444876197
1539131519881077,-6.439307240405924,0.03051804379333589,-0.8239871824216607
1539131519897058,-7.537956816968062,-0.09155413138023505,-0.8239871824216607
1539131519913039,-6.378271152819025,-0.213626306553806,-0.7629510948347615
1539131519929016,-6.195162890058782,-0.45777065690094787,-0.213626306553806
1539131519944996,-6.744487678339738,-0.03051804379333589,0.03051804379333589
1539131519960977,-9.918364232852582,0.213626306553806,-0.7019150072480898
1539131519976958,-13.214312962538997,-0.03051804379333589,-1.8005645838102282
1539131519992939,-11.20012207217519,-0.09155413138023505,-1.983672846570471
1539131520008919,-4.364080262455218,0.45777065690094787,-1.3733119707026162
1539131520024900,4.058899824521177,1.1291676203554744,-0.45777065690094787
1539131520040881,10.284580758373295,1.739528496223329,0.3967345693140487
1539131520056862,13.397421225299468,2.105745021744042,0.3967345693140487
1539131520072842,14.618142977035177,2.288853284504512,0.213626306553806
1539131520088823,14.557106889448278,2.3498893720911838,-0.09155413138023505
1539131520104804,14.618142977035177,2.7161058976118966,-0.3967345693140487
1539131520120784,12.664988174258042,2.8381780727854675,-0.3967345693140487
1539131520136765,10.406652933546866,2.8381780727854675,-0.2746623941404778
1539131520152746,9.124895094224485,2.7161058976118966,-0.2746623941404778
1539131520168727,6.683451590753066,2.105745021744042,-0.45777065690094787
1539131520184707,5.157549401083315,1.2512397955290453,-0.03051804379333589
1539131520200688,5.279621576256886,0.8239871824216607,0.33569848172737693
1539131520216669,6.8665598535133086,0.5798428320745188,0.45777065690094787
1539131520232649,7.843137254901876,0.7629510948347615,0.33569848172737693
1539131520248626,5.401693751430457,1.1902037079423735,-0.03051804379333589
1539131520264607,1.8005645838102282,1.3122758831159445,-0.5188067444876197
1539131520280588,-0.45777065690094787,1.4343480582895154,-0.8239871824216607
1539131520296568,0.5188067444876197,1.5564202334630863,-0.8239871824216607
1539131520312549,1.6174563210497581,1.4343480582895154,-0.7019150072480898
1539131520328530,1.4953841458761872,1.3733119707026162,-0.7629510948347615
1539131520344511,-0.09155413138023505,1.3122758831159445,-0.8850232700083325
1539131520360491,-1.6174563210497581,1.1902037079423735,-0.7629510948347615
1539131520376472,-0.8239871824216607,0.8239871824216607,-0.33569848172737693
1539131520392453,1.3733119707026162,0.33569848172737693,-0.03051804379333589
1539131520408434,3.2654306858930795,0.2746623941404778,0.03051804379333589
1539131520424414,3.4485389486533222,0.2746623941404778,0.213626306553806
1539131520440395,0.45777065690094787,0.45777065690094787,0.33569848172737693
1539131520456376,-1.983672846570471,0.45777065690094787,0.213626306553806
1539131520472356,-2.105745021744042,0.7629510948347615,0.2746623941404778
1539131520488337,1.0070954451819034,1.2512397955290453,0.15259021896690683
1539131520504318,2.7771419851987957,1.4343480582895154,-0.213626306553806
1539131520520299,1.5564202334630863,1.2512397955290453,-0.8239871824216607
1539131520536279,-0.45777065690094787,1.0070954451819034,-1.2512397955290453
1539131520552260,-1.983672846570471,0.9460593575952316,-1.3122758831159445
1539131520568267,-1.6784924086366573,1.1291676203554744,-1.0070954451819034
1539131520584248,-0.15259021896690683,1.3122758831159445,-0.5798428320745188
1539131520600229,0.8850232700083325,1.1291676203554744,-0.213626306553806
1539131520616210,1.8616006713969,1.0070954451819034,0.03051804379333589
1539131520632190,1.983672846570471,1.0681315327688026,0.15259021896690683
1539131520648171,1.8616006713969,1.2512397955290453,0.09155413138023505
1539131520664152,0.9460593575952316,1.3733119707026162,0.03051804379333589
1539131520680132,-0.09155413138023505,1.4343480582895154,-0.03051804379333589
1539131520696113,-0.5188067444876197,1.3733119707026162,0.09155413138023505
1539131520712094,-0.15259021896690683,1.3122758831159445,0.45777065690094787
1539131520728075,1.0070954451819034,1.4953841458761872,0.7019150072480898
1539131520744055,2.7161058976118966,1.4343480582895154,0.7629510948347615
1539131520760036,5.0354772259097444,1.1291676203554744,0.8850232700083325
1539131520776017,8.758678568703772,0.8850232700083325,1.1291676203554744
1539131520791998,11.383230334935433,0.7629510948347615,1.6784924086366573
1539131520807978,9.796292057679011,0.45777065690094787,1.1902037079423735
1539131520823959,4.180971999694748,0.09155413138023505,0.3967345693140487
1539131520839940,-0.09155413138023505,0.03051804379333589,0.03051804379333589
1539131520855920,-1.4953841458761872,0.33569848172737693,-0.03051804379333589
1539131520871901,0.2746623941404778,0.6408789196611906,0.213626306553806
1539131520887878,2.3498893720911838,0.6408789196611906,0.5188067444876197
1539131520903859,2.655069810025225,0.5798428320745188,0.45777065690094787
1539131520919839,2.105745021744042,0.2746623941404778,0.2746623941404778
1539131520935820,1.739528496223329,0.2746623941404778,0.15259021896690683
1539131520951801,1.6174563210497581,0.3967345693140487,-0.03051804379333589
1539131520967782,1.0681315327688026,0.6408789196611906,0.03051804379333589
1539131520983762,1.1291676203554744,1.0070954451819034,0.15259021896690683
1539131520999743,1.8005645838102282,1.2512397955290453,0.3967345693140487
1539131521015724,2.7161058976118966,1.6174563210497581,0.45777065690094787
