Timestamp (microseconds),Accel X (g),Accel Y (g),Accel Z (g)
1539131033722839,0.9948271915770199,-0.1299458304722667,-0.004699778744182481
1539131033738835,0.9699244678416115,-0.12591744869153887,-0.013366903181506018
1539131033754831,0.948439765011063,-0.11944762340733961,-0.02032501716639956
1539131033770827,0.9312275883115895,-0.1144426642252232,-0.02545204852368954
1539131033786823,0.9254901960784316,-0.1203021286335546,-0.031067368581673804
1539131033802819,0.9319600213626309,-0.13311970702677955,-0.03472953383688093
1539131033818815,0.9453879606317237,-0.1430075532158388,-0.033875028610665936
1539131033834811,0.9495384145876251,-0.14923323414969092,-0.02911421377889667
1539131033850807,0.9512474250400551,-0.1585107194628823,-0.030823224231326662
1539131033866803,0.9558861676966508,-0.17230487525749583,-0.03424124513618665
1539131033882799,0.9655298695353629,-0.17462424658579367,-0.031189440756847375
1539131033898795,0.968337529564355,-0.17425803006027296,-0.027527275501640247
1539131033914791,0.9680933852140079,-0.18268101014724936,-0.02008087281605242
1539131033930787,0.9704127565423057,-0.18646524757763006,-0.008239871824216038
1539131033946783,0.9744411383230336,-0.18280308232242293,0.006775005722133187
1539131033962779,0.9761501487754636,-0.17596704051270295,0.02264438849469741
1539131033978775,0.9800564583810178,-0.1719386587319751,0.02777141985198739
1539131033994771,0.9861600671396964,-0.15838864728770874,0.0252079041733424
1539131034010767,0.9938506141756314,-0.14349584191653308,0.023620965896085977
1539131034026763,0.9987335011825742,-0.11932555123216604,0.019226367589837423
1539131034042755,0.9966582742046235,-0.09784084840161755,0.017151140611886717
1539131034058751,0.9792019531548029,-0.07879758907454049,0.015320057984283153
1539131034074747,0.9596704051270315,-0.07379262989242408,0.01739528496223386
1539131034090743,0.9591821164263372,-0.09283588921950114,0.010193026626993174
1539131034106739,0.9678492408636608,-0.11566338597695891,0.0022583352407110624
1539131034122735,0.9756618600747693,-0.14154268711375595,-0.006775005722133187
1539131034138731,0.9778591592278936,-0.16351567864499872,-0.012878614480811734
1539131034154727,0.9824979018844893,-0.17730983443961224,-0.010193026626993174
1539131034170723,0.9835965514610514,-0.18304722667277007,-0.006408789196612474
1539131034186719,0.9840848401617457,-0.17682154573891795,-1.831082627603564E-4
1539131034202715,0.9889677271686885,-0.164858472571908,-0.004943923094529623
1539131034218711,0.9916533150225071,-0.15912108033875016,-0.01739528496223386
1539131034234707,0.9961699855039292,-0.15460440985732804,-0.021179522392614558
1539131034250702,0.9948271915770199,-0.14923323414969092,-0.020813305867093845
1539131034266698,0.9901884489204242,-0.14874494544899663,-0.02777141985198739
1539131034282694,0.9799343862058443,-0.14996566720073234,-0.03424124513618665
1539131034298690,0.9719996948195622,-0.14288548104066523,-0.027527275501640247
1539131034314686,0.9662623025864043,-0.13311970702677955,-0.012878614480811734
1539131034330682,0.97261005569543,-0.12774853131914243,-5.493247882810692E-4
1539131034346678,0.9817654688334478,-0.12323186083772031,0.001037613488975353
1539131034362579,0.9960479133287556,-0.1190814068818189,0.002868696116578917
1539131034378574,1.0069123369192035,-0.128725108720531,-0.00323491264209963
1539131034394570,1.0142366674296177,-0.14105439841306167,-0.006897077897306758
1539131034410565,1.0086213473716334,-0.14959945067521163,-0.006775005722133187
1539131034426561,0.9986114290074006,-0.13617151140611883,0.007629510948348184
1539131034442556,0.9987335011825742,-0.1047989623865111,0.033752956435492365
1539131034458552,1.0045929655909056,-0.09649805447470827,0.04632639047837017
1539131034474547,1.0064240482185092,-0.08282597085526833,0.045471885252155175
1539131034490543,1.004226749065385,-0.09076066224155044,0.03692683299000521
1539131034506538,1.0012970168612192,-0.10663004501411466,0.03814755474174092
1539131034522534,0.9912870984969864,-0.11944762340733961,0.04351873044937804
1539131034538529,0.9790798809796293,-0.12066834515907532,0.05242999923704872
1539131034554525,0.9702906843671322,-0.11920347905699247,0.049134050507362304
1539131034570521,0.970046540016785,-0.11334401464866106,0.04510566872663446
1539131034586516,0.9752956435492486,-0.10675211718928823,0.03973449301899734
1539131034602512,0.9829861905851836,-0.09942778667887398,0.031311512932020946
1539131034618507,0.9870145723659114,-0.09954985885404755,0.024841687647821686
1539131034634503,0.99140917067216,-0.09588769359884042,0.03533989471274879
1539131034650498,0.9940947585259785,-0.09759670405127041,0.03717097734035235
1539131034666494,0.9923857480735485,-0.10382238498512253,0.0327763790341038
1539131034682220,0.9898222323949035,-0.10797283894102394,0.027283131151293105
1539131034698215,0.9879911497673,-0.1182269016556039,0.031067368581673804
1539131034714209,0.9868925001907378,-0.12164492256046389,0.0357061112382695
1539131034730204,0.9943389028763256,-0.12213321126115817,0.03265430685893023
1539131034746198,1.0026398107881285,-0.12176699473563746,0.027038986800945963
1539131034762193,1.0069123369192035,-0.11663996337834748,0.02130159456778813
1539131034778187,1.0020294499122606,-0.10650797283894109,0.015930418860151008
1539131034794182,0.9926298924238957,-0.09784084840161755,0.014099336232547444
1539131034810176,0.9866483558403907,-0.0896620126649883,0.013855191882200302
1539131034826171,0.9792019531548029,-0.08685435263599617,0.016662851911192433
1539131034842166,0.9732204165712979,-0.08953994048981473,0.01861600671396957
1539131034858160,0.968337529564355,-0.0896620126649883,0.016662851911192433
1539131034874155,0.9585717555504694,-0.09588769359884042,0.01373311970702673
1539131034890149,0.9481956206607158,-0.1018692301823454,0.015686274509803866
1539131034906144,0.9408712901503016,-0.1060196841382468,0.01605249103532458
1539131034922138,0.9392843518730452,-0.11163500419623107,0.014099336232547444
1539131034938133,0.945876249332418,-0.10968184939345393,0.019104295414663852
1539131034954127,0.9547875181200887,-0.1068741893644618,0.027038986800945963
1539131034970122,0.9644312199588008,-0.1030899519340811,0.029968719005111666
1539131034986117,0.9735866330968186,-0.10931563286793322,0.027649347676813818
1539131035001831,0.9865262836652171,-0.11578545815213248,0.020691233691920274
1539131035017824,0.9921416037232014,-0.12469672693980316,0.023254749370565264
1539131035033818,0.9960479133287556,-0.12469672693980316,0.030945296406500233
1539131035049811,1.0058136873426413,-0.12542915999084459,0.0327763790341038
1539131035065805,1.0115510795757992,-0.12372014953841459,0.038879987792782345
1539131035081799,1.0133821622034027,-0.11773861295490962,0.03961242084382377
1539131035097792,1.0182650492103456,-0.11346608682383463,0.03680476081483164
1539131035113786,1.0261997405966277,-0.11004806591897465,0.029480430304417382
1539131035129779,1.0237582970931562,-0.10455481803616395,0.016662851911192433
1539131035145773,1.0125276569771877,-0.10565346761272609,0.016662851911192433
1539131035161767,0.9970244907301442,-0.10846112764171822,0.019348439765010994
1539131035177760,0.98628213931487,-0.1068741893644618,0.021057450217440987
1539131035193754,0.9903105210955978,-0.10992599374380108,0.015442130159456724
1539131035209747,0.9892118715190357,-0.11041428244449536,0.011657892729076025
1539131035225741,0.9849393453879607,-0.11102464332036321,0.011657892729076025
1539131035241735,0.9812771801327536,-0.11920347905699247,0.014099336232547444
1539131035257728,0.9818875410086214,-0.12323186083772031,0.020691233691920274
1539131035273722,0.9954375524528878,-0.12774853131914243,0.025940337224383825
1539131035289715,1.0048371099412527,-0.12249942778667888,0.02423132677195383
1539131035305709,1.0159456778820477,-0.12323186083772031,0.020447089341573133
1539131035321441,1.016433966582742,-0.12445258258945602,0.018005645838101714
1539131035337434,1.0158236057068741,-0.128725108720531,0.01483176928358887
1539131035353427,1.0168001831082627,-0.12982375829709314,0.010559243152513886
1539131035369419,1.015579461356527,-0.12896925307087814,0.009460593575951748
1539131035385412,1.0056916151674677,-0.127016098268101,0.012146181429770309
1539131035401404,0.9955596246280614,-0.1249408712901503,0.008728160524910322
1539131035417397,0.9860379949645228,-0.11834897383077747,4.272526131074983E-4
1539131035433390,0.9749294270237279,-0.11590753032730605,-0.007873655298695326
1539131035449382,0.9684596017395286,-0.11700617990386819,-0.012024109254596738
1539131035465375,0.9571068894483865,-0.11993591210803389,-0.009216449225604606
1539131035481368,0.9470969710841537,-0.12530708781567101,-0.0037232013427939137
1539131035497360,0.9500267032883194,-0.13897917143511096,-0.003479056992446772
1539131035513353,0.9553978789959565,-0.14459449149309522,-0.005432211795223907
1539131035529346,0.9599145494773786,-0.14618142977035165,6.103608758678547E-5
1539131035545338,0.9651636530098422,-0.14361791409170666,0.0036011291676203427
1539131035561331,0.9698023956664379,-0.14190890363927666,0.007629510948348184
1539131035577324,0.9809109636072328,-0.1450827801937895,0.0060425726710917615
1539131035593316,0.9835965514610514,-0.14203097581445023,0.010070954451819603
1539131035609309,0.9876249332417792,-0.1354390783550774,0.011169604028381741
1539131035625301,0.9889677271686885,-0.12896925307087814,0.015075913633936011
1539131035641082,0.98970016021973,-0.12445258258945602,0.01483176928358887
1539131035657074,0.9936064698252842,-0.12298771648737317,0.013366903181506018
1539131035673066,0.9942168307011521,-0.12298771648737317,0.017761501487754572
1539131035689057,0.9927519645990692,-0.1190814068818189,0.020813305867093845
1539131035705049,0.9966582742046235,-0.11468680857557034,0.018371862363622427
1539131035721041,0.9984893568322271,-0.11163500419623107,0.020935378042267416
1539131035737033,0.9970244907301442,-0.10870527199206537,0.01605249103532458
1539131035753024,0.9971465629053178,-0.1135881589990082,0.011413748378728883
1539131035769016,0.9972686350804914,-0.11578545815213248,0.013000686655985305
1539131035785008,0.9899443045700771,-0.11175707637140464,0.017273212787060288
1539131035800999,0.985427634088655,-0.10760662241550323,0.018493934538795997
1539131035816991,0.9865262836652171,-0.10333409628442825,0.017151140611886717
1539131035832983,0.9925078202487221,-0.10040436408026254,0.010803387502861028
1539131035848974,0.9945830472266728,-0.10504310673685824,0.0071412222476539
1539131035864966,0.9973907072556649,-0.11566338597695891,0.007263294422827471
1539131035880958,1.00166323338674,-0.126161593041886,0.005920500495918191
1539131035896949,0.9994659342336156,-0.13385214007782098,0.003356984817273201
1539131035912941,0.9944609750514992,-0.14068818188754095,6.713969634546402E-4
1539131035928933,0.9868925001907378,-0.14203097581445023,-0.0015259021896696368
1539131035944924,0.9781033035782407,-0.1433737697413595,-0.0036011291676203427
1539131035960693,0.9704127565423057,-0.14068818188754095,-0.005188067444876765
1539131035976684,0.9688258182650493,-0.14166475928892952,-0.005065995269703194
1539131035992674,0.96748302433814,-0.1409323262378881,-0.00579842832074462
1539131036008665,0.96577401388571,-0.13958953231097881,-0.00579842832074462
1539131036024656,0.9647974364843215,-0.13873502708476382,-0.007019150072480329
1539131036040647,0.9684596017395286,-0.13653772793163954,-0.003356984817273201
1539131036056637,0.97261005569543,-0.13604943923094526,-6.103608758678547E-5
1539131036072628,0.9762722209506371,-0.13348592355230027,0.0022583352407110624
1539131036088619,0.980300602731365,-0.13482871747920955,0.005310139620050336
1539131036104610,0.9877470054169528,-0.13678187228198668,0.007629510948348184
1539131036120600,0.9929961089494164,-0.13409628442816812,0.006286717021438903
1539131036136591,0.9915312428473335,-0.13031204699778742,0.01226825360494388
1539131036152582,0.9881132219424735,-0.129579613946746,0.01483176928358887
1539131036168573,0.9889677271686885,-0.12689402609292744,0.016784924086366004
1539131036184563,0.9899443045700771,-0.12420843823910888,0.020691233691920274
1539131036200554,0.9850614175631343,-0.1165178912031739,0.024475471122300974
1539131036216545,0.9790798809796293,-0.11175707637140464,0.028381780727855244
1539131036232535,0.9766384374761579,-0.10711833371480894,0.028503852903028815
1539131036248526,0.97944609750515,-0.10626382848859395,0.026062409399557396
1539131036264517,0.9848172732127871,-0.11602960250247962,0.02008087281605242
1539131036280334,0.9909208819714657,-0.12982375829709314,0.014587624933241727
1539131036296324,0.99140917067216,-0.14056610971236738,0.01861600671396957
1539131036312314,0.9939726863508049,-0.15033188372625306,0.020935378042267416
1539131036328303,0.9973907072556649,-0.15338368810559233,0.015075913633936011
1539131036344293,0.9987335011825742,-0.15619134813458446,0.008117799649042468
1539131036360283,1.0005645838101778,-0.16205081254291587,-0.0020141908903639205
1539131036376273,1.0056916151674677,-0.16729991607537942,-0.008117799649042468
1539131036392263,1.0038605325398642,-0.16498054474708157,-0.006286717021438903
1539131036408252,1.0005645838101778,-0.15533684290836947,-0.0021362630655374915
1539131036424242,0.9912870984969864,-0.1447165636682688,-6.713969634546402E-4
1539131036440232,0.9870145723659114,-0.13580529488059812,-0.0039673456931410556
1539131036456222,0.9844510566872664,-0.1266498817425803,-0.004943923094529623
1539131036472211,0.9839627679865721,-0.12188906691081103,-0.004333562218661768
1539131036488201,0.9793240253299764,-0.11493095292591748,0.005188067444876765
1539131036504191,0.9705348287174793,-0.11139085984588393,0.011169604028381741
1539131036520181,0.9663843747615779,-0.11041428244449536,0.01605249103532458
1539131036536171,0.9687037460898758,-0.11090257114518964,0.016906996261539575
1539131036552160,0.9716334782940415,-0.11395437552452892,0.018127718013275285
1539131036568150,0.9821316853589686,-0.12469672693980316,0.016906996261539575
1539131036584140,0.9998321507591363,-0.14239719233997095,0.01483176928358887
1539131036599914,1.0153353170061798,-0.1598535133897916,0.006775005722133187
1539131036615903,1.024124513618677,-0.17523460746166153,0.0016479743648432077
1539131036631893,1.0221713588158998,-0.1837796597238115,-7.934691386282111E-4
1539131036647882,1.0170443274586098,-0.18011749446860437,-0.0025024795910582043
1539131036663871,1.0065461203936827,-0.1694972152285037,-0.0020141908903639205
1539131036679861,0.9927519645990692,-0.15997558556496516,-0.00848401617456318
1539131036695850,0.9738307774471657,-0.15387197680628661,-0.011779964904249596
1539131036711839,0.9540550850690472,-0.14569314106965736,-0.00848401617456318
1539131036727829,0.9427023727779051,-0.14190890363927666,-0.001037613488975353
1539131036743818,0.9383077744716566,-0.1325093461509117,0.009216449225604606
1539131036759807,0.9380636301213094,-0.12176699473563746,0.016906996261539575
1539131036775797,0.948439765011063,-0.11786068513008319,0.01898222323949028
1539131036791786,0.9633325703822386,-0.11798275730525676,0.019104295414663852
1539131036807775,0.9810330357824064,-0.12591744869153887,0.014465552758068156
1539131036823764,0.9937285420004578,-0.1328755626764324,0.019226367589837423
1539131036839754,1.0037384603646906,-0.1383688105592431,0.023376821545738835
1539131036855743,1.0076447699702449,-0.13434042877851526,0.031311512932020946
1539131036871732,1.004470893415732,-0.13153276874952313,0.029968719005111666
1539131036887722,1.0039826047150378,-0.1350728618295567,0.02130159456778813
1539131036903711,1.0075226977950713,-0.13983367666132596,0.010193026626993174
1539131036919555,1.0132600900282291,-0.1476462958724345,0.006286717021438903
1539131036935544,1.0176546883344777,-0.1535057602807659,0.007629510948348184
1539131036951532,1.0143587396047913,-0.15802243076218803,0.004821850919356052
1539131036967520,1.0047150377660792,-0.16046387426565945,-0.0012817578393224949
1539131036983509,0.9907988097962921,-0.1564354924849316,-0.012878614480811734
1539131036999497,0.978591592278935,-0.15399404898146019,-0.01886015106431671
1539131037015485,0.96919203479057,-0.14654764629587236,-0.013977264057373873
1539131037031474,0.9606469825284201,-0.13434042877851526,-0.009216449225604606
1539131037047462,0.9540550850690472,-0.12518501564049744,-0.005065995269703194
1539131037063450,0.9538109407187001,-0.12445258258945602,-0.005065995269703194
1539131037079439,0.9644312199588008,-0.129579613946746,-0.004699778744182481
1539131037095427,0.97261005569543,-0.13238727397573813,5.493247882810692E-4
1539131037111415,0.9821316853589686,-0.13409628442816812,0.0026245517662317752
1539131037127404,0.9881132219424735,-0.13202105745021742,0.004455634393835339
1539131037143392,0.9927519645990692,-0.13006790264744028,0.004333562218661768
1539131037159381,1.001052872510872,-0.13690394445716025,0.007019150072480329
1539131037175369,1.000808728160525,-0.13934538796063167,0.014709697108415298
1539131037191357,0.9964141298542764,-0.14398413061722737,0.018493934538795997
1539131037207346,0.9909208819714657,-0.14166475928892952,0.01898222323949028
1539131037223334,0.9906767376211185,-0.1400778210116731,0.01605249103532458
1539131037239166,0.9850614175631343,-0.13580529488059812,0.011657892729076025
1539131037255154,0.97773708705272,-0.14081025406271452,0.009460593575951748
1539131037271142,0.9740749217975129,-0.1430075532158388,0.014221408407721015
1539131037287130,0.9770046540016786,-0.1426413366903181,0.019348439765010994
1539131037303117,0.9800564583810178,-0.14081025406271452,0.021179522392614558
1539131037319105,0.9822537575341421,-0.14325169756618594,0.011413748378728883
1539131037335093,0.9770046540016786,-0.1438620584420538,0.004699778744182481
1539131037351081,0.9695582513160907,-0.1488670176241702,3.0518043793392735E-4
1539131037367069,0.9662623025864043,-0.15252918287937733,0.003356984817273201
1539131037383057,0.9638208590829329,-0.1522850385290302,0.0038452735179674846
1539131037399045,0.9623559929808501,-0.15069810025177377,0.006652933546959616
1539131037415032,0.9610131990539408,-0.14654764629587236,0.008117799649042468
1539131037431020,0.9636987869077593,-0.14435034714274808,0.009216449225604606
1539131037447008,0.9756618600747693,-0.13971160448615239,0.005920500495918191
1539131037462996,0.9945830472266728,-0.13824673838406953,0.0014038300144960658
1539131037478984,1.0054474708171206,-0.1392233157854581,0.004455634393835339
1539131037494972,1.0133821622034027,-0.13958953231097881,0.006652933546959616
1539131037510960,1.0185091935606927,-0.13824673838406953,0.006530861371786045
1539131037526948,1.0231479362172884,-0.13556115053025097,0.008972304875257464
1539131037542935,1.0291294728007934,-0.12982375829709314,0.009582665751125319
1539131037558776,1.028641184100099,-0.1240863660639353,0.011657892729076025
1539131037574764,1.0227817196917677,-0.11932555123216604,0.0109254596780346
1539131037590751,1.0050812542916,-0.11395437552452892,0.0109254596780346
1539131037606739,0.9928740367742428,-0.11285572594796678,0.006775005722133187
1539131037622726,0.9824979018844893,-0.11944762340733961,0.007385366598001042
1539131037638713,0.9776150148775464,-0.12530708781567101,0.0071412222476539
1539131037654701,0.9713893339436943,-0.130434119172961,0.009338521400778177
1539131037670688,0.9647974364843215,-0.13348592355230027,0.013122758831158876
1539131037686676,0.9624780651560236,-0.13983367666132596,0.01239032578011745
1539131037702663,0.9635767147325858,-0.15167467765316234,0.0039673456931410556
1539131037718650,0.9690699626153965,-0.16168459601739515,-0.0021362630655374915
1539131037734638,0.9694361791409172,-0.17084000915541298,-0.00848401617456318
1539131037750625,0.9689478904402229,-0.1803616388189515,-0.010437170977340315
1539131037766613,0.9698023956664379,-0.1846341649500265,-0.010315098802166744
1539131037782600,0.9715114061188679,-0.1812161440451665,-0.007995727473868897
1539131037798587,0.9706569008926529,-0.16803234912642084,-1.831082627603564E-4
1539131037814575,0.9619897764553293,-0.14532692454413665,0.008728160524910322
1539131037830562,0.9701686121919586,-0.13531700617990383,0.007995727473868897
1539131037846550,0.9839627679865721,-0.13006790264744028,0.006775005722133187
1539131037862537,0.9971465629053178,-0.129579613946746,0.0012817578393224949
1539131037878387,1.0043488212405585,-0.128725108720531,0.0021362630655374915
1539131037894374,1.0098420691233692,-0.132143129625391,0.0021362630655374915
1539131037910361,1.0041046768902113,-0.13202105745021742,0.004699778744182481
1539131037926348,0.9972686350804914,-0.1350728618295567,0.0016479743648432077
1539131037942335,0.987136644541085,-0.1354390783550774,-0.0017700465400167786
1539131037958322,0.9719996948195622,-0.13409628442816812,-0.0016479743648432077
1539131037974309,0.9530785076676587,-0.12970168612191957,0.0040894178683146265
1539131037990296,0.9411154345006487,-0.12689402609292744,0.007385366598001042
1539131038006282,0.9374532692454416,-0.128725108720531,0.004699778744182481
1539131038022269,0.9315938048371102,-0.12811474784466315,0.006897077897306758
1539131038038256,0.9312275883115895,-0.12982375829709314,0.026062409399557396
1539131038054243,0.9252460517280845,-0.10064850843060968,0.04095521477073305
1539131038070230,0.9237811856260016,-0.09356832227054257,0.049256122682535874
1539131038086217,0.9351338979171437,-0.09515526054779899,0.05743495841916513
1539131038102204,0.9549095902952622,-0.09747463187609684,0.05645838101777656
1539131038118191,0.9870145723659114,-0.12249942778667888,0.04351873044937804
1539131038134178,1.0131380178530556,-0.15631342030975803,0.03680476081483164
1539131038150165,1.0315709163042648,-0.18658731975280363,0.04119935912108019
1539131038166152,1.0392614633401998,-0.19562066071564832,0.04962233920805659
1539131038182139,1.0484168764782176,-0.1854886701762415,0.054627298390172996
1539131038197998,1.0529335469596397,-0.16827649347676799,0.04827954528114731
1539131038213984,1.0569619287403675,-0.15167467765316234,0.03680476081483164
1539131038229971,1.057938506141756,-0.1497215228503852,0.027405203326466676
1539131038245957,1.052567330434119,-0.14581521324483093,0.032410162508583085
1539131038261943,1.0439002059967954,-0.13104448004882885,0.03924620431830306
1539131038277930,1.0330357824063476,-0.11798275730525676,0.033630884260318794
1539131038293916,1.0168001831082627,-0.10150301365682468,0.02801556420233453
1539131038309903,0.9938506141756314,-0.08929579613946759,0.022400244144350268
1539131038325889,0.9682154573891815,-0.0829480430304419,0.022156099794003126
1539131038341876,0.9478294041351951,-0.08429083695735118,0.014221408407721015
1539131038357862,0.933913176165408,-0.1010147249561304,0.011657892729076025
1539131038373849,0.9286640726329445,-0.12359807736324102,0.00323491264209963
1539131038389835,0.9403830014496073,-0.14789044022278164,-0.010437170977340315
1539131038405821,0.9533226520180058,-0.1732814526588844,-0.008728160524910322
1539131038421808,0.9601586938277258,-0.18805218585488692,-0.004699778744182481
1539131038437794,0.9694361791409172,-0.20135805294880615,-0.001037613488975353
1539131038453781,0.9881132219424735,-0.20904859998474112,-0.007507438773174613
1539131038469767,1.0126497291523613,-0.20794995040817899,-0.013244831006332447
1539131038485754,1.0231479362172884,-0.20050354772259116,-0.01483176928358887
1539131038501740,1.0203402761882963,-0.18915083543144906,-0.00970473792629889
1539131038517608,1.0097199969481956,-0.17084000915541298,5.493247882810692E-4
1539131038533594,0.9994659342336156,-0.14911116197451735,0.01104753185320817
1539131038549579,0.9901884489204242,-0.1266498817425803,0.013122758831158876
1539131038565565,0.9824979018844893,-0.11493095292591748,0.016784924086366004
1539131038581550,0.9815213244831007,-0.10516517891203181,0.01995880064087885
1539131038597536,0.98115510795758,-0.09893949797817969,0.02423132677195383
1539131038613521,0.9800564583810178,-0.09112687876707115,0.02398718242160669
1539131038629507,0.9809109636072328,-0.10089265278095683,0.028870069428549527
1539131038645492,0.9856717784390021,-0.10870527199206537,0.03350881208514522
1539131038661478,0.9878690775921264,-0.11725032425421533,0.035217822537575216
1539131038677463,0.9932402532997635,-0.1299458304722667,0.0319218738078888
1539131038693449,0.9969024185549706,-0.13983367666132596,0.028381780727855244
1539131038709434,1.0030060273136492,-0.15362783245593947,0.019714656290531707
1539131038725420,1.0058136873426413,-0.164003967345693,0.01239032578011745
1539131038741405,1.0043488212405585,-0.16815442130159441,0.010681315327687457
1539131038757391,1.0026398107881285,-0.16913099870298298,0.011779964904249596
1539131038773376,1.003616388189517,-0.16620126649881728,0.009460593575951748
1539131038789362,1.0050812542916,-0.16681162737468513,0.0060425726710917615
1539131038805347,1.0052033264667735,-0.16034180209048587,-0.002990768291752488
1539131038821333,0.9933623254749371,-0.15838864728770874,-0.0022583352407110624
1539131038837219,0.98628213931487,-0.14520485236896308,0.002990768291752488
1539131038853204,0.9843289845120928,-0.13702601663233382,0.001159685664148924
1539131038869190,0.9765163653009843,-0.12140077821011674,0.003112840466926059
1539131038885175,0.9693141069657436,-0.11395437552452892,-6.713969634546402E-4
1539131038901161,0.9672388799877929,-0.11383230334935535,-0.0015259021896696368
1539131038917146,0.96748302433814,-0.11602960250247962,-4.272526131074983E-4
1539131038933132,0.9638208590829329,-0.11517509727626463,0.0037232013427939137
1539131038949117,0.9615014877546351,-0.11993591210803389,0.0020141908903639205
1539131038965103,0.9532005798428322,-0.129579613946746,6.713969634546402E-4
1539131038981088,0.9513694972152287,-0.13873502708476382,-0.006775005722133187
1539131038997074,0.9490501258869308,-0.14691386282139307,-0.009216449225604606
1539131039013059,0.9550316624704358,-0.15619134813458446,-0.011657892729076025
1539131039029045,0.9607690547035936,-0.16913099870298298,-0.007751583123521755
1539131039045030,0.9626001373311972,-0.17462424658579367,-0.007263294422827471
1539131039061016,0.9639429312581065,-0.18365758754863792,-0.006775005722133187
1539131039077001,0.9707789730678265,-0.1832913710231172,-0.005310139620050336
1539131039092987,0.9826199740596628,-0.1782864118410008,-0.011291676203555312
1539131039108972,0.9993438620584421,-0.1765774013885708,-0.017151140611886717
1539131039124958,1.0037384603646906,-0.1644922560463873,-0.011291676203555312
1539131039140943,0.9953154802777142,-0.15423819333180733,-4.272526131074983E-4
1539131039156829,0.9916533150225071,-0.14447241931792165,0.00457770656900891
1539131039172814,0.9956816968032349,-0.13788052185854882,0.001037613488975353
1539131039188799,1.0032501716639963,-0.13055619134813456,-9.15541313801782E-4
1539131039204784,1.002517738612955,-0.12420843823910888,-0.0018921187151903496
1539131039220770,1.0041046768902113,-0.12384222171358816,0.0012817578393224949
1539131039236755,1.0004425116350042,-0.11639581902800034,0.007019150072480329
1539131039252740,0.9921416037232014,-0.11053635461966893,0.007995727473868897
1539131039268725,0.9920195315480278,-0.11371023117418178,0.003112840466926059
1539131039284710,0.9925078202487221,-0.1173723964293889,-0.00323491264209963
1539131039300695,0.9886015106431678,-0.12652780956740672,-0.005554283970397478
1539131039316680,0.98628213931487,-0.13202105745021742,-0.003479056992446772
1539131039332665,0.9846952010376135,-0.1371480888075074,-0.0015259021896696368
1539131039348650,0.9864042114900435,-0.1450827801937895,-0.009460593575951748
1539131039364635,0.9827420462348364,-0.14996566720073234,-0.017151140611886717
1539131039380620,0.97431906614786,-0.1598535133897916,-0.021179522392614558
1539131039396605,0.9694361791409172,-0.16461432822156086,-0.01641870756084529
1539131039412590,0.9740749217975129,-0.16913099870298298,-0.01751735713740743
1539131039428575,0.9818875410086214,-0.16839856565194156,-0.020813305867093845
1539131039444560,0.9798123140306707,-0.163149462119478,-0.024719615472648115
1539131039460545,0.9667505912870986,-0.15948729686427088,-0.021911955443655984
1539131039476440,0.9594262607766844,-0.16180666819256873,-0.02008087281605242
1539131039492425,0.9727321278706036,-0.16388189517051943,-0.023620965896085977
1539131039508409,0.9898222323949035,-0.16876478217746227,-0.02655069810025168
1539131039524394,0.9900663767452507,-0.16058594644083302,-0.023132677195391693
1539131039540378,0.9732204165712979,-0.14630350194552522,-0.011657892729076025
1539131039556363,0.9591821164263372,-0.14373998626688023,-0.011779964904249596
1539131039572347,0.966628519111925,-0.14728007934691378,-0.01751735713740743
1539131039588332,0.9784695201037614,-0.1531395437552452,-0.0214236667429617
1539131039604316,0.9733424887464714,-0.1505760280766002,-0.00848401617456318
1539131039620301,0.9512474250400551,-0.1404440375371938,0.002990768291752488
1539131039636285,0.933913176165408,-0.13153276874952313,0.01361104753185316
1539131039652270,0.9378194857709623,-0.12799267566948958,0.005065995269703194
1539131039668254,0.9582055390249486,-0.13678187228198668,7.934691386282111E-4
1539131039684239,0.9783474479285879,-0.15252918287937733,0.003356984817273201
1539131039700224,0.9889677271686885,-0.16815442130159441,0.008606088349736751
1539131039716208,0.9910429541466392,-0.1765774013885708,0.0015259021896696368
1539131039732193,1.0006866559853513,-0.18793011367971335,-0.007751583123521755
1539131039748177,1.0083772030212863,-0.19171435111009405,-0.015564202334630295
1539131039764162,1.0094758525978484,-0.18731975280384505,-0.005432211795223907
1539131039780146,1.0037384603646906,-0.16766613260090013,-0.0071412222476539
1539131039796051,1.0017853055619135,-0.15423819333180733,-0.006897077897306758
1539131039812035,0.9978789959563592,-0.15741206988632017,-0.0023804074158846333
1539131039828019,0.990554665445945,-0.15826657511253517,-0.0012817578393224949
1539131039844003,0.98970016021973,-0.15399404898146019,-0.004943923094529623
1539131039859987,0.9998321507591363,-0.14520485236896308,-0.006897077897306758
1539131039875971,1.0032501716639963,-0.13617151140611883,-0.009094377050431035
1539131039891955,0.9964141298542764,-0.12933546959639886,-0.006897077897306758
1539131039907939,0.9861600671396964,-0.1220111390859846,-0.003479056992446772
1539131039923923,0.9809109636072328,-0.11847104600595104,0.002746623941405346
1539131039939907,0.9850614175631343,-0.13177691309987027,-0.0017700465400167786
1539131039955891,0.9929961089494164,-0.14898908979934378,-0.010681315327687457
1539131039971875,0.9993438620584421,-0.15960936903944445,-0.010681315327687457
1539131039987859,0.9942168307011521,-0.15741206988632017,-0.005676356145571049
1539131040003843,0.9931181811245899,-0.1569237811856259,-0.001037613488975353
1539131040019827,0.9872587167162585,-0.15533684290836947,5.493247882810692E-4
1539131040035812,0.9840848401617457,-0.16754406042572656,-0.008239871824216038
1539131040051796,0.9878690775921264,-0.17511253528648796,-0.013855191882200302
1539131040067780,0.9860379949645228,-0.18524452582589435,-0.008117799649042468
1539131040083764,0.982009613183795,-0.17645532921339724,-0.003356984817273201
1539131040099748,0.9795681696803236,-0.17730983443961224,-0.0036011291676203427
1539131040115661,0.9851834897383078,-0.17132829785610726,-0.008728160524910322
1539131040131645,0.9873807888914321,-0.16644541084916442,-0.012512397955291021
1539131040147629,0.9832303349355307,-0.164003967345693,-0.010193026626993174
1539131040163613,0.9778591592278936,-0.16217288471808944,-0.009094377050431035
1539131040179597,0.9706569008926529,-0.15570305943389018,-0.0042114900434881974
1539131040195582,0.9687037460898758,-0.1522850385290302,-0.0060425726710917615
1539131040211566,0.9677271686884872,-0.15509269855802232,-0.013122758831158876
1539131040227550,0.9680933852140079,-0.16437018387121372,-0.017273212787060288
1539131040243534,0.966628519111925,-0.1698634317540244,-0.015686274509803866
1539131040259518,0.9638208590829329,-0.17352559700923154,-0.015686274509803866
1539131040275502,0.9661402304112308,-0.17425803006027296,-0.01495384145876244
1539131040291486,0.9632104982070651,-0.17340352483405796,-0.018005645838101714
1539131040307470,0.9596704051270315,-0.17486839093614082,-0.018371862363622427
1539131040323454,0.9593041886015108,-0.1765774013885708,-0.012878614480811734
1539131040339438,0.9702906843671322,-0.17511253528648796,-0.011413748378728883
1539131040355422,0.9849393453879607,-0.1736476691844051,-0.012634470130464592
1539131040371406,0.9898222323949035,-0.16437018387121372,-0.011657892729076025
1539131040387390,0.9882352941176471,-0.15582513160906375,-0.006652933546959616
1539131040403374,0.9835965514610514,-0.14874494544899663,-0.0039673456931410556
1539131040419358,0.9823758297093157,-0.14825665674830235,-0.0036011291676203427
1539131040435241,0.9907988097962921,-0.1480125123979552,-0.0036011291676203427
1539131040451225,0.9951934081025406,-0.1409323262378881,0.003112840466926059
1539131040467208,0.9980010681315328,-0.1366598001068131,0.006652933546959616
1539131040483192,1.0071564812695506,-0.13812466620889596,0.002868696116578917
1539131040499176,1.0168001831082627,-0.1409323262378881,1.831082627603564E-4
1539131040515159,1.0213168535896848,-0.14288548104066523,-0.004943923094529623
1539131040531143,1.0203402761882963,-0.14447241931792165,-0.006286717021438903
1539131040547126,1.0114290074006256,-0.14325169756618594,-0.007019150072480329
1539131040563110,0.9970244907301442,-0.1404440375371938,-0.005554283970397478
1539131040579094,0.9840848401617457,-0.14349584191653308,-0.007629510948348184
1539131040595077,0.9776150148775464,-0.15252918287937733,-0.010437170977340315
1539131040611061,0.9795681696803236,-0.15973144121461802,-0.010803387502861028
1539131040627044,0.98286411841001,-0.16559090562294942,-0.006530861371786045
1539131040643028,0.9783474479285879,-0.16620126649881728,-0.011169604028381741
1539131040659011,0.9728542000457772,-0.17340352483405796,-0.01495384145876244
1539131040674995,0.964919508659495,-0.18097199969481936,-0.023010605020218122
1539131040690979,0.9671168078126193,-0.18793011367971335,-0.02264438849469741
1539131040706962,0.9654077973601893,-0.1820706492713815,-0.013366903181506018
1539131040722946,0.9586938277256429,-0.17132829785610726,-0.007995727473868897
1539131040738929,0.9577172503242544,-0.17022964827954512,-0.01239032578011745
1539131040754821,0.9644312199588008,-0.17376974135957868,-0.019104295414663852
1539131040770805,0.96748302433814,-0.17084000915541298,-0.01617456321049815
1539131040786788,0.9662623025864043,-0.16510261692225514,-0.010681315327687457
1539131040802771,0.9646753643091479,-0.15960936903944445,-0.005310139620050336
1539131040818754,0.9669947356374458,-0.15277332722972448,-0.009460593575951748
1539131040834737,0.9682154573891815,-0.15167467765316234,-0.007019150072480329
1539131040850720,0.9688258182650493,-0.1526512550545509,-0.0036011291676203427
1539131040866703,0.9755397878995957,-0.15240711070420376,-0.0014038300144960658
1539131040882686,0.9835965514610514,-0.15167467765316234,-0.0014038300144960658
1539131040898669,0.9873807888914321,-0.15460440985732804,-0.0021362630655374915
1539131040914652,0.9901884489204242,-0.15533684290836947,-0.006286717021438903
1539131040930636,0.9915312428473335,-0.15460440985732804,-0.0018921187151903496
1539131040946619,0.9936064698252842,-0.15387197680628661,-0.003356984817273201
1539131040962602,0.9965362020294499,-0.14959945067521163,-0.0012817578393224949
1539131040978585,1.001052872510872,-0.15045395590142663,-0.008728160524910322
1539131040994568,1.0052033264667735,-0.14984359502555877,-0.013855191882200302
1539131041010551,0.9975127794308385,-0.14874494544899663,-0.011291676203555312
1539131041026534,0.99140917067216,-0.14984359502555877,-0.011291676203555312
1539131041042517,0.9949492637521935,-0.1480125123979552,-0.010193026626993174
1539131041058500,1.0012970168612192,-0.14312962539101237,-0.008850232700083893
1539131041074432,1.0031280994888228,-0.1342183566033417,-0.005188067444876765
1539131041090415,1.00337224383917,-0.12726024261844815,-0.00457770656900891
1539131041106398,1.0004425116350042,-0.12188906691081103,-0.004699778744182481
1539131041122381,0.9987335011825742,-0.12359807736324102,-0.007995727473868897
1539131041138364,0.9942168307011521,-0.13409628442816812,-0.013000686655985305
1539131041154348,0.9899443045700771,-0.14984359502555877,-0.015686274509803866
1539131041170331,0.9903105210955978,-0.16546883344777585,-0.015930418860151008
1539131041186314,0.9884794384679942,-0.17340352483405796,-0.015808346684977437
1539131041202297,0.980300602731365,-0.16937514305333012,-0.01617456321049815
1539131041218280,0.9682154573891815,-0.16913099870298298,-0.020691233691920274
1539131041234263,0.9636987869077593,-0.17230487525749583,-0.02801556420233453
1539131041250246,0.9616235599298086,-0.1770656900892651,-0.029724574654764524
1539131041266229,0.9621118486305029,-0.18133821622034008,-0.031189440756847375
1539131041282212,0.9646753643091479,-0.18109407186999293,-0.030945296406500233
1539131041298195,0.9627222095063708,-0.1787747005416951,-0.028137636377508102
1539131041314179,0.9654077973601893,-0.17779812314030652,-0.03204394598306237
1539131041330162,0.9737087052719922,-0.16803234912642084,-0.03070115205615309
1539131041346145,0.9770046540016786,-0.1576562142366673,-0.02410925459678026
1539131041362128,0.9788357366292821,-0.14984359502555877,-0.022278171969176697
1539131041378111,0.982009613183795,-0.1467917906462195,-0.02276646066987098
1539131041394073,0.985427634088655,-0.14544899671931022,-0.020569161516746703
1539131041410056,0.9849393453879607,-0.14117647058823524,-0.008972304875257464
1539131041426038,0.9875028610666057,-0.1328755626764324,0.004821850919356052
1539131041442021,0.9929961089494164,-0.12530708781567101,0.008239871824216038
1539131041458004,0.9973907072556649,-0.12591744869153887,0.0025024795910582043
1539131041473986,1.0005645838101778,-0.13177691309987027,-0.0020141908903639205
1539131041489969,0.9956816968032349,-0.13678187228198668,-1.831082627603564E-4
1539131041505952,0.9887235828183414,-0.14435034714274808,0.003479056992446772
1539131041521934,0.983718623636225,-0.14862287327382306,0.004699778744182481
1539131041537917,0.9809109636072328,-0.15277332722972448,-3.0518043793392735E-4
1539131041553899,0.9812771801327536,-0.15826657511253517,-0.004821850919356052
1539131041569882,0.9789578088044557,-0.16009765774013873,-0.010681315327687457
1539131041585865,0.9804226749065386,-0.164858472571908,-0.015808346684977437
1539131041601847,0.98628213931487,-0.16791027695124727,-0.024597543297474544
1539131041617830,0.9805447470817121,-0.16559090562294942,-0.02667277027542525
1539131041633813,0.9732204165712979,-0.16058594644083302,-0.02679484245059882
1539131041649795,0.9582055390249486,-0.16253910124361015,-0.027405203326466676
1539131041665778,0.9594262607766844,-0.1598535133897916,-0.02667277027542525
1539131041681760,0.9727321278706036,-0.15338368810559233,-0.02423132677195383
1539131041697743,0.9727321278706036,-0.14740215152208735,-0.025696192874036683
1539131041713653,0.9665064469367515,-0.1430075532158388,-0.021911955443655984
1539131041729636,0.9671168078126193,-0.14373998626688023,-0.01873807888914314
1539131041745618,0.9801785305561914,-0.15289539940489805,-0.022156099794003126
1539131041761601,0.9927519645990692,-0.15460440985732804,-0.02288853284504455
1539131041777584,0.9879911497673,-0.1450827801937895,-0.015320057984283153
1539131041793566,0.975173571374075,-0.14142061493858238,-0.007263294422827471
1539131041809549,0.97602807660029,-0.14239719233997095,-0.005676356145571049
1539131041825532,0.9903105210955978,-0.14813458457312878,-0.008117799649042468
1539131041841514,1.0000762951094835,-0.1514305333028152,-0.011169604028381741
1539131041857497,1.0003204394598306,-0.1535057602807659,-0.009338521400778177
1539131041873479,0.9950713359273671,-0.15204089417868305,-0.007629510948348184
1539131041889462,0.9943389028763256,-0.15301747158007162,-0.0060425726710917615
1539131041905445,1.0004425116350042,-0.15680170901045232,-0.013977264057373873
1539131041921427,1.0004425116350042,-0.15704585336079946,-0.01873807888914314
1539131041937410,0.9939726863508049,-0.1547264820325016,-0.019348439765010994
1539131041953393,0.9821316853589686,-0.15301747158007162,-0.012024109254596738
1539131041969375,0.9796902418554971,-0.1493553063248645,-0.012512397955291021
1539131041985358,0.98286411841001,-0.14984359502555877,-0.018005645838101714
1539131042001340,0.9827420462348364,-0.14947737850003806,-0.020569161516746703
1539131042017323,0.9756618600747693,-0.15191882200350948,-0.0214236667429617
1539131042033264,0.9706569008926529,-0.1509422446021209,-0.015808346684977437
1539131042049246,0.96577401388571,-0.15008773937590592,-0.012634470130464592
1539131042065228,0.9695582513160907,-0.15106431677729448,-0.015442130159456724
1539131042081210,0.9684596017395286,-0.14862287327382306,-0.015930418860151008
1539131042097192,0.9678492408636608,-0.1547264820325016,-0.015564202334630295
1539131042113175,0.9727321278706036,-0.16131837949187444,-0.01483176928358887
1539131042129157,0.9810330357824064,-0.16131837949187444,-0.00848401617456318
1539131042145139,0.9831082627603571,-0.1593652246890973,-0.0026245517662317752
1539131042161121,0.9834744792858778,-0.15448233768215447,-0.0017700465400167786
1539131042177103,0.9839627679865721,-0.1497215228503852,-0.0061646448462653325
1539131042193085,0.9883573662928207,-0.14630350194552522,-0.008728160524910322
1539131042209067,0.9838406958113985,-0.14227512016479738,-0.0061646448462653325
1539131042225050,0.9818875410086214,-0.14691386282139307,-0.0042114900434881974
1539131042241032,0.987136644541085,-0.15277332722972448,-0.00836194399938961
1539131042257014,0.9886015106431678,-0.15619134813458446,-0.010803387502861028
1539131042272996,0.9857938506141757,-0.16253910124361015,-0.012756542305638163
1539131042288978,0.9805447470817121,-0.16327153429465158,-0.015564202334630295
1539131042304960,0.9770046540016786,-0.16595712214847014,-0.021057450217440987
1539131042320943,0.9765163653009843,-0.164003967345693,-0.020935378042267416
1539131042336925,0.9762722209506371,-0.162294956893263,-0.019592584115358136
1539131042352874,0.9727321278706036,-0.15716792553597303,-0.01886015106431671
1539131042368857,0.9701686121919586,-0.1547264820325016,-0.007751583123521755
1539131042384839,0.973464560921645,-0.1442282749675745,0.0060425726710917615
1539131042400821,0.9721217669947357,-0.1371480888075074,0.01739528496223386
1539131042416803,0.9763942931258107,-0.12823682001983672,0.01751735713740743
1539131042432785,0.978591592278935,-0.1345845731288624,0.024353398947127403
1539131042448767,0.9761501487754636,-0.13910124361028453,0.02410925459678026
1539131042464749,0.980300602731365,-0.1438620584420538,0.01617456321049815
1539131042480732,0.9884794384679942,-0.15887693598840302,0.005554283970397478
1539131042496714,0.9978789959563592,-0.17438010223544653,-0.00579842832074462
1539131042512696,1.0039826047150378,-0.18780804150453978,-0.01495384145876244
1539131042528678,1.0000762951094835,-0.18646524757763006,-0.012146181429770309
1539131042544660,0.9883573662928207,-0.16827649347676799,-1.831082627603564E-4
1539131042560642,0.9795681696803236,-0.1535057602807659,0.004821850919356052
1539131042576624,0.9843289845120928,-0.1509422446021209,-0.0016479743648432077
1539131042592607,0.9906767376211185,-0.15338368810559233,-0.004455634393835339
1539131042608589,0.9903105210955978,-0.15484855420767518,-0.006897077897306758
1539131042624571,0.990554665445945,-0.1493553063248645,-0.0060425726710917615
1539131042640553,0.9886015106431678,-0.13910124361028453,-0.005065995269703194
1539131042656535,0.9898222323949035,-0.1426413366903181,-0.013366903181506018
1539131042672454,0.9973907072556649,-0.14874494544899663,-0.01861600671396957
1539131042688437,1.0032501716639963,-0.15631342030975803,-0.017883573662928143
1539131042704419,0.9881132219424735,-0.16034180209048587,-1.831082627603564E-4
1539131042720401,0.9839627679865721,-0.15790035858701446,0.0040894178683146265
1539131042736383,0.9982452124818799,-0.16388189517051943,-0.0022583352407110624
1539131042752365,1.0083772030212863,-0.15460440985732804,-0.010315098802166744
1539131042768347,1.00166323338674,-0.1585107194628823,-0.014343480582894585
1539131042784330,0.97944609750515,-0.15960936903944445,-0.0071412222476539
1539131042800312,0.9650415808346686,-0.1505760280766002,0.0017700465400167786
1539131042816294,0.9596704051270315,-0.1354390783550774,0.0060425726710917615
1539131042832276,0.9624780651560236,-0.14081025406271452,0.004455634393835339
1539131042848258,0.9646753643091479,-0.14703593499656664,0.0017700465400167786
1539131042864240,0.9665064469367515,-0.15387197680628661,-3.0518043793392735E-4
1539131042880222,0.970901045243,-0.1598535133897916,0.0026245517662317752
1539131042896205,0.9712672617685207,-0.16266117341878372,0.005310139620050336
1539131042912187,0.9765163653009843,-0.16913099870298298,-0.0021362630655374915
1539131042928169,0.9844510566872664,-0.17682154573891795,-0.010193026626993174
1539131042944151,0.9879911497673,-0.18048371099412508,-0.010681315327687457
1539131042960133,0.9816433966582743,-0.17816433966582723,-0.006286717021438903
1539131042976115,0.976882581826505,-0.17084000915541298,-0.006408789196612474
1539131042992065,0.9759060044251164,-0.1636377508201723,-0.007873655298695326
1539131043008047,0.9801785305561914,-0.161440451667048,-0.009094377050431035
1539131043024028,0.9705348287174793,-0.16009765774013873,-0.0017700465400167786
1539131043040010,0.970046540016785,-0.16266117341878372,0.002746623941405346
1539131043055992,0.9662623025864043,-0.16424811169604014,0.005676356145571049
1539131043071973,0.9812771801327536,-0.14691386282139307,0.00457770656900891
1539131043087955,0.9915312428473335,-0.15191882200350948,0.0016479743648432077
1539131043103937,0.9939726863508049,-0.15191882200350948,7.934691386282111E-4
1539131043119918,0.9922636758983749,-0.15582513160906375,0.0012817578393224949
1539131043135900,0.9971465629053178,-0.15912108033875016,-3.0518043793392735E-4
1539131043151882,0.9967803463797971,-0.15802243076218803,-0.005065995269703194
1539131043167863,0.9956816968032349,-0.1555809872587166,-0.0039673456931410556
1539131043183845,0.9882352941176471,-0.15191882200350948,-0.003112840466926059
1539131043199827,0.9857938506141757,-0.15301747158007162,-0.00579842832074462
1539131043215808,0.9856717784390021,-0.15680170901045232,-0.007995727473868897
1539131043231790,0.9861600671396964,-0.15875486381322945,-0.01104753185320817
1539131043247772,0.9829861905851836,-0.15533684290836947,-0.006286717021438903
1539131043263754,0.9815213244831007,-0.15716792553597303,-0.007751583123521755
1539131043279735,0.9824979018844893,-0.15875486381322945,-0.010193026626993174
1539131043295717,0.9860379949645228,-0.15948729686427088,-0.011291676203555312
1539131043311676,0.9848172732127871,-0.15973144121461802,-0.01239032578011745
1539131043327657,0.9834744792858778,-0.15960936903944445,-0.009216449225604606
1539131043343639,0.9822537575341421,-0.1576562142366673,-0.005065995269703194
1539131043359621,0.9784695201037614,-0.15655756466010518,-0.005554283970397478
1539131043375602,0.9783474479285879,-0.1569237811856259,-0.010559243152513886
1539131043391584,0.9718776226443886,-0.16168459601739515,-0.018371862363622427
1539131043407566,0.9627222095063708,-0.16998550392919798,-0.01873807888914314
1539131043423547,0.9549095902952622,-0.17169451438162797,-0.014221408407721015
1539131043439529,0.951003280689708,-0.17291523613336368,-0.0060425726710917615
1539131043455511,0.953566796368353,-0.17730983443961224,-0.0036011291676203427
1539131043471492,0.9608911268787672,-0.17254901960784297,-0.004333562218661768
1539131043487474,0.970046540016785,-0.18011749446860437,-0.00579842832074462
1539131043503456,0.9798123140306707,-0.17181658655680154,-0.001037613488975353
1539131043519437,0.9805447470817121,-0.1610742351415273,6.713969634546402E-4
1539131043535419,0.9850614175631343,-0.15106431677729448,7.934691386282111E-4
1539131043551401,0.9945830472266728,-0.14837872892347592,0.0021362630655374915
1539131043567382,1.0011749446860456,-0.15033188372625306,-0.002746623941405346
1539131043583364,1.002517738612955,-0.14532692454413665,4.272526131074983E-4
1539131043599346,1.000808728160525,-0.14312962539101237,0.0040894178683146265
1539131043615327,1.0063019760433356,-0.1464255741206988,-5.493247882810692E-4
1539131043631286,1.013870450904097,-0.1517967498283359,-0.008850232700083893
1539131043647268,1.0084992751964599,-0.15082017242694734,-0.005676356145571049
1539131043663250,0.9932402532997635,-0.15277332722972448,-0.0015259021896696368
1539131043679231,0.9857938506141757,-0.15411612115663376,-0.00579842832074462
1539131043695213,0.9799343862058443,-0.1585107194628823,-0.012634470130464592
1539131043711195,0.9796902418554971,-0.16339360646982515,-0.01617456321049815
1539131043727176,0.9748073548485543,-0.17010757610437155,-0.017273212787060288
1539131043743158,0.9689478904402229,-0.17291523613336368,-0.013488975356679589
1539131043759140,0.9626001373311972,-0.1727931639581901,-0.011657892729076025
1539131043775121,0.9596704051270315,-0.17254901960784297,-0.012634470130464592
1539131043791103,0.9607690547035936,-0.17523460746166153,-0.011291676203555312
1539131043807085,0.9597924773022051,-0.17389181353475225,-0.012634470130464592
1539131043823066,0.9600366216525522,-0.17730983443961224,-0.013366903181506018
1539131043839048,0.9663843747615779,-0.17901884489204223,-0.009948882276646032
1539131043855030,0.9719996948195622,-0.17938506141756294,-0.005676356145571049
1539131043871011,0.9711451895933472,-0.18048371099412508,-0.003112840466926059
1539131043886993,0.9754177157244222,-0.18194857709620793,-0.004821850919356052
1539131043902975,0.982009613183795,-0.18182650492103436,-0.008728160524910322
1539131043918956,0.9817654688334478,-0.1715724422064544,-0.006530861371786045
1539131043934938,0.9761501487754636,-0.16534676127260228,-0.006408789196612474
1539131043950866,0.9732204165712979,-0.16168459601739515,-0.0040894178683146265
1539131043966848,0.9822537575341421,-0.16913099870298298,-0.004333562218661768
1539131043982830,0.9898222323949035,-0.16839856565194156,-0.00836194399938961
1539131043998811,0.9898222323949035,-0.1627832455939573,-0.0071412222476539
1539131044014793,0.9812771801327536,-0.1505760280766002,-0.0014038300144960658
1539131044030775,0.9755397878995957,-0.14520485236896308,-6.103608758678547E-5
1539131044046756,0.9784695201037614,-0.14959945067521163,-0.002868696116578917
1539131044062738,0.9878690775921264,-0.16156252384222158,-0.007873655298695326
1539131044078720,0.9944609750514992,-0.17084000915541298,-0.0071412222476539
1539131044094701,0.9972686350804914,-0.17230487525749583,-0.0018921187151903496
1539131044110683,0.9951934081025406,-0.1715724422064544,-0.0018921187151903496
1539131044126665,0.9951934081025406,-0.1694972152285037,-0.005432211795223907
1539131044142646,0.9923857480735485,-0.16974135957885084,-0.008606088349736751
1539131044158628,0.9876249332417792,-0.17096208133058655,-0.008239871824216038
1539131044174610,0.9879911497673,-0.16913099870298298,-0.010437170977340315
1539131044190591,0.9861600671396964,-0.16437018387121372,-0.01239032578011745
1539131044206573,0.9816433966582743,-0.1598535133897916,-0.009094377050431035
1539131044222555,0.9788357366292821,-0.15948729686427088,-0.007507438773174613
1539131044238536,0.9733424887464714,-0.16083009079118016,-0.005920500495918191
1539131044254518,0.9694361791409172,-0.16266117341878372,-0.00457770656900891
1539131044270477,0.9685816739147022,-0.16388189517051943,-0.0038452735179674846
1539131044286458,0.9788357366292821,-0.17132829785610726,-0.0060425726710917615
1539131044302439,0.9938506141756314,-0.1774319066147858,-0.010193026626993174
1539131044318421,0.9948271915770199,-0.18451209277485292,-0.009338521400778177
1539131044334402,0.9832303349355307,-0.1832913710231172,-0.0042114900434881974
1539131044350383,0.9702906843671322,-0.1782864118410008,-0.005188067444876765
1539131044366364,0.9694361791409172,-0.17486839093614082,-0.01104753185320817
1539131044382345,0.9748073548485543,-0.17352559700923154,-0.01226825360494388
1539131044398326,0.9783474479285879,-0.1724269474326694,-0.010193026626993174
1539131044414308,0.975173571374075,-0.16913099870298298,-0.0022583352407110624
1539131044430289,0.9718776226443886,-0.16876478217746227,-0.003112840466926059
1539131044446270,0.9729762722209507,-0.17181658655680154,-0.006408789196612474
1539131044462251,0.9763942931258107,-0.17584496833752938,-0.009094377050431035
1539131044478232,0.9827420462348364,-0.17853055619134794,-0.00970473792629889
1539131044494214,0.98115510795758,-0.16839856565194156,-0.00579842832074462
1539131044510195,0.9789578088044557,-0.16168459601739515,-0.004455634393835339
1539131044526176,0.9865262836652171,-0.16253910124361015,-0.006897077897306758
1539131044542157,0.9932402532997635,-0.16803234912642084,-0.011169604028381741
1539131044558138,0.9912870984969864,-0.16827649347676799,-0.00970473792629889
1539131044574120,0.98970016021973,-0.16412603952086657,-0.007751583123521755
1539131044590088,0.9865262836652171,-0.1560692759594109,-0.0014038300144960658
1539131044606069,0.9853055619134814,-0.1517967498283359,-0.0037232013427939137
1539131044622050,0.9843289845120928,-0.1526512550545509,-0.0037232013427939137
1539131044638031,0.985427634088655,-0.15887693598840302,-0.007019150072480329
1539131044654012,0.9842069123369193,-0.1619287403677423,-0.004821850919356052
1539131044669994,0.9810330357824064,-0.1619287403677423,-0.005310139620050336
1539131044685975,0.9770046540016786,-0.16302738994430443,-0.007629510948348184
1539131044701956,0.9750514991989014,-0.1677882047760737,-0.009948882276646032
1539131044717937,0.9756618600747693,-0.17486839093614082,-0.010803387502861028
1539131044733918,0.9715114061188679,-0.1787747005416951,-0.008972304875257464
1539131044749899,0.9701686121919586,-0.17779812314030652,-0.006530861371786045
1539131044765881,0.9733424887464714,-0.17779812314030652,-0.012878614480811734
1539131044781862,0.9746852826733807,-0.17694361791409152,-0.01483176928358887
1539131044797843,0.9739528496223393,-0.1787747005416951,-0.015197985809109582
1539131044813824,0.9732204165712979,-0.18146028839551365,-0.01361104753185316
1539131044829805,0.9685816739147022,-0.17560082398718224,-0.010070954451819603
1539131044845787,0.9672388799877929,-0.1719386587319751,-0.017639429312581
1539131044861768,0.9699244678416115,-0.17340352483405796,-0.02020294499122599
1539131044877749,0.9676050965133136,-0.17206073090714868,-0.016662851911192433
1539131044893730,0.9721217669947357,-0.17730983443961224,-0.014343480582894585
1539131044909698,0.9715114061188679,-0.17340352483405796,-0.007995727473868897
1539131044925679,0.9719996948195622,-0.17181658655680154,-0.01104753185320817
1539131044941661,0.9784695201037614,-0.17376974135957868,-0.013366903181506018
1539131044957642,0.9884794384679942,-0.17682154573891795,-0.01373311970702673
1539131044973623,0.9887235828183414,-0.17108415350576012,-0.011535820553902454
1539131044989604,0.9851834897383078,-0.16437018387121372,-0.006530861371786045
1539131045005585,0.9856717784390021,-0.15777828641184088,-0.0026245517662317752
1539131045021566,0.985427634088655,-0.15423819333180733,-0.002746623941405346
1539131045037548,0.9907988097962921,-0.15362783245593947,-0.002990768291752488
1539131045053529,0.9967803463797971,-0.1543602655069809,-0.001159685664148924
1539131045069510,1.0005645838101778,-0.15069810025177377,-7.934691386282111E-4
1539131045085491,1.002761882963302,-0.14984359502555877,6.103608758678547E-5
1539131045101472,1.0048371099412527,-0.15167467765316234,-0.0037232013427939137
1539131045117454,1.0012970168612192,-0.15533684290836947,-0.004943923094529623
1539131045133435,0.9937285420004578,-0.16034180209048587,-0.0039673456931410556
1539131045149416,0.9860379949645228,-0.1610742351415273,-0.004333562218661768
1539131045165397,0.9826199740596628,-0.1610742351415273,-0.00836194399938961
1539131045181378,0.9809109636072328,-0.16253910124361015,-0.011779964904249596
1539131045197360,0.9805447470817121,-0.16681162737468513,-0.011535820553902454
1539131045213341,0.9773708705271993,-0.17047379262989226,-0.010803387502861028
1539131045229309,0.9741969939726864,-0.17865262836652152,-0.009948882276646032
1539131045245290,0.9695582513160907,-0.17730983443961224,-0.012024109254596738
1539131045261271,0.9655298695353629,-0.1762111848630501,-0.01361104753185316
1539131045277252,0.9652857251850158,-0.1741359578850994,-0.013366903181506018
1539131045293233,0.9638208590829329,-0.17645532921339724,-0.014343480582894585
1539131045309215,0.9612573434042879,-0.17865262836652152,-0.015320057984283153
1539131045325196,0.9688258182650493,-0.18097199969481936,-0.014221408407721015
1539131045341177,0.9690699626153965,-0.17633325703822367,-0.013000686655985305
1539131045357158,0.96919203479057,-0.1732814526588844,-0.011902037079423167
1539131045373139,0.9661402304112308,-0.16620126649881728,-0.014587624933241727
1539131045389121,0.9636987869077593,-0.16681162737468513,-0.014709697108415298
1539131045405102,0.9754177157244222,-0.1749904631113144,-0.019592584115358136
1539131045421083,0.9844510566872664,-0.17596704051270295,-0.01605249103532458
1539131045437064,0.9806668192568857,-0.17108415350576012,-0.014221408407721015
1539131045453045,0.9745632104982072,-0.1652246890974287,-0.01226825360494388
1539131045469027,0.9733424887464714,-0.16437018387121372,-0.014343480582894585
1539131045485008,0.9746852826733807,-0.167421988250553,-0.015320057984283153
1539131045500989,0.9781033035782407,-0.17084000915541298,-0.015564202334630295
1539131045516970,0.9792019531548029,-0.17303730830853725,-0.01605249103532458
1539131045532951,0.9822537575341421,-0.17560082398718224,-0.014465552758068156
1539131045548919,0.9838406958113985,-0.17608911268787653,-0.011291676203555312
1539131045564901,0.9848172732127871,-0.1741359578850994,-0.008850232700083893
1539131045580882,0.9856717784390021,-0.17303730830853725,-0.010070954451819603
1539131045596863,0.987136644541085,-0.16961928740367727,-0.012024109254596738
1539131045612844,0.9876249332417792,-0.1660791943236437,-0.011657892729076025
1539131045628825,0.9890897993438621,-0.16534676127260228,-0.008117799649042468
1539131045644806,0.9899443045700771,-0.16510261692225514,-0.005432211795223907
1539131045660788,0.9892118715190357,-0.16388189517051943,-0.005310139620050336
1539131045676769,0.9951934081025406,-0.16766613260090013,-0.007263294422827471
1539131045692750,0.9962920576791028,-0.16437018387121372,-0.0061646448462653325
1539131045708731,0.9917753871976807,-0.15948729686427088,-0.008239871824216038
1539131045724712,0.9873807888914321,-0.15948729686427088,-0.0038452735179674846
1539131045740694,0.9927519645990692,-0.1607080186160066,-0.005188067444876765
1539131045756675,0.9920195315480278,-0.1610742351415273,-0.005920500495918191
1539131045772656,0.9815213244831007,-0.1610742351415273,-0.00457770656900891
1539131045788637,0.9813992523079271,-0.16876478217746227,-0.006530861371786045
1539131045804618,0.98115510795758,-0.17608911268787653,-0.009948882276646032
1539131045820600,0.97602807660029,-0.17682154573891795,-0.01239032578011745
1539131045836581,0.9689478904402229,-0.17047379262989226,-0.009460593575951748
1539131045852562,0.964919508659495,-0.1732814526588844,-0.008850232700083893
1539131045868499,0.96577401388571,-0.17608911268787653,-0.015442130159456724
1539131045884480,0.9673609521629665,-0.18133821622034008,-0.015442130159456724
1539131045900461,0.9661402304112308,-0.18194857709620793,-0.01361104753185316
1539131045916442,0.968337529564355,-0.18426794842450578,-0.014587624933241727
1539131045932422,0.9740749217975129,-0.1817044327458608,-0.014709697108415298
1539131045948403,0.982009613183795,-0.1803616388189515,-0.010803387502861028
1539131045964384,0.9853055619134814,-0.17547875181200867,-0.015320057984283153
1539131045980364,0.98286411841001,-0.1749904631113144,-0.01629663538567172
1539131045996345,0.9868925001907378,-0.17560082398718224,-0.01629663538567172
1539131046012326,0.9949492637521935,-0.17584496833752938,-0.020935378042267416
1539131046028307,0.9949492637521935,-0.16839856565194156,-0.018249790188448856
1539131046044287,0.9831082627603571,-0.16058594644083302,-0.014709697108415298
1539131046060268,0.9771267261768521,-0.16009765774013873,-0.015442130159456724
1539131046076249,0.976882581826505,-0.1607080186160066,-0.013488975356679589
1539131046092229,0.9773708705271993,-0.16046387426565945,-0.011779964904249596
1539131046108210,0.9812771801327536,-0.1627832455939573,-0.01226825360494388
1539131046124191,0.982009613183795,-0.16339360646982515,-0.0071412222476539
1539131046140172,0.9799343862058443,-0.16815442130159441,-0.003356984817273201
1539131046156152,0.9792019531548029,-0.17059586480506583,-4.272526131074983E-4
1539131046172133,0.9757839322499429,-0.17096208133058655,-7.934691386282111E-4
1539131046188110,0.970901045243,-0.16803234912642084,6.103608758678547E-5
1539131046204091,0.96577401388571,-0.1677882047760737,6.713969634546402E-4
1539131046220071,0.9615014877546351,-0.16583504997329657,9.15541313801782E-4
1539131046236052,0.9667505912870986,-0.16913099870298298,0.0020141908903639205
1539131046252033,0.9759060044251164,-0.1732814526588844,3.0518043793392735E-4
1539131046268014,0.9810330357824064,-0.1753566796368351,0.002868696116578917
1539131046283994,0.9818875410086214,-0.17132829785610726,0.002868696116578917
1539131046299975,0.9823758297093157,-0.16815442130159441,1.831082627603564E-4
1539131046315956,0.9853055619134814,-0.16852063782711513,-0.0022583352407110624
1539131046331936,0.9933623254749371,-0.17145037003128083,-0.004699778744182481
1539131046347917,0.9987335011825742,-0.17169451438162797,-0.010437170977340315
1539131046363898,0.9986114290074006,-0.16852063782711513,-0.008850232700083893
1539131046379879,0.9921416037232014,-0.16217288471808944,-0.010437170977340315
1539131046395859,0.9851834897383078,-0.15631342030975803,-0.01483176928358887
1539131046411840,0.9801785305561914,-0.1593652246890973,-0.024475471122300974
1539131046427821,0.9763942931258107,-0.161440451667048,-0.023498893720912406
1539131046443802,0.9721217669947357,-0.1619287403677423,-0.019470511940184565
1539131046459782,0.9698023956664379,-0.16644541084916442,-0.016784924086366004
1539131046475763,0.970046540016785,-0.16827649347676799,-0.01873807888914314
1539131046491744,0.9647974364843215,-0.16437018387121372,-0.017273212787060288
1539131046507721,0.9623559929808501,-0.16559090562294942,-0.014709697108415298
1539131046523701,0.9650415808346686,-0.1694972152285037,-0.010437170977340315
1539131046539682,0.973464560921645,-0.16754406042572656,-0.009948882276646032
1539131046555663,0.9763942931258107,-0.16632333867399085,-0.0061646448462653325
1539131046571643,0.9762722209506371,-0.1715724422064544,-0.00579842832074462
1539131046587624,0.97773708705272,-0.17547875181200867,-0.0020141908903639205
1539131046603605,0.9816433966582743,-0.18109407186999293,-0.0022583352407110624
1539131046619586,0.9873807888914321,-0.18060578316929865,-0.003356984817273201
1539131046635566,0.9864042114900435,-0.1745021744106201,6.713969634546402E-4
1539131046651547,0.9833524071107043,-0.17169451438162797,6.103608758678547E-5
1539131046667528,0.9812771801327536,-0.1724269474326694,-0.002868696116578917
1539131046683508,0.9824979018844893,-0.17096208133058655,-0.004455634393835339
1539131046699489,0.985427634088655,-0.17303730830853725,-0.006652933546959616
1539131046715470,0.9853055619134814,-0.1724269474326694,-0.007873655298695326
1539131046731451,0.9834744792858778,-0.1698634317540244,-0.008972304875257464
1539131046747431,0.982009613183795,-0.17096208133058655,-0.015075913633936011
1539131046763412,0.982009613183795,-0.17047379262989226,-0.014709697108415298
1539131046779393,0.980300602731365,-0.1749904631113144,-0.01751735713740743
1539131046795374,0.9827420462348364,-0.1791409170672158,-0.02008087281605242
1539131046811354,0.98457312886244,-0.1808499275196458,-0.023743038071259548
1539131046827331,0.9827420462348364,-0.1770656900892651,-0.021911955443655984
1539131046843312,0.9800564583810178,-0.17694361791409152,-0.02386511024643312
1539131046859293,0.9738307774471657,-0.17511253528648796,-0.021179522392614558
1539131046875273,0.9721217669947357,-0.1782864118410008,-0.02264438849469741
1539131046891254,0.9779812314030671,-0.17901884489204223,-0.021057450217440987
1539131046907235,0.9806668192568857,-0.17291523613336368,-0.016784924086366004
1539131046923215,0.9798123140306707,-0.17059586480506583,-0.012878614480811734
1539131046939196,0.9831082627603571,-0.17096208133058655,-0.010559243152513886
1539131046955177,0.9821316853589686,-0.17218280308232226,-0.006652933546959616
1539131046971158,0.9822537575341421,-0.1712062256809337,-0.007995727473868897
1539131046987138,0.985427634088655,-0.1686427100022887,-0.0036011291676203427
1539131047003119,0.9889677271686885,-0.16803234912642084,-0.00323491264209963
1539131047019100,0.9882352941176471,-0.16717784390020585,0.0015259021896696368
1539131047035081,0.9798123140306707,-0.16839856565194156,0.0021362630655374915
1539131047051061,0.9759060044251164,-0.17010757610437155,0.004455634393835339
1539131047067042,0.978591592278935,-0.1736476691844051,1.831082627603564E-4
1539131047083023,0.9790798809796293,-0.17132829785610726,-0.0018921187151903496
1539131047099003,0.9746852826733807,-0.17059586480506583,0.002746623941405346
1539131047114984,0.9684596017395286,-0.17218280308232226,0.006286717021438903
1539131047130965,0.9665064469367515,-0.1745021744106201,0.0036011291676203427
1539131047146911,0.96919203479057,-0.17767605096513295,-0.0026245517662317752
1539131047162892,0.9762722209506371,-0.18060578316929865,-0.001159685664148924
1539131047178873,0.9832303349355307,-0.18280308232242293,0.0012817578393224949
1539131047194853,0.9867704280155642,-0.18109407186999293,-0.0026245517662317752
1539131047210834,0.9851834897383078,-0.18023956664377794,-0.006897077897306758
1539131047226815,0.98115510795758,-0.1707179369802394,-0.006775005722133187
1539131047242796,0.9778591592278936,-0.17059586480506583,-0.005065995269703194
1539131047258776,0.9870145723659114,-0.16937514305333012,-0.006530861371786045
1539131047274757,1.000808728160525,-0.16876478217746227,-0.007995727473868897
1539131047290738,0.9990997177080949,-0.166567483024338,-0.006286717021438903
1539131047306718,0.9899443045700771,-0.164003967345693,-0.010315098802166744
1539131047322699,0.9826199740596628,-0.16595712214847014,-0.009948882276646032
1539131047338680,0.9779812314030671,-0.16803234912642084,-0.010070954451819603
1539131047354661,0.9755397878995957,-0.1669336995498587,-0.010559243152513886
1539131047370641,0.9757839322499429,-0.16791027695124727,-0.012756542305638163
1539131047386622,0.9774929427023729,-0.1669336995498587,-0.013366903181506018
1539131047402603,0.9789578088044557,-0.17315938048371082,-0.018127718013275285
1539131047418583,0.9735866330968186,-0.17633325703822367,-0.011291676203555312
1539131047434564,0.9662623025864043,-0.17901884489204223,-0.010437170977340315
1539131047450545,0.9656519417105365,-0.18097199969481936,-0.011779964904249596
1539131047466522,0.9687037460898758,-0.17962920576791008,-0.008972304875257464
1539131047482503,0.9739528496223393,-0.1779201953154801,-0.008728160524910322
1539131047498483,0.9761501487754636,-0.17779812314030652,-0.007507438773174613
1539131047514464,0.973464560921645,-0.1753566796368351,-0.0017700465400167786
1539131047530445,0.970901045243,-0.1765774013885708,-0.0018921187151903496
1539131047546425,0.9741969939726864,-0.17926298924238937,4.272526131074983E-4
1539131047562406,0.9788357366292821,-0.17669947356374438,-0.004333562218661768
1539131047578387,0.98457312886244,-0.17645532921339724,-0.005920500495918191
1539131047594368,0.9886015106431678,-0.17291523613336368,-0.006530861371786045
1539131047610348,0.9884794384679942,-0.16815442130159441,1.831082627603564E-4
1539131047626329,0.988845654993515,-0.16766613260090013,-0.002990768291752488
1539131047642310,0.9931181811245899,-0.16766613260090013,-0.008606088349736751
1539131047658290,0.9999542229343099,-0.1644922560463873,-0.00982681010147246
1539131047674271,0.9965362020294499,-0.15655756466010518,-0.007507438773174613
1539131047690252,0.9826199740596628,-0.16009765774013873,-0.013488975356679589
1539131047706233,0.97773708705272,-0.16168459601739515,-0.010070954451819603
1539131047722213,0.9755397878995957,-0.16510261692225514,-0.0012817578393224949
1539131047738194,0.9728542000457772,-0.16839856565194156,-0.0038452735179674846
1539131047754175,0.9757839322499429,-0.16925307087815655,-0.012146181429770309
1539131047770156,0.9746852826733807,-0.1715724422064544,-0.010437170977340315
1539131047786132,0.9732204165712979,-0.1757228961623558,-0.0038452735179674846
1539131047802113,0.97261005569543,-0.17816433966582723,-0.0037232013427939137
1539131047818094,0.9738307774471657,-0.1829251544975965,-0.005920500495918191
1539131047834075,0.9746852826733807,-0.18194857709620793,-0.008728160524910322
1539131047850055,0.9719996948195622,-0.18255893797207579,-0.008239871824216038
1539131047866036,0.9735866330968186,-0.18146028839551365,-0.006897077897306758
1539131047882017,0.9744411383230336,-0.18011749446860437,-0.008239871824216038
1539131047897997,0.9744411383230336,-0.18060578316929865,-0.008239871824216038
1539131047913978,0.9712672617685207,-0.17938506141756294,-0.010193026626993174
1539131047929959,0.9707789730678265,-0.1782864118410008,-0.007995727473868897
1539131047945940,0.9730983443961243,-0.17511253528648796,-0.011902037079423167
1539131047961920,0.9776150148775464,-0.1715724422064544,-0.012512397955291021
1539131047977901,0.98457312886244,-0.17206073090714868,-0.012146181429770309
1539131047993882,0.9901884489204242,-0.1745021744106201,-0.01104753185320817
1539131048009863,0.9942168307011521,-0.17755397878995938,-0.01751735713740743
1539131048025843,0.9951934081025406,-0.17669947356374438,-0.02032501716639956
1539131048041824,0.9961699855039292,-0.1774319066147858,-0.020569161516746703
1539131048057805,0.9984893568322271,-0.17267109178301654,-0.019714656290531707
1539131048073785,0.9937285420004578,-0.166567483024338,-0.014465552758068156
1539131048089766,0.9892118715190357,-0.1598535133897916,-0.012756542305638163
1539131048105682,-0.6247043564507515,0.5711146715495534,0.34174105439841274
1539131048121662,1.8764324406805528,-0.8083009079118026,-0.416327153429465
1539131048137642,1.0530556191348133,-0.2991378652628365,-0.15082017242694734
1539131048153623,0.937331197070268,-0.21771572442206466,-0.09698634317540256
1539131048169603,1.0373083085374226,-0.15997558556496516,-0.04388494697489875
1539131048185583,1.0100862134737163,-0.16791027695124727,-0.02642862592507811
1539131048201563,1.0168001831082627,-0.0508430609597923,-0.07501335164415979
1539131048217544,1.0017853055619135,0.03472953383688093,-0.10650797283894109
1539131048233524,0.98286411841001,0.02032501716639956,-0.10711833371480894
1539131048249504,0.9763942931258107,-0.040100709544518054,-0.07013046463721695
1539131048265484,0.98457312886244,-0.07684443427176335,-0.0365606164644845
1539131048281465,1.0048371099412527,-0.09076066224155044,-0.01495384145876244
1539131048297445,1.024979018844892,-0.12262149996185245,-0.010803387502861028
1539131048313425,1.023270008392462,-0.1948882276646069,-0.005432211795223907
1539131048329405,1.0153353170061798,-0.2537270160982681,0.009948882276646032
1539131048345386,1.0067902647440299,-0.26605630579079875,0.021911955443655984
1539131048361366,1.005325398641947,-0.23785763332570387,0.028259708552681673
1539131048377346,1.0159456778820477,-0.18951705195696977,0.028381780727855244
1539131048393326,1.0161898222323948,-0.16681162737468513,0.030945296406500233
1539131048409307,1.006179903868162,-0.16388189517051943,0.036316472114137355
1539131048425293,0.9870145723659114,-0.17267109178301654,0.032532234683756656
1539131048441273,0.9721217669947357,-0.1973296711680783,0.032532234683756656
1539131048457253,0.9672388799877929,-0.20807202258335256,0.03179980163271523
1539131048473233,0.9645532921339743,-0.20294499122606258,0.028870069428549527
1539131048489214,0.9655298695353629,-0.19171435111009405,0.019592584115358136
1539131048505194,0.96919203479057,-0.1854886701762415,0.010437170977340315
1539131048521174,0.97602807660029,-0.1858548867017622,-6.713969634546402E-4
1539131048537154,0.9804226749065386,-0.18658731975280363,-0.00836194399938961
1539131048553135,0.9834744792858778,-0.18719768062867148,-0.01898222323949028
1539131048569115,0.9804226749065386,-0.18390173189898507,-0.02545204852368954
1539131048585095,0.9718776226443886,-0.17669947356374438,-0.03326466773479808
1539131048601075,0.9689478904402229,-0.17206073090714868,-0.03924620431830306
1539131048617056,0.9696803234912643,-0.16620126649881728,-0.046570534828717314
1539131048633036,0.9710231174181736,-0.16302738994430443,-0.05230792706187515
1539131048649016,0.9689478904402229,-0.15655756466010518,-0.05401693751430514
1539131048664996,0.9668726634622722,-0.14947737850003806,-0.055970092317082276
1539131048680976,0.96748302433814,-0.1433737697413595,-0.05951018539711583
1539131048696957,0.9723659113450829,-0.1388570992599374,-0.05938811322194226
1539131048712937,0.97944609750515,-0.1316548409246967,-0.06121919584954583
1539131048728917,0.98628213931487,-0.1240863660639353,-0.05645838101777656
1539131048744903,0.9895780880445564,-0.11871519035629818,-0.053406576638437286
1539131048760883,0.9915312428473335,-0.1152971694514382,-0.05023270008392444
1539131048776864,0.9937285420004578,-0.1135881589990082,-0.04730296787975874
1539131048792844,0.9937285420004578,-0.11956969558251318,-0.03961242084382377
1539131048808824,0.9920195315480278,-0.12982375829709314,-0.031189440756847375
1539131048824804,0.9875028610666057,-0.13409628442816812,-0.02545204852368954
1539131048840785,0.9839627679865721,-0.1392233157854581,-0.01629663538567172
1539131048856765,0.9842069123369193,-0.15045395590142663,-0.011291676203555312
1539131048872745,0.9894560158693828,-0.16351567864499872,-0.007263294422827471
1539131048888725,0.9954375524528878,-0.17206073090714868,-6.103608758678547E-5
1539131048904706,0.9982452124818799,-0.18060578316929865,0.008728160524910322
1539131048920686,0.9909208819714657,-0.1846341649500265,0.01861600671396957
1539131048936666,0.9813992523079271,-0.18524452582589435,0.027038986800945963
1539131048952646,0.9730983443961243,-0.18439002059967935,0.028625925078202386
1539131048968627,0.9679713130388343,-0.1867093919279772,0.03057907988097952
1539131048984607,0.9695582513160907,-0.19220263981078833,0.03045700770580595
1539131049000587,0.9702906843671322,-0.19830624856946688,0.031189440756847375
1539131049016567,0.9729762722209507,-0.19891660944533474,0.03533989471274879
1539131049032548,0.970901045243,-0.20062561989776473,0.03424124513618665
1539131049048528,0.96919203479057,-0.201968413824674,0.032410162508583085
1539131049064483,0.9679713130388343,-0.20148012512397973,0.02923628595407024
1539131049080464,0.9671168078126193,-0.1998931868467233,0.023254749370565264
1539131049096444,0.9689478904402229,-0.1943999389639126,0.020447089341573133
1539131049112424,0.9661402304112308,-0.18536659800106792,0.01617456321049815
1539131049128404,0.9679713130388343,-0.1832913710231172,0.012146181429770309
1539131049144384,0.9727321278706036,-0.18280308232242293,0.006652933546959616
1539131049160365,0.9755397878995957,-0.1808499275196458,0.002990768291752488
1539131049176345,0.9763942931258107,-0.1749904631113144,-9.15541313801782E-4
1539131049192325,0.9761501487754636,-0.17047379262989226,-0.0023804074158846333
1539131049208305,0.9821316853589686,-0.164858472571908,-0.004333562218661768
1539131049224286,0.9882352941176471,-0.16290531776913086,-0.00836194399938961
1539131049240266,0.9893339436942092,-0.163149462119478,-0.010437170977340315
1539131049256246,0.9893339436942092,-0.16156252384222158,-0.014343480582894585
1539131049272226,0.9879911497673,-0.15826657511253517,-0.011902037079423167
1539131049288207,0.9910429541466392,-0.1547264820325016,-0.010437170977340315
1539131049304187,0.9907988097962921,-0.1522850385290302,-0.011779964904249596
1539131049320167,0.9910429541466392,-0.15545891508354304,-0.014343480582894585
1539131049336147,0.9921416037232014,-0.1607080186160066,-0.012756542305638163
1539131049352128,0.9917753871976807,-0.16119630731670087,-0.004943923094529623
1539131049368108,0.9912870984969864,-0.15777828641184088,1.831082627603564E-4
1539131049384094,0.988845654993515,-0.15704585336079946,-6.713969634546402E-4
1539131049400074,0.9875028610666057,-0.16058594644083302,-0.010437170977340315
1539131049416054,0.9809109636072328,-0.16412603952086657,-0.007873655298695326
1539131049432035,0.9706569008926529,-0.16852063782711513,-0.0039673456931410556
1539131049448015,0.9678492408636608,-0.1732814526588844,3.0518043793392735E-4
1539131049463995,0.968337529564355,-0.17523460746166153,3.0518043793392735E-4
1539131049479975,0.9698023956664379,-0.18060578316929865,-0.0012817578393224949
1539131049495956,0.9694361791409172,-0.18890669108110192,-0.0021362630655374915
1539131049511936,0.9721217669947357,-0.1911039902342262,-0.003112840466926059
1539131049527916,0.9737087052719922,-0.18915083543144906,0.0016479743648432077
1539131049543896,0.9728542000457772,-0.18146028839551365,0.005920500495918191
1539131049559877,0.9752956435492486,-0.17682154573891795,0.005676356145571049
1539131049575857,0.9773708705271993,-0.1791409170672158,0.006286717021438903
1539131049591837,0.98115510795758,-0.17816433966582723,0.007019150072480329
1539131049607817,0.9795681696803236,-0.1745021744106201,0.011535820553902454
1539131049623798,0.9795681696803236,-0.16754406042572656,0.012024109254596738
1539131049639778,0.9796902418554971,-0.164003967345693,0.010070954451819603
1539131049655758,0.9788357366292821,-0.16717784390020585,0.005310139620050336
1539131049671738,0.9832303349355307,-0.17145037003128083,0.0014038300144960658
1539131049687718,0.9851834897383078,-0.1727931639581901,0.0015259021896696368
1539131049703704,0.9857938506141757,-0.1715724422064544,0.0038452735179674846
1539131049719685,0.9878690775921264,-0.1698634317540244,4.272526131074983E-4
1539131049735665,0.9910429541466392,-0.1719386587319751,-0.006652933546959616
1539131049751645,0.9921416037232014,-0.17633325703822367,-0.010559243152513886
1539131049767625,0.9882352941176471,-0.17633325703822367,-0.012146181429770309
1539131049783606,0.98457312886244,-0.1690089265278094,-0.010193026626993174
1539131049799586,0.982009613183795,-0.164858472571908,-0.011169604028381741
1539131049815566,0.9812771801327536,-0.16351567864499872,-0.010559243152513886
1539131049831546,0.982009613183795,-0.16595712214847014,-0.014709697108415298
1539131049847527,0.9782253757534143,-0.16534676127260228,-0.010193026626993174
1539131049863507,0.9727321278706036,-0.163149462119478,-0.007385366598001042
1539131049879487,0.9702906843671322,-0.16168459601739515,-0.005432211795223907
1539131049895467,0.97773708705272,-0.16375982299534586,-0.006775005722133187
1539131049911448,0.9842069123369193,-0.16754406042572656,-0.007263294422827471
1539131049927428,0.9821316853589686,-0.16668955519951156,-0.0042114900434881974
1539131049943408,0.9795681696803236,-0.16644541084916442,-0.001037613488975353
1539131049959388,0.97944609750515,-0.16729991607537942,-0.0017700465400167786
1539131049975369,0.9818875410086214,-0.167421988250553,-0.004455634393835339
1539131049991349,0.9805447470817121,-0.16998550392919798,-0.0061646448462653325
1539131050007329,0.9788357366292821,-0.16961928740367727,-6.713969634546402E-4
1539131050023315,0.9718776226443886,-0.1690089265278094,0.0036011291676203427
1539131050039295,0.9728542000457772,-0.16803234912642084,-6.103608758678547E-5
1539131050055276,0.9789578088044557,-0.17254901960784297,-0.005188067444876765
1539131050071256,0.9810330357824064,-0.17694361791409152,-0.007385366598001042
1539131050087236,0.9767605096513314,-0.1774319066147858,-0.0026245517662317752
1539131050103216,0.9765163653009843,-0.17840848401617437,-0.003112840466926059
1539131050119197,0.9793240253299764,-0.17669947356374438,-0.0042114900434881974
1539131050135177,0.98286411841001,-0.17523460746166153,-0.005432211795223907
1539131050151157,0.9800564583810178,-0.1715724422064544,-0.004455634393835339
1539131050167137,0.9719996948195622,-0.16351567864499872,-0.004333562218661768
1539131050183117,0.9739528496223393,-0.15960936903944445,-0.0021362630655374915
1539131050199098,0.9789578088044557,-0.15667963683527875,-0.004699778744182481
1539131050215078,0.983718623636225,-0.1589990081635766,-0.004821850919356052
1539131050231058,0.9848172732127871,-0.16266117341878372,-0.0042114900434881974
1539131050247038,0.9839627679865721,-0.16290531776913086,0.001037613488975353
1539131050263019,0.9813992523079271,-0.161440451667048,0.0039673456931410556
1539131050278999,0.9807888914320593,-0.1598535133897916,0.0022583352407110624
1539131050294979,0.978591592278935,-0.16217288471808944,0.0018921187151903496
1539131050310959,0.98115510795758,-0.1694972152285037,6.713969634546402E-4
1539131050326940,0.9798123140306707,-0.1712062256809337,0.003356984817273201
1539131050342895,0.9779812314030671,-0.17084000915541298,0.0042114900434881974
1539131050358875,0.98115510795758,-0.1712062256809337,0.003479056992446772
1539131050374856,0.980300602731365,-0.17315938048371082,3.0518043793392735E-4
1539131050390836,0.9809109636072328,-0.17389181353475225,-0.001159685664148924
1539131050406816,0.9801785305561914,-0.1703517204547187,-0.0038452735179674846
1539131050422796,0.9776150148775464,-0.16620126649881728,-6.103608758678547E-5
1539131050438777,0.9810330357824064,-0.16473640039673443,-9.15541313801782E-4
1539131050454757,0.9835965514610514,-0.16583504997329657,-0.0071412222476539
1539131050470737,0.9857938506141757,-0.16913099870298298,-0.008239871824216038
1539131050486717,0.9865262836652171,-0.16791027695124727,-0.005432211795223907
1539131050502698,0.9840848401617457,-0.16205081254291587,-0.005920500495918191
1539131050518678,0.9838406958113985,-0.15912108033875016,-0.009216449225604606
1539131050534658,0.9848172732127871,-0.1627832455939573,-0.009948882276646032
1539131050550638,0.9831082627603571,-0.16534676127260228,-0.006652933546959616
1539131050566619,0.9779812314030671,-0.1636377508201723,-0.00323491264209963
1539131050582599,0.9712672617685207,-0.1602197299153123,-0.006775005722133187
1539131050598579,0.9740749217975129,-0.1598535133897916,-0.006775005722133187
1539131050614559,0.9759060044251164,-0.16290531776913086,-0.0036011291676203427
1539131050630540,0.97944609750515,-0.16729991607537942,-0.0023804074158846333
1539131050646520,0.9752956435492486,-0.1712062256809337,-0.001159685664148924
1539131050662506,0.975173571374075,-0.17438010223544653,-0.0016479743648432077
1539131050678486,0.9776150148775464,-0.17340352483405796,0.00323491264209963
1539131050694466,0.9842069123369193,-0.17474631876096725,0.003479056992446772
1539131050710446,0.9877470054169528,-0.1757228961623558,0.0040894178683146265
1539131050726427,0.9864042114900435,-0.17425803006027296,0.005188067444876765
1539131050742407,0.9855497062638285,-0.167421988250553,0.008728160524910322
1539131050758387,0.9844510566872664,-0.16058594644083302,0.006652933546959616
1539131050774367,0.9883573662928207,-0.15912108033875016,0.004699778744182481
1539131050790348,0.9893339436942092,-0.1607080186160066,0.0039673456931410556
1539131050806328,0.9861600671396964,-0.16083009079118016,0.006897077897306758
1539131050822308,0.980300602731365,-0.15912108033875016,0.009094377050431035
1539131050838288,0.9795681696803236,-0.15997558556496516,0.0071412222476539
1539131050854269,0.980300602731365,-0.16205081254291587,1.831082627603564E-4
1539131050870249,0.9774929427023729,-0.16717784390020585,-0.0015259021896696368
1539131050886229,0.9656519417105365,-0.1694972152285037,4.272526131074983E-4
1539131050902209,0.9621118486305029,-0.17523460746166153,-5.493247882810692E-4
1539131050918190,0.9701686121919586,-0.18316929884794364,-0.004943923094529623
1539131050934170,0.973464560921645,-0.18609903105210934,-0.004455634393835339
1539131050950150,0.9696803234912643,-0.18683146410315077,-0.006286717021438903
1539131050966130,0.9658960860608836,-0.18243686579690221,3.0518043793392735E-4
1539131050982116,0.9658960860608836,-0.17608911268787653,0.003112840466926059
1539131050998097,0.9784695201037614,-0.1724269474326694,-4.272526131074983E-4
1539131051014077,0.9870145723659114,-0.17084000915541298,-0.0023804074158846333
1539131051030057,0.9850614175631343,-0.16668955519951156,0.002746623941405346
1539131051046037,0.978591592278935,-0.16095216296635373,0.011169604028381741
1539131051062018,0.9799343862058443,-0.15790035858701446,0.012756542305638163
1539131051077998,0.9877470054169528,-0.1581445029373616,0.007873655298695326
1539131051093978,0.9922636758983749,-0.16241702906843658,0.006286717021438903
1539131051109958,0.9884794384679942,-0.16375982299534586,0.006775005722133187
1539131051125939,0.9901884489204242,-0.16839856565194156,0.00970473792629889
1539131051141919,0.9931181811245899,-0.16888685435263584,0.009338521400778177
1539131051157899,0.9931181811245899,-0.16705577172503228,0.009216449225604606
1539131051173879,0.9894560158693828,-0.16815442130159441,0.00836194399938961
1539131051189859,0.98970016021973,-0.17047379262989226,0.009948882276646032
1539131051205840,0.9859159227893493,-0.163149462119478,0.013366903181506018
1539131051221820,0.9856717784390021,-0.15667963683527875,0.012146181429770309
1539131051237800,0.9884794384679942,-0.15619134813458446,0.013244831006332447
1539131051253780,0.9923857480735485,-0.16119630731670087,0.013244831006332447
1539131051269761,0.9844510566872664,-0.16302738994430443,0.015197985809109582
1539131051285741,0.9715114061188679,-0.16375982299534586,0.021789883268482413
1539131051301696,0.9689478904402229,-0.16473640039673443,0.02288853284504455
1539131051317677,0.971755550469215,-0.15667963683527875,0.01751735713740743
1539131051333657,0.9713893339436943,-0.1547264820325016,0.015442130159456724
1539131051349637,0.9689478904402229,-0.16009765774013873,0.01861600671396957
1539131051365617,0.9661402304112308,-0.16803234912642084,0.022400244144350268
1539131051381598,0.9676050965133136,-0.17218280308232226,0.022278171969176697
1539131051397578,0.9755397878995957,-0.1724269474326694,0.01605249103532458
1539131051413558,0.9799343862058443,-0.17010757610437155,0.015197985809109582
1539131051429538,0.9810330357824064,-0.16681162737468513,0.01629663538567172
1539131051445519,0.9757839322499429,-0.1690089265278094,0.01605249103532458
1539131051461499,0.9788357366292821,-0.1749904631113144,0.01873807888914314
1539131051477479,0.980300602731365,-0.17181658655680154,0.01886015106431671
1539131051493459,0.9817654688334478,-0.16791027695124727,0.019470511940184565
1539131051509440,0.9824979018844893,-0.17315938048371082,0.015564202334630295
1539131051525420,0.9877470054169528,-0.18341344319829078,0.012024109254596738
1539131051541400,0.9955596246280614,-0.18390173189898507,0.015320057984283153
1539131051557380,0.9951934081025406,-0.17840848401617437,0.019836728465705278
1539131051573361,0.9940947585259785,-0.17389181353475225,0.01605249103532458
1539131051589341,0.9962920576791028,-0.17010757610437155,0.013855191882200302
1539131051605321,0.9960479133287556,-0.15863279163805588,0.01361104753185316
1539131051621307,0.9879911497673,-0.14654764629587236,0.015564202334630295
1539131051637287,0.98115510795758,-0.14203097581445023,0.01886015106431671
1539131051653267,0.98286411841001,-0.14483863584344236,0.023132677195391693
1539131051669248,0.9842069123369193,-0.15106431677729448,0.027649347676813818
1539131051685228,0.9824979018844893,-0.1526512550545509,0.028259708552681673
1539131051701208,0.97261005569543,-0.15484855420767518,0.027283131151293105
1539131051717188,0.9738307774471657,-0.15887693598840302,0.025574120698863112
1539131051733169,0.9788357366292821,-0.16217288471808944,0.025696192874036683
1539131051749149,0.9810330357824064,-0.16534676127260228,0.027283131151293105
1539131051765129,0.9754177157244222,-0.17010757610437155,0.027527275501640247
1539131051781109,0.9688258182650493,-0.17291523613336368,0.025574120698863112
1539131051797090,0.9606469825284201,-0.1707179369802394,0.03070115205615309
1539131051813070,0.9616235599298086,-0.1686427100022887,0.030945296406500233
1539131051829050,0.9730983443961243,-0.16961928740367727,0.028870069428549527
1539131051845030,0.9805447470817121,-0.17145037003128083,0.028870069428549527
1539131051861011,0.9816433966582743,-0.1727931639581901,0.028259708552681673
1539131051876991,0.9783474479285879,-0.17206073090714868,0.030212863355458808
1539131051892971,0.9792019531548029,-0.1715724422064544,0.02935835812924381
1539131051908951,0.98457312886244,-0.16791027695124727,0.031311512932020946
1539131051924932,0.9877470054169528,-0.16412603952086657,0.031189440756847375
1539131051940918,0.9813992523079271,-0.15790035858701446,0.0319218738078888
1539131051956898,0.9781033035782407,-0.1564354924849316,0.033630884260318794
1539131051972878,0.9798123140306707,-0.15252918287937733,0.037781338216220206
1539131051988858,0.9748073548485543,-0.1471580071717402,0.03729304951552592
1539131052004839,0.9770046540016786,-0.1526512550545509,0.03265430685893023
1539131052020819,0.9772487983520257,-0.16290531776913086,0.0319218738078888
1539131052036799,0.9790798809796293,-0.17047379262989226,0.032410162508583085
1539131052052779,0.9745632104982072,-0.1694972152285037,0.032532234683756656
1539131052068760,0.9771267261768521,-0.17132829785610726,0.02642862592507811
1539131052084740,0.9849393453879607,-0.17584496833752938,0.01861600671396957
1539131052100720,0.9976348516060121,-0.18280308232242293,0.01495384145876244
1539131052116700,1.0012970168612192,-0.18353551537346435,0.016784924086366004
1539131052132681,1.002517738612955,-0.18146028839551365,0.019836728465705278
1539131052148661,1.0005645838101778,-0.17022964827954512,0.019470511940184565
1539131052164641,1.0021515220874342,-0.15875486381322945,0.015930418860151008
1539131052180621,0.9983672846570535,-0.14813458457312878,0.013977264057373873
1539131052196601,0.9944609750514992,-0.14190890363927666,0.019104295414663852
1539131052212582,0.9922636758983749,-0.13910124361028453,0.021789883268482413
1539131052228562,0.98628213931487,-0.1366598001068131,0.023498893720912406
1539131052244542,0.9818875410086214,-0.1404440375371938,0.02801556420233453
1539131052260498,0.980300602731365,-0.14373998626688023,0.028137636377508102
1539131052276478,0.9790798809796293,-0.14813458457312878,0.02923628595407024
1539131052292458,0.9759060044251164,-0.15155260547798877,0.02911421377889667
1539131052308438,0.9719996948195622,-0.1569237811856259,0.029602502479590953
1539131052324419,0.9712672617685207,-0.16327153429465158,0.031067368581673804
1539131052340399,0.9735866330968186,-0.1703517204547187,0.028503852903028815
1539131052356379,0.9766384374761579,-0.1741359578850994,0.025085831998168828
1539131052372359,0.9774929427023729,-0.17962920576791008,0.022278171969176697
1539131052388340,0.9787136644541086,-0.18219272144655507,0.02020294499122599
1539131052404320,0.9807888914320593,-0.18097199969481936,0.023376821545738835
1539131052420300,0.9807888914320593,-0.17633325703822367,0.023376821545738835
1539131052436280,0.9792019531548029,-0.1707179369802394,0.02020294499122599
1539131052452261,0.9789578088044557,-0.165712977798123,0.01617456321049815
1539131052468241,0.982009613183795,-0.16424811169604014,0.013488975356679589
1539131052484221,0.9822537575341421,-0.15790035858701446,0.015808346684977437
1539131052500201,0.9849393453879607,-0.1547264820325016,0.019714656290531707
1539131052516182,0.9839627679865721,-0.15423819333180733,0.023132677195391693
1539131052532162,0.9884794384679942,-0.15326161593041876,0.018249790188448856
1539131052548142,0.9909208819714657,-0.15204089417868305,0.01617456321049815
1539131052564122,0.98628213931487,-0.1502098115510795,0.01739528496223386
1539131052580108,0.987136644541085,-0.1505760280766002,0.016784924086366004
1539131052596089,0.98457312886244,-0.14776836804760807,0.018371862363622427
1539131052612069,0.9800564583810178,-0.14740215152208735,0.01617456321049815
1539131052628049,0.9711451895933472,-0.14825665674830235,0.017273212787060288
1539131052644029,0.9682154573891815,-0.14947737850003806,0.017273212787060288
1539131052660009,0.9699244678416115,-0.1535057602807659,0.018493934538795997
1539131052675990,0.9698023956664379,-0.15582513160906375,0.020569161516746703
1539131052691970,0.9723659113450829,-0.16339360646982515,0.017639429312581
1539131052707950,0.9748073548485543,-0.16815442130159441,0.019348439765010994
1539131052723930,0.9771267261768521,-0.17181658655680154,0.021057450217440987
1539131052739911,0.9766384374761579,-0.1707179369802394,0.01898222323949028
1539131052755891,0.9779812314030671,-0.1715724422064544,0.01483176928358887
1539131052771871,0.976882581826505,-0.1694972152285037,0.016540779736018862
1539131052787851,0.978591592278935,-0.16510261692225514,0.01898222323949028
1539131052803832,0.9824979018844893,-0.15973144121461802,0.017761501487754572
1539131052819812,0.9861600671396964,-0.1531395437552452,0.01873807888914314
1539131052835792,0.9878690775921264,-0.1467917906462195,0.020935378042267416
1539131052851772,0.9868925001907378,-0.1417868314641031,0.021667811093308842
1539131052867753,0.9944609750514992,-0.1400778210116731,0.024353398947127403
1539131052883733,1.001907377737087,-0.13995574883649953,0.02398718242160669
1539131052899719,1.0015411612115663,-0.13653772793163954,0.03033493553063238
1539131052915699,0.9972686350804914,-0.13434042877851526,0.028503852903028815
1539131052931679,0.9937285420004578,-0.1366598001068131,0.024353398947127403
1539131052947660,0.9907988097962921,-0.14142061493858238,0.01898222323949028
1539131052963640,0.9873807888914321,-0.1459372854200045,0.017151140611886717
1539131052979620,0.9821316853589686,-0.15033188372625306,0.017883573662928143
1539131052995600,0.975173571374075,-0.15362783245593947,0.017151140611886717
1539131053011581,0.9693141069657436,-0.15533684290836947,0.019226367589837423
1539131053027561,0.9680933852140079,-0.15790035858701446,0.01605249103532458
1539131053043541,0.970901045243,-0.15887693598840302,0.015320057984283153
1539131053059521,0.97602807660029,-0.16119630731670087,0.012878614480811734
1539131053075502,0.9779812314030671,-0.16473640039673443,0.013366903181506018
1539131053091482,0.9741969939726864,-0.16424811169604014,0.016662851911192433
1539131053107462,0.9733424887464714,-0.16388189517051943,0.018371862363622427
1539131053123442,0.97431906614786,-0.16546883344777585,0.015564202334630295
1539131053139423,0.9752956435492486,-0.16437018387121372,0.016906996261539575
1539131053155403,0.9779812314030671,-0.15973144121461802,0.015686274509803866
1539131053171383,0.9810330357824064,-0.1576562142366673,0.015930418860151008
1539131053187363,0.9833524071107043,-0.15399404898146019,0.014709697108415298
1539131053203343,0.9835965514610514,-0.1526512550545509,0.01361104753185316
1539131053219329,0.9921416037232014,-0.14813458457312878,0.01617456321049815
1539131053235310,0.9942168307011521,-0.13971160448615239,0.019836728465705278
1539131053251290,1.002761882963302,-0.13409628442816812,0.01898222323949028
1539131053267270,1.0069123369192035,-0.13311970702677955,0.016540779736018862
1539131053283250,1.0072785534447242,-0.14056610971236738,0.013488975356679589
1539131053299231,1.0037384603646906,-0.1362935835812924,0.017883573662928143
1539131053315211,0.9969024185549706,-0.13824673838406953,0.020813305867093845
1539131053331191,0.98628213931487,-0.13519493400473026,0.018249790188448856
1539131053347171,0.9795681696803236,-0.13727016098268097,0.016906996261539575
1539131053363152,0.97773708705272,-0.14373998626688023,0.010681315327687457
1539131053379132,0.9789578088044557,-0.1476462958724345,0.01373311970702673
1539131053395112,0.97944609750515,-0.1430075532158388,0.01751735713740743
1539131053411092,0.9757839322499429,-0.14532692454413665,0.018249790188448856
1539131053427073,0.9766384374761579,-0.15216296635385662,0.015197985809109582
1539131053443053,0.9772487983520257,-0.15387197680628661,0.01617456321049815
1539131053459033,0.9746852826733807,-0.15716792553597303,0.014343480582894585
1539131053475013,0.971755550469215,-0.163149462119478,0.014221408407721015
1539131053490994,0.9713893339436943,-0.16327153429465158,0.01617456321049815
1539131053506974,0.9694361791409172,-0.16095216296635373,0.015930418860151008
1539131053522954,0.9626001373311972,-0.1589990081635766,0.015442130159456724
1539131053538910,0.9607690547035936,-0.15570305943389018,0.017029068436713146
1539131053554890,0.9616235599298086,-0.14923323414969092,0.020447089341573133
1539131053570870,0.9665064469367515,-0.1392233157854581,0.02423132677195383
1539131053586850,0.9762722209506371,-0.1337300679026474,0.025696192874036683
1539131053602831,0.9875028610666057,-0.13446250095368883,0.025818265049210254
1539131053618811,0.9971465629053178,-0.1342183566033417,0.023743038071259548
1539131053634791,1.0058136873426413,-0.1350728618295567,0.027649347676813818
1539131053650771,1.0065461203936827,-0.128725108720531,0.028137636377508102
1539131053666751,1.0052033264667735,-0.1257953765163653,0.025696192874036683
1539131053682732,1.0014190890363928,-0.12433051041428245,0.02398718242160669
1539131053698712,0.9932402532997635,-0.12323186083772031,0.025940337224383825
1539131053714692,0.9812771801327536,-0.12762645914396886,0.02545204852368954
1539131053730672,0.985427634088655,-0.13238727397573813,0.021179522392614558
1539131053746653,0.9895780880445564,-0.129579613946746,0.01861600671396957
1539131053762633,0.9893339436942092,-0.1316548409246967,0.016784924086366004
1539131053778613,0.98628213931487,-0.13434042877851526,0.018493934538795997
1539131053794593,0.9918974593728542,-0.14142061493858238,0.019714656290531707
1539131053810574,0.990554665445945,-0.14276340886549166,0.02008087281605242
1539131053826554,0.987136644541085,-0.14105439841306167,0.02386511024643312
1539131053842534,0.9799343862058443,-0.1467917906462195,0.025940337224383825
1539131053858520,0.9815213244831007,-0.15277332722972448,0.023010605020218122
1539131053874500,0.9806668192568857,-0.15582513160906375,0.020447089341573133
1539131053890481,0.9763942931258107,-0.15204089417868305,0.020691233691920274
1539131053906461,0.9688258182650493,-0.1517967498283359,0.015197985809109582
1539131053922441,0.9619897764553293,-0.1526512550545509,0.012512397955291021
1539131053938421,0.9578393224994279,-0.1564354924849316,0.013488975356679589
1539131053954402,0.9605249103532465,-0.16034180209048587,0.00970473792629889
1539131053970382,0.9602807660028994,-0.15802243076218803,0.010681315327687457
1539131053986362,0.9655298695353629,-0.15667963683527875,0.006897077897306758
1539131054002342,0.9711451895933472,-0.15387197680628661,0.009948882276646032
1539131054018323,0.9788357366292821,-0.15069810025177377,0.014221408407721015
1539131054034303,0.9865262836652171,-0.14703593499656664,0.020447089341573133
1539131054050283,0.9949492637521935,-0.1412985427634088,0.023254749370565264
1539131054066263,1.0059357595178149,-0.13641565575646597,0.02532997634851597
1539131054082244,1.0161898222323948,-0.13226520180056456,0.02789349202716096
1539131054098224,1.0221713588158998,-0.127870603494316,0.02923628595407024
1539131054114204,1.023270008392462,-0.12774853131914243,0.037659266041046635
1539131054130184,1.019851987487602,-0.11871519035629818,0.03802548256656735
1539131054146165,1.0149691004806591,-0.1165178912031739,0.03729304951552592
1539131054162145,1.007034409094377,-0.11346608682383463,0.035095750362401645
1539131054178131,1.0005645838101778,-0.11749446860456247,0.03472953383688093
1539131054194111,0.9948271915770199,-0.12347600518806745,0.035095750362401645
1539131054210091,0.98970016021973,-0.12933546959639886,0.03326466773479808
1539131054226071,0.9910429541466392,-0.1371480888075074,0.031189440756847375
1539131054242052,0.9886015106431678,-0.14227512016479738,0.0289921416037231
1539131054258032,0.9840848401617457,-0.1493553063248645,0.02423132677195383
1539131054274012,0.978591592278935,-0.15448233768215447,0.021911955443655984
1539131054289992,0.97944609750515,-0.15716792553597303,0.018371862363622427
1539131054305973,0.9788357366292821,-0.1564354924849316,0.018493934538795997
1539131054321953,0.9752956435492486,-0.15301747158007162,0.01861600671396957
1539131054337933,0.9741969939726864,-0.1488670176241702,0.01617456321049815
1539131054353913,0.9678492408636608,-0.14325169756618594,0.016906996261539575
1539131054369894,0.9707789730678265,-0.14410620279240094,0.01483176928358887
1539131054385874,0.9810330357824064,-0.14349584191653308,0.014221408407721015
1539131054401854,0.9798123140306707,-0.13702601663233382,0.01995880064087885
1539131054417834,0.9767605096513314,-0.13519493400473026,0.02008087281605242
1539131054433815,0.9795681696803236,-0.13482871747920955,0.01629663538567172
1539131054449795,0.9772487983520257,-0.13104448004882885,0.019714656290531707
1539131054465775,0.9705348287174793,-0.12823682001983672,0.02252231631952384
1539131054481755,0.9719996948195622,-0.13348592355230027,0.019592584115358136
1539131054497711,0.9749294270237279,-0.13995574883649953,0.017761501487754572
1539131054513691,0.975173571374075,-0.13775844968337525,0.020691233691920274
1539131054529671,0.9781033035782407,-0.13995574883649953,0.02276646066987098
1539131054545652,0.9778591592278936,-0.13995574883649953,0.02154573891813527
1539131054561632,0.9839627679865721,-0.14227512016479738,0.020691233691920274
1539131054577612,0.9881132219424735,-0.14081025406271452,0.020691233691920274
1539131054593592,0.983718623636225,-0.13739223315785454,0.0214236667429617
1539131054609573,0.9790798809796293,-0.13556115053025097,0.024353398947127403
1539131054625553,0.9812771801327536,-0.13397421225299455,0.02655069810025168
1539131054641533,0.9849393453879607,-0.1299458304722667,0.025818265049210254
1539131054657513,0.9868925001907378,-0.1266498817425803,0.02264438849469741
1539131054673493,0.9860379949645228,-0.12518501564049744,0.023376821545738835
1539131054689474,0.983718623636225,-0.1249408712901503,0.023620965896085977
1539131054705454,0.9838406958113985,-0.1275043869687953,0.02276646066987098
1539131054721434,0.9910429541466392,-0.132143129625391,0.02655069810025168
1539131054737414,0.9959258411535821,-0.1325093461509117,0.027405203326466676
1539131054753395,0.9936064698252842,-0.13275349050125884,0.02655069810025168
1539131054769375,0.9904325932707714,-0.13311970702677955,0.025818265049210254
1539131054785355,0.9931181811245899,-0.13617151140611883,0.022034027618829555
1539131054801335,0.9967803463797971,-0.13824673838406953,0.019592584115358136
1539131054817321,0.9962920576791028,-0.1383688105592431,0.02264438849469741
1539131054833302,0.9918974593728542,-0.13727016098268097,0.02288853284504455
1539131054849282,0.9829861905851836,-0.13141069657434956,0.024719615472648115
1539131054865262,0.9817654688334478,-0.1325093461509117,0.019226367589837423
1539131054881242,0.9849393453879607,-0.13018997482261385,0.01886015106431671
1539131054897223,0.9838406958113985,-0.13018997482261385,0.02154573891813527
1539131054913203,0.9771267261768521,-0.13153276874952313,0.02410925459678026
1539131054929183,0.9754177157244222,-0.1366598001068131,0.0252079041733424
1539131054945163,0.9766384374761579,-0.13568322270542454,0.02423132677195383
1539131054961144,0.9761501487754636,-0.14032196536202024,0.02264438849469741
1539131054977124,0.9766384374761579,-0.14398413061722737,0.02398718242160669
1539131054993104,0.9778591592278936,-0.14703593499656664,0.024353398947127403
1539131055009084,0.9759060044251164,-0.14728007934691378,0.029602502479590953
1539131055025065,0.9729762722209507,-0.14068818188754095,0.03045700770580595
1539131055041045,0.9688258182650493,-0.13824673838406953,0.027527275501640247
1539131055057025,0.9694361791409172,-0.13739223315785454,0.02667277027542525
1539131055073005,0.9707789730678265,-0.14068818188754095,0.02667277027542525
1539131055088986,0.9782253757534143,-0.14435034714274808,0.029846646829938095
1539131055104966,0.9889677271686885,-0.14361791409170666,0.027283131151293105
1539131055120946,0.9917753871976807,-0.14032196536202024,0.02667277027542525
1539131055136932,0.9920195315480278,-0.1417868314641031,0.02423132677195383
1539131055152912,0.9981231403067063,-0.14190890363927666,0.019470511940184565
1539131055168892,0.9971465629053178,-0.1383688105592431,0.018127718013275285
1539131055184873,0.9959258411535821,-0.1366598001068131,0.02655069810025168
1539131055200853,0.9932402532997635,-0.1388570992599374,0.029724574654764524
1539131055216833,0.9901884489204242,-0.1283588921950103,0.024841687647821686
1539131055232813,0.9886015106431678,-0.12823682001983672,0.019592584115358136
1539131055248794,0.990554665445945,-0.130434119172961,0.021911955443655984
1539131055264774,0.9872587167162585,-0.13385214007782098,0.029846646829938095
1539131055280754,0.9822537575341421,-0.13299763485160598,0.030212863355458808
1539131055296734,0.9805447470817121,-0.13958953231097881,0.028747997253375956
1539131055312715,0.98286411841001,-0.14288548104066523,0.02679484245059882
1539131055328695,0.9798123140306707,-0.1409323262378881,0.031189440756847375
1539131055344675,0.9739528496223393,-0.14276340886549166,0.03204394598306237
1539131055360655,0.97261005569543,-0.14776836804760807,0.03167772945754166
1539131055376636,0.9799343862058443,-0.1531395437552452,0.029724574654764524
1539131055392616,0.9859159227893493,-0.15533684290836947,0.031067368581673804
1539131055408596,0.9887235828183414,-0.15826657511253517,0.03399710078583951
1539131055424576,0.9959258411535821,-0.15594720378423732,0.034851606012054503
1539131055440557,0.9951934081025406,-0.15216296635385662,0.033630884260318794
1539131055456482,0.9931181811245899,-0.14813458457312878,0.03167772945754166
1539131055472462,0.9943389028763256,-0.1485008010986495,0.02532997634851597
1539131055488442,0.9923857480735485,-0.14325169756618594,0.02642862592507811
1539131055504422,0.9938506141756314,-0.13849088273441668,0.028870069428549527
1539131055520403,0.9895780880445564,-0.13189898527504385,0.027161058976119534
1539131055536383,0.9906767376211185,-0.13141069657434956,0.027527275501640247
1539131055552363,0.9889677271686885,-0.13202105745021742,0.024597543297474544
1539131055568343,0.9911650263218128,-0.13470664530403598,0.021667811093308842
1539131055584324,0.9882352941176471,-0.13385214007782098,0.016906996261539575
1539131055600304,0.9965362020294499,-0.1471580071717402,0.009582665751125319
1539131055616284,0.97773708705272,-0.16009765774013873,0.010437170977340315
1539131055632264,0.9766384374761579,-0.1715724422064544,0.00579842832074462
1539131055648244,0.9727321278706036,-0.16632333867399085,0.013000686655985305
1539131055664225,0.9787136644541086,-0.1585107194628823,0.04083314259555948
1539131055680205,0.9695582513160907,-0.11602960250247962,0.062195773250934394
1539131055696185,0.9667505912870986,-0.07818722819867263,0.059632257572289404
1539131055712165,0.9583276112001222,-0.07940794995040834,0.046570534828717314
1539131055728146,0.9612573434042879,-0.13397421225299455,0.03985656519417091
1539131055744126,0.9530785076676587,-0.16168459601739515,0.031189440756847375
1539131055760106,0.9613794155794615,-0.17718776226443866,0.02130159456778813
1539131055776092,0.9629663538567179,-0.17059586480506583,0.02154573891813527
1539131055792072,0.9682154573891815,-0.17010757610437155,0.027283131151293105
1539131055808053,0.9722438391699093,-0.16180666819256873,0.02667277027542525
1539131055824033,0.9812771801327536,-0.1526512550545509,0.01483176928358887
1539131055840013,0.9868925001907378,-0.161440451667048,0.004943923094529623
1539131055855993,0.9926298924238957,-0.16253910124361015,-0.005065995269703194
1539131055871974,0.9909208819714657,-0.17218280308232226,6.103608758678547E-5
1539131055887954,0.9929961089494164,-0.16974135957885084,0.0016479743648432077
1539131055903934,1.0023956664377813,-0.16253910124361015,-0.001159685664148924
1539131055919914,1.0052033264667735,-0.14825665674830235,0.0018921187151903496
1539131055935895,0.9978789959563592,-0.1350728618295567,0.00836194399938961
1539131055951875,0.9937285420004578,-0.12799267566948958,0.016784924086366004
1539131055967855,0.9851834897383078,-0.12262149996185245,0.02386511024643312
1539131055983835,0.9839627679865721,-0.12884718089570457,0.023620965896085977
1539131055999816,0.9892118715190357,-0.13739223315785454,0.031189440756847375
1539131056015796,0.9918974593728542,-0.13580529488059812,0.030090791180285237
1539131056031776,0.9999542229343099,-0.1447165636682688,0.022278171969176697
1539131056047756,1.0031280994888228,-0.1564354924849316,0.017273212787060288
1539131056063737,1.0012970168612192,-0.16974135957885084,0.015808346684977437
1539131056079717,0.9939726863508049,-0.17462424658579367,0.01873807888914314
1539131056095703,0.9893339436942092,-0.17230487525749583,0.015686274509803866
1539131056111683,0.9790798809796293,-0.17938506141756294,0.01483176928358887
1539131056127663,0.9809109636072328,-0.18219272144655507,0.01629663538567172
1539131056143643,0.9789578088044557,-0.17291523613336368,0.01373311970702673
1539131056159624,0.9733424887464714,-0.1779201953154801,0.011779964904249596
1539131056175604,0.9719996948195622,-0.1837796597238115,0.007263294422827471
1539131056191584,0.9684596017395286,-0.17987335011825722,0.004699778744182481
1539131056207564,0.9685816739147022,-0.17889677271686866,0.002868696116578917
1539131056223545,0.9750514991989014,-0.17669947356374438,0.0039673456931410556
1539131056239525,0.9739528496223393,-0.17303730830853725,0.005676356145571049
1539131056255505,0.9750514991989014,-0.16937514305333012,0.0036011291676203427
1539131056271485,0.9728542000457772,-0.16876478217746227,0.003479056992446772
1539131056287466,0.9704127565423057,-0.15619134813458446,0.002868696116578917
1539131056303446,0.9718776226443886,-0.1698634317540244,0.00323491264209963
1539131056319426,0.9772487983520257,-0.1719386587319751,-0.001159685664148924
1539131056335406,0.9849393453879607,-0.17682154573891795,6.103608758678547E-5
1539131056351387,0.9821316853589686,-0.1753566796368351,0.0036011291676203427
1539131056367367,0.9833524071107043,-0.16913099870298298,0.0042114900434881974
1539131056383347,0.9827420462348364,-0.17010757610437155,7.934691386282111E-4
1539131056399327,0.98457312886244,-0.16681162737468513,0.001037613488975353
1539131056415313,0.98115510795758,-0.16717784390020585,0.003479056992446772
1539131056431294,0.9812771801327536,-0.16876478217746227,0.007873655298695326
1539131056447274,0.9838406958113985,-0.16876478217746227,0.0071412222476539
1539131056463254,0.9884794384679942,-0.16705577172503228,0.008972304875257464
1539131056479234,0.9937285420004578,-0.16168459601739515,0.012024109254596738
1539131056495215,0.9975127794308385,-0.16729991607537942,0.015075913633936011
1539131056511195,0.9950713359273671,-0.17608911268787653,0.023743038071259548
1539131056527175,0.9912870984969864,-0.1799954222934308,0.02789349202716096
1539131056543155,0.9884794384679942,-0.1745021744106201,0.031067368581673804
1539131056559136,0.9809109636072328,-0.16925307087815655,0.027161058976119534
1539131056575116,0.9851834897383078,-0.16705577172503228,0.017639429312581
1539131056591096,0.9894560158693828,-0.16632333867399085,0.010559243152513886
1539131056607076,0.9868925001907378,-0.16888685435263584,0.007385366598001042
1539131056623057,0.9835965514610514,-0.17438010223544653,0.002990768291752488
1539131056639037,0.9817654688334478,-0.1782864118410008,-0.001159685664148924
1539131056655017,0.9750514991989014,-0.17376974135957868,-0.003356984817273201
1539131056670997,0.9745632104982072,-0.17462424658579367,-0.005310139620050336
1539131056686977,0.9727321278706036,-0.1736476691844051,-0.004455634393835339
1539131056702958,0.9723659113450829,-0.17523460746166153,-0.004455634393835339
1539131056718938,0.970901045243,-0.1770656900892651,-0.0040894178683146265
1539131056734893,0.9704127565423057,-0.1791409170672158,-0.004455634393835339
1539131056750874,0.97431906614786,-0.1832913710231172,-0.005554283970397478
1539131056766854,0.9749294270237279,-0.18304722667277007,-0.003479056992446772
1539131056782834,0.9722438391699093,-0.18023956664377794,-0.0026245517662317752
1539131056798814,0.9678492408636608,-0.1803616388189515,0.001159685664148924
1539131056814795,0.9715114061188679,-0.17962920576791008,0.0017700465400167786
1539131056830775,0.9749294270237279,-0.17853055619134794,0.00457770656900891
1539131056846755,0.9733424887464714,-0.1774319066147858,0.002746623941405346
1539131056862735,0.9744411383230336,-0.1765774013885708,0.00579842832074462
1539131056878716,0.9759060044251164,-0.17669947356374438,0.006897077897306758
1539131056894696,0.9789578088044557,-0.17682154573891795,0.004821850919356052
1539131056910676,0.982009613183795,-0.17730983443961224,0.005065995269703194
1539131056926656,0.983718623636225,-0.1774319066147858,0.00457770656900891
1539131056942637,0.98286411841001,-0.17352559700923154,0.008850232700083893
1539131056958617,0.9832303349355307,-0.17145037003128083,0.003112840466926059
1539131056974597,0.9816433966582743,-0.16974135957885084,0.0022583352407110624
1539131056990577,0.985427634088655,-0.17169451438162797,6.103608758678547E-5
1539131057006558,0.9851834897383078,-0.16961928740367727,5.493247882810692E-4
1539131057022538,0.9792019531548029,-0.16546883344777585,0.0038452735179674846
1539131057038518,0.9754177157244222,-0.164003967345693,0.0042114900434881974
1539131057054504,0.9792019531548029,-0.16668955519951156,1.831082627603564E-4
1539131057070484,0.9813992523079271,-0.167421988250553,0.0017700465400167786
1539131057086465,0.9826199740596628,-0.17132829785610726,6.713969634546402E-4
1539131057102445,0.9817654688334478,-0.1736476691844051,0.0018921187151903496
1539131057118425,0.9799343862058443,-0.17560082398718224,0.0040894178683146265
1539131057134405,0.975173571374075,-0.17462424658579367,0.004943923094529623
1539131057150385,0.970901045243,-0.1745021744106201,0.003479056992446772
1539131057166366,0.9705348287174793,-0.1753566796368351,0.0037232013427939137
1539131057182346,0.9732204165712979,-0.1770656900892651,0.007385366598001042
1539131057198326,0.9773708705271993,-0.17608911268787653,0.008239871824216038
1539131057214306,0.9766384374761579,-0.17230487525749583,0.00848401617456318
1539131057230287,0.9784695201037614,-0.1749904631113144,0.008606088349736751
1539131057246267,0.980300602731365,-0.17694361791409152,0.008972304875257464
1539131057262247,0.9843289845120928,-0.17645532921339724,0.011779964904249596
1539131057278227,0.9810330357824064,-0.17267109178301654,0.013122758831158876
1539131057294208,0.9770046540016786,-0.1660791943236437,0.012756542305638163
1539131057310188,0.9762722209506371,-0.16437018387121372,0.014465552758068156
1539131057326168,0.9801785305561914,-0.16595712214847014,0.011779964904249596
1539131057342148,0.9826199740596628,-0.16937514305333012,0.008239871824216038
1539131057358129,0.9892118715190357,-0.1762111848630501,0.004333562218661768
1539131057374115,0.9942168307011521,-0.18194857709620793,-0.0020141908903639205
1539131057390095,0.9988555733577478,-0.18512245365072078,-0.00323491264209963
1539131057406075,0.9910429541466392,-0.18133821622034008,-0.0039673456931410556
1539131057422055,0.9805447470817121,-0.17486839093614082,-0.004699778744182481
1539131057438036,0.9757839322499429,-0.17169451438162797,-0.00457770656900891
1539131057454016,0.9746852826733807,-0.16852063782711513,-0.007263294422827471
1539131057469996,0.9724879835202564,-0.1677882047760737,-0.005554283970397478
1539131057485976,0.9732204165712979,-0.16595712214847014,-6.103608758678547E-5
1539131057501957,0.9762722209506371,-0.1652246890974287,0.002746623941405346
1539131057517937,0.97773708705272,-0.16852063782711513,0.0038452735179674846
1539131057533917,0.9798123140306707,-0.17340352483405796,0.00323491264209963
1539131057549897,0.9772487983520257,-0.17596704051270295,0.007263294422827471
1539131057565878,0.9771267261768521,-0.17853055619134794,0.0109254596780346
1539131057581858,0.9766384374761579,-0.1791409170672158,0.009460593575951748
1539131057597838,0.9730983443961243,-0.18146028839551365,0.007873655298695326
1539131057613818,0.9673609521629665,-0.1846341649500265,0.0060425726710917615
1539131057629799,0.9678492408636608,-0.1906157015335319,0.00579842832074462
1539131057645779,0.9712672617685207,-0.18780804150453978,0.008239871824216038
1539131057661759,0.9722438391699093,-0.17962920576791008,0.00970473792629889
1539131057677739,0.9710231174181736,-0.17169451438162797,0.006286717021438903
1539131057693695,0.96919203479057,-0.1669336995498587,0.0061646448462653325
1539131057709675,0.970046540016785,-0.16705577172503228,0.011413748378728883
1539131057725655,0.9757839322499429,-0.1669336995498587,0.011291676203555312
1539131057741635,0.9815213244831007,-0.16327153429465158,0.017273212787060288
1539131057757616,0.98115510795758,-0.15960936903944445,0.01861600671396957
1539131057773596,0.9832303349355307,-0.16290531776913086,0.016540779736018862
1539131057789576,0.9954375524528878,-0.17169451438162797,0.014099336232547444
1539131057805556,1.0047150377660792,-0.17169451438162797,0.014221408407721015
1539131057821537,1.0045929655909056,-0.1707179369802394,0.015564202334630295
1539131057837517,1.002761882963302,-0.1724269474326694,0.011413748378728883
1539131057853497,0.9976348516060121,-0.17376974135957868,0.006530861371786045
1539131057869477,0.9912870984969864,-0.1757228961623558,0.0017700465400167786
1539131057885458,0.983718623636225,-0.17315938048371082,0.002868696116578917
1539131057901438,0.9774929427023729,-0.17059586480506583,4.272526131074983E-4
1539131057917418,0.978591592278935,-0.17181658655680154,-0.0014038300144960658
1539131057933398,0.9795681696803236,-0.17267109178301654,-0.00457770656900891
1539131057949379,0.9754177157244222,-0.17206073090714868,5.493247882810692E-4
1539131057965359,0.971755550469215,-0.1770656900892651,-0.002868696116578917
1539131057981339,0.9695582513160907,-0.17962920576791008,-0.0020141908903639205
1539131057997319,0.9687037460898758,-0.17938506141756294,0.0015259021896696368
1539131058013305,0.9669947356374458,-0.1782864118410008,0.0037232013427939137
1539131058029286,0.9624780651560236,-0.1765774013885708,0.004333562218661768
1539131058045266,0.9612573434042879,-0.17865262836652152,0.0038452735179674846
1539131058061246,0.9608911268787672,-0.18646524757763006,-1.831082627603564E-4
1539131058077226,0.9627222095063708,-0.19244678416113548,7.934691386282111E-4
1539131058093207,0.9652857251850158,-0.19671931029221046,0.003356984817273201
1539131058109187,0.9733424887464714,-0.19598687724116903,0.007385366598001042
1539131058125167,0.973464560921645,-0.1965972381170369,0.004333562218661768
1539131058141147,0.9749294270237279,-0.19537651636530118,-0.0025024795910582043
1539131058157127,0.9833524071107043,-0.19183642328526762,-0.006775005722133187
1539131058173108,0.9899443045700771,-0.1841458762493322,-9.15541313801782E-4
1539131058189088,0.9892118715190357,-0.17767605096513295,0.0020141908903639205
1539131058205068,0.9928740367742428,-0.16974135957885084,0.003479056992446772
1539131058221048,0.9915312428473335,-0.15973144121461802,6.713969634546402E-4
1539131058237029,0.9875028610666057,-0.15680170901045232,-0.0071412222476539
1539131058253009,0.9881132219424735,-0.1555809872587166,5.493247882810692E-4
1539131058268989,0.9831082627603571,-0.1547264820325016,0.007873655298695326
1539131058284969,0.9778591592278936,-0.16205081254291587,0.009582665751125319
1539131058300950,0.9816433966582743,-0.17059586480506583,0.00579842832074462
1539131058316930,0.9877470054169528,-0.17804226749065366,0.004333562218661768
1539131058332916,0.985427634088655,-0.18402380407415864,0.005188067444876765
