Timestamp (microseconds),Gyro X (°/s),Gyro Y (°/s),Gyro Z (°/s)
1539131033722839,-3.3875028610666504,11.383230334935433,-2.227817196917613
1539131033738835,-1.739528496223329,10.101472495613052,-4.486152437628789
1539131033754831,0.5188067444876197,8.45349813076973,-7.11070420386045
1539131033770827,2.655069810025225,6.622415503166167,-9.85732814526591
1539131033786823,3.570611123826893,4.974441138323073,-12.4208438239109
1539131033802819,3.0823224231326094,3.7537193865873633,-14.98435950255589
1539131033818815,2.532997634851654,2.5940337224383256,-17.24269474326684
1539131033834811,1.6174563210497581,1.1291676203554744,-18.158236057068734
1539131033850807,-0.03051804379333589,-0.213626306553806,-17.79201953154802
1539131033866803,-2.7161058976118966,-0.7019150072480898,-16.571297779812312
1539131033882799,-5.096513313496644,-0.6408789196611906,-14.557106889448278
1539131033898795,-7.11070420386045,-0.7019150072480898,-11.261158159761862
1539131033914791,-8.45349813076973,-0.8850232700083325,-7.537956816968062
1539131033930787,-8.33142595559616,-1.5564202334630863,-4.119935912108076
1539131033946783,-6.500343327992596,-3.570611123826893,-0.33569848172737693
1539131033962779,-2.7161058976118966,-7.232776379034021,3.814755474174035
1539131033978775,2.7161058976118966,-11.627374685282575,7.4158846417944915
1539131033994771,8.819714656290444,-15.472648203250174,9.369039444571627
1539131034010767,14.068818188753994,-17.79201953154802,9.613183794918768
1539131034026763,17.36476691844041,-18.280308232242305,8.575570305943302
1539131034042755,17.42580300602731,-16.388189517051842,6.805523765926637
1539131034058751,13.824673838406852,-12.787060349431613,4.180971999694748
1539131034074747,7.598992904554734,-7.782101167315204,1.1902037079423735
1539131034090743,1.1902037079423735,-1.6174563210497581,-1.9226367589837992
1539131034106739,-3.3264667734797513,4.791332875562603,-4.974441138323073
1539131034122735,-5.2185854886702145,10.650797283894008,-7.11070420386045
1539131034138731,-5.3406576638437855,15.716792553597315,-8.33142595559616
1539131034154727,-4.119935912108076,18.95170519569683,-8.209353780422589
1539131034170723,-2.227817196917613,19.317921721217544,-6.805523765926637
1539131034186719,0.5798428320745188,16.815442130159454,-3.997863736934505
1539131034202715,3.1433585107195086,12.4208438239109,-0.33569848172737693
1539131034218711,3.997863736934505,8.087281605249018,3.0212863355459376
1539131034234707,2.410925459678083,5.2185854886702145,4.669260700389032
1539131034250702,-0.03051804379333589,3.4485389486533222,5.157549401083315
1539131034266698,-1.983672846570471,2.04470893415737,5.157549401083315
1539131034282694,-3.2043945983061803,1.3733119707026162,4.852368963149502
1539131034298690,-3.2043945983061803,1.1291676203554744,4.242008087281647
1539131034314686,-2.166781109330941,-0.09155413138023505,4.486152437628789
1539131034330682,-0.5798428320745188,-2.8992141603723667,5.462729839017356
1539131034346678,0.7019150072480898,-6.134126802471883,6.073090714885211
1539131034362579,1.3733119707026162,-8.575570305943302,6.073090714885211
1539131034378574,1.9226367589837992,-9.430075532158298,5.096513313496644
1539131034394570,2.7771419851987957,-8.941786831464015,2.532997634851654
1539131034410565,3.6316472114137923,-6.195162890058782,-1.9226367589837992
1539131034426561,7.2938124666209205,-1.4953841458761872,-8.148317692835917
1539131034442556,14.251926451514464,3.3264667734797513,-14.740215152208748
1539131034458552,20.294499122606112,6.561379415579495,-18.463416495002548
1539131034474547,19.9893186846723,8.880750743877343,-19.317921721217544
1539131034490543,13.519493400473038,11.20012207217519,-18.463416495002548
1539131034506538,4.669260700389032,12.726024261844714,-15.960936903944457
1539131034522534,-1.3733119707026162,12.664988174258042,-12.481879911497572
1539131034538529,-1.739528496223329,10.284580758373295,-8.575570305943302
1539131034554525,2.8381780727854675,6.317235065232353,-5.279621576256886
1539131034570521,8.209353780422589,2.410925459678083,-2.8992141603723667
1539131034586516,11.871519035629717,0.03051804379333589,-1.8616006713969
1539131034602512,12.664988174258042,-0.5188067444876197,-1.9226367589837992
1539131034618507,11.07804989700162,-0.03051804379333589,-2.3498893720911838
1539131034634503,8.392462043183059,0.9460593575952316,-2.8381780727854675
1539131034650498,6.561379415579495,2.04470893415737,-3.1433585107195086
1539131034666494,5.157549401083315,3.570611123826893,-3.997863736934505
1539131034682220,3.3875028610666504,5.523765926604028,-4.669260700389032
1539131034698215,1.9226367589837992,6.622415503166167,-4.119935912108076
1539131034714209,2.227817196917613,5.95101853971164,-2.3498893720911838
1539131034730204,3.6316472114137923,3.4485389486533222,0.2746623941404778
1539131034746198,4.9134050507361735,0.5188067444876197,2.8381780727854675
1539131034762193,5.523765926604028,-1.4953841458761872,4.60822461280236
1539131034778187,5.3406576638437855,-2.410925459678083,5.279621576256886
1539131034794182,4.486152437628789,-2.288853284504512,4.730296787975931
1539131034810176,3.570611123826893,-1.5564202334630863,3.4485389486533222
1539131034826171,2.655069810025225,-0.6408789196611906,1.9226367589837992
1539131034842166,1.6174563210497581,0.213626306553806,0.5798428320745188
1539131034858160,0.15259021896690683,0.8850232700083325,-0.3967345693140487
1539131034874155,-1.3122758831159445,1.3122758831159445,-0.9460593575952316
1539131034890149,-1.983672846570471,1.3122758831159445,-1.2512397955290453
1539131034906144,-1.3122758831159445,0.15259021896690683,-0.7019150072480898
1539131034922138,-0.03051804379333589,-1.6784924086366573,0.33569848172737693
1539131034938133,1.6174563210497581,-3.3875028610666504,1.0070954451819034
1539131034954127,2.9602502479590385,-4.974441138323073,1.6174563210497581
1539131034970122,3.4485389486533222,-6.073090714885211,2.105745021744042
1539131034986117,3.1433585107195086,-6.317235065232353,2.7771419851987957
1539131035001831,2.288853284504512,-5.76791027695117,2.8992141603723667
1539131035017824,1.2512397955290453,-4.791332875562603,2.9602502479590385
1539131035033818,0.9460593575952316,-4.364080262455218,3.6316472114137923
1539131035049811,1.1291676203554744,-4.791332875562603,5.157549401083315
1539131035065805,1.8616006713969,-5.95101853971164,7.049668116273779
1539131035081799,3.0823224231326094,-7.476920729381163,8.758678568703772
1539131035097792,4.058899824521177,-8.51453421835663,9.979400320439481
1539131035113786,4.242008087281647,-8.45349813076973,10.345616845960194
1539131035129779,3.2043945983061803,-7.17174029144735,9.67421988250544
1539131035145773,1.1291676203554744,-4.730296787975931,8.270389868009488
1539131035161767,0.2746623941404778,-2.532997634851654,6.317235065232353
1539131035177760,0.9460593575952316,-1.6174563210497581,4.547188525215461
1539131035193754,2.04470893415737,-1.4953841458761872,3.1433585107195086
1539131035209747,2.5940337224383256,-0.9460593575952316,1.6784924086366573
1539131035225741,2.288853284504512,-0.09155413138023505,0.5188067444876197
1539131035241735,1.983672846570471,0.33569848172737693,0.09155413138023505
1539131035257728,2.655069810025225,-0.213626306553806,-0.09155413138023505
1539131035273722,3.997863736934505,-1.6784924086366573,0.09155413138023505
1539131035289715,4.852368963149502,-3.0823224231326094,0.3967345693140487
1539131035305709,4.486152437628789,-3.0212863355459376,0.33569848172737693
1539131035321441,3.4485389486533222,-1.739528496223329,-0.2746623941404778
1539131035337434,2.7161058976118966,0.213626306553806,-1.1291676203554744
1539131035353427,2.7161058976118966,2.04470893415737,-1.8616006713969
1539131035369419,3.1433585107195086,3.0823224231326094,-2.166781109330941
1539131035385412,3.5095750362402214,3.2043945983061803,-2.3498893720911838
1539131035401404,4.058899824521177,2.532997634851654,-2.9602502479590385
1539131035417397,4.364080262455218,1.5564202334630863,-3.814755474174035
1539131035433390,3.997863736934505,1.0681315327688026,-4.669260700389032
1539131035449382,2.655069810025225,1.2512397955290453,-5.706874189364498
1539131035465375,0.7019150072480898,1.6784924086366573,-6.439307240405924
1539131035481368,-0.7629510948347615,1.4343480582895154,-6.317235065232353
1539131035497360,-1.2512397955290453,0.3967345693140487,-5.523765926604028
1539131035513353,-0.8850232700083325,-0.8850232700083325,-4.303044174868319
1539131035529346,-0.2746623941404778,-2.166781109330941,-2.7161058976118966
1539131035545338,0.15259021896690683,-3.3875028610666504,-0.7629510948347615
1539131035561331,0.213626306553806,-4.364080262455218,1.1902037079423735
1539131035577324,0.03051804379333589,-4.791332875562603,2.8381780727854675
1539131035593316,-0.09155413138023505,-4.669260700389032,3.814755474174035
1539131035609309,0.03051804379333589,-4.42511635004189,4.486152437628789
1539131035625301,-0.09155413138023505,-3.936827649347606,5.0354772259097444
1539131035641082,-0.6408789196611906,-3.1433585107195086,5.2185854886702145
1539131035657074,-1.3122758831159445,-2.04470893415737,5.096513313496644
1539131035673066,-1.5564202334630863,-1.2512397955290453,4.669260700389032
1539131035689057,-1.2512397955290453,-1.0070954451819034,4.303044174868319
1539131035705049,-0.6408789196611906,-1.1902037079423735,3.936827649347606
1539131035721041,-0.45777065690094787,-1.3122758831159445,3.875791561760934
1539131035737033,-0.8850232700083325,-1.0070954451819034,4.180971999694748
1539131035753024,-1.4953841458761872,-0.15259021896690683,4.180971999694748
1539131035769016,-1.3733119707026162,0.6408789196611906,3.814755474174035
1539131035785008,-0.33569848172737693,0.45777065690094787,3.692683299000464
1539131035800999,1.4953841458761872,-0.8850232700083325,3.814755474174035
1539131035816991,3.0823224231326094,-2.4719615472647547,3.570611123826893
1539131035832983,3.4485389486533222,-3.3264667734797513,3.0212863355459376
1539131035848974,2.655069810025225,-3.0212863355459376,1.983672846570471
1539131035864966,1.6784924086366573,-2.04470893415737,0.6408789196611906
1539131035880958,0.8850232700083325,-0.8239871824216607,-0.8239871824216607
1539131035896949,0.5188067444876197,0.45777065690094787,-2.105745021744042
1539131035912941,0.45777065690094787,1.6174563210497581,-2.8381780727854675
1539131035928933,0.7019150072480898,2.532997634851654,-2.8992141603723667
1539131035944924,0.45777065690094787,3.2043945983061803,-2.7771419851987957
1539131035960693,-0.09155413138023505,3.3875028610666504,-2.410925459678083
1539131035976684,-0.6408789196611906,2.8992141603723667,-1.6174563210497581
1539131035992674,-0.8850232700083325,1.9226367589837992,-0.5188067444876197
1539131036008665,-0.7629510948347615,0.8239871824216607,0.5188067444876197
1539131036024656,-0.9460593575952316,-0.15259021896690683,1.3733119707026162
1539131036040647,-1.3733119707026162,-0.7629510948347615,1.9226367589837992
1539131036056637,-1.8616006713969,-1.0681315327688026,2.288853284504512
1539131036072628,-2.04470893415737,-1.3733119707026162,2.7161058976118966
1539131036088619,-1.9226367589837992,-1.6784924086366573,3.0823224231326094
1539131036104610,-1.983672846570471,-1.9226367589837992,3.2654306858930795
1539131036120600,-2.4719615472647547,-1.983672846570471,3.3875028610666504
1539131036136591,-3.0212863355459376,-2.04470893415737,3.875791561760934
1539131036152582,-3.0823224231326094,-2.3498893720911838,4.547188525215461
1539131036168573,-2.7161058976118966,-2.7771419851987957,4.852368963149502
1539131036184563,-2.04470893415737,-3.1433585107195086,4.730296787975931
1539131036200554,-1.3122758831159445,-3.4485389486533222,4.364080262455218
1539131036216545,-0.5188067444876197,-3.692683299000464,4.242008087281647
1539131036232535,0.03051804379333589,-3.6316472114137923,3.936827649347606
1539131036248526,0.09155413138023505,-2.7161058976118966,2.9602502479590385
1539131036264517,-0.7019150072480898,-0.7019150072480898,1.6174563210497581
1539131036280334,-1.5564202334630863,2.105745021744042,-0.213626306553806
1539131036296324,-1.6174563210497581,4.42511635004189,-1.739528496223329
1539131036312314,-0.5188067444876197,5.3406576638437855,-2.288853284504512
1539131036328303,0.5188067444876197,5.279621576256886,-1.9226367589837992
1539131036344293,0.5188067444876197,5.157549401083315,-0.8850232700083325
1539131036360283,-0.213626306553806,5.3406576638437855,0.2746623941404778
1539131036376273,-0.6408789196611906,5.401693751430457,1.1291676203554744
1539131036392263,-0.45777065690094787,4.791332875562603,1.983672846570471
1539131036408252,0.213626306553806,3.0823224231326094,3.0212863355459376
1539131036424242,0.7019150072480898,0.5188067444876197,4.486152437628789
1539131036440232,0.9460593575952316,-1.8616006713969,5.401693751430457
1539131036456222,0.7019150072480898,-3.2654306858930795,5.462729839017356
1539131036472211,0.33569848172737693,-3.997863736934505,4.669260700389032
1539131036488201,0.15259021896690683,-4.303044174868319,3.570611123826893
1539131036504191,0.15259021896690683,-4.791332875562603,2.5940337224383256
1539131036520181,0.213626306553806,-5.3406576638437855,1.6784924086366573
1539131036536171,0.33569848172737693,-5.584802014190927,0.7629510948347615
1539131036552160,0.5798428320745188,-5.2185854886702145,-0.2746623941404778
1539131036568150,0.6408789196611906,-3.997863736934505,-1.3733119707026162
1539131036584140,0.3967345693140487,-2.3498893720911838,-2.3498893720911838
1539131036599914,-0.2746623941404778,-0.33569848172737693,-3.2654306858930795
1539131036615903,-1.0681315327688026,1.5564202334630863,-3.692683299000464
1539131036631893,-1.6174563210497581,2.8992141603723667,-3.6316472114137923
1539131036647882,-1.8005645838102282,3.1433585107195086,-3.3264667734797513
1539131036663871,-2.166781109330941,2.5940337224383256,-2.5940337224383256
1539131036679861,-2.9602502479590385,1.8616006713969,-1.6784924086366573
1539131036695850,-4.058899824521177,1.5564202334630863,-1.1902037079423735
1539131036711839,-4.669260700389032,1.6784924086366573,-1.0681315327688026
1539131036727829,-3.875791561760934,1.0681315327688026,-0.8239871824216607
1539131036743818,-2.04470893415737,-1.0070954451819034,0.09155413138023505
1539131036759807,-0.09155413138023505,-3.997863736934505,1.6174563210497581
1539131036775797,1.0070954451819034,-6.439307240405924,3.2043945983061803
1539131036791786,1.1291676203554744,-7.354848554207592,4.180971999694748
1539131036807775,0.7019150072480898,-6.561379415579495,4.364080262455218
1539131036823764,0.213626306553806,-4.547188525215461,3.936827649347606
1539131036839754,0.15259021896690683,-2.410925459678083,3.1433585107195086
1539131036855743,0.45777065690094787,-1.1902037079423735,2.655069810025225
1539131036871732,0.7019150072480898,-0.8239871824216607,2.655069810025225
1539131036887722,0.5798428320745188,-0.15259021896690683,2.166781109330941
1539131036903711,0.15259021896690683,1.4953841458761872,0.7019150072480898
1539131036919555,-0.2746623941404778,3.7537193865873633,-1.0681315327688026
1539131036935544,-0.33569848172737693,5.584802014190927,-2.166781109330941
1539131036951532,-0.5188067444876197,6.683451590753066,-2.3498893720911838
1539131036967520,-0.7629510948347615,6.9886320286868795,-1.9226367589837992
1539131036983509,-0.8850232700083325,6.744487678339738,-1.4953841458761872
1539131036999497,-0.5798428320745188,6.439307240405924,-1.3122758831159445
1539131037015485,0.09155413138023505,5.706874189364498,-1.6174563210497581
1539131037031474,0.6408789196611906,4.058899824521177,-1.4953841458761872
1539131037047462,0.5188067444876197,1.4953841458761872,-0.5188067444876197
1539131037063450,-0.09155413138023505,-1.1902037079423735,0.9460593575952316
1539131037079439,-0.5798428320745188,-3.6316472114137923,2.105745021744042
1539131037095427,-0.33569848172737693,-5.645838101777599,2.7161058976118966
1539131037111415,0.5798428320745188,-6.805523765926637,2.5940337224383256
1539131037127404,1.0681315327688026,-6.805523765926637,1.8005645838102282
1539131037143392,0.2746623941404778,-5.523765926604028,0.8850232700083325
1539131037159381,-1.3733119707026162,-3.692683299000464,-0.03051804379333589
1539131037175369,-2.5940337224383256,-2.04470893415737,-0.7629510948347615
1539131037191357,-2.5940337224383256,-1.4953841458761872,-0.9460593575952316
1539131037207346,-1.6174563210497581,-1.6174563210497581,-0.9460593575952316
1539131037223334,-0.8850232700083325,-1.5564202334630863,-1.1902037079423735
1539131037239166,-1.0070954451819034,-1.0070954451819034,-1.3122758831159445
1539131037255154,-1.6174563210497581,0.3967345693140487,-1.3733119707026162
1539131037271142,-1.8616006713969,1.4953841458761872,-1.6784924086366573
1539131037287130,-1.3122758831159445,1.6784924086366573,-1.6174563210497581
1539131037303117,-0.5798428320745188,1.0070954451819034,-1.1902037079423735
1539131037319105,-0.7019150072480898,0.7019150072480898,-0.6408789196611906
1539131037335093,-1.5564202334630863,1.8005645838102282,-0.8239871824216607
1539131037351081,-2.227817196917613,3.570611123826893,-1.3122758831159445
1539131037367069,-2.227817196917613,5.0354772259097444,-1.8616006713969
1539131037383057,-1.983672846570471,5.401693751430457,-1.6174563210497581
1539131037399045,-1.5564202334630863,4.364080262455218,-0.213626306553806
1539131037415032,-0.7629510948347615,2.105745021744042,1.983672846570471
1539131037431020,0.213626306553806,-0.5798428320745188,4.058899824521177
1539131037447008,1.1902037079423735,-2.410925459678083,5.279621576256886
1539131037462996,1.3733119707026162,-2.7771419851987957,5.706874189364498
1539131037478984,0.5798428320745188,-2.04470893415737,5.523765926604028
1539131037494972,-0.09155413138023505,-1.4343480582895154,5.279621576256886
1539131037510960,-0.03051804379333589,-1.6174563210497581,5.096513313496644
1539131037526948,0.5188067444876197,-2.532997634851654,4.791332875562603
1539131037542935,0.8850232700083325,-3.6316472114137923,4.242008087281647
1539131037558776,0.8239871824216607,-4.42511635004189,3.570611123826893
1539131037574764,0.2746623941404778,-4.547188525215461,2.7771419851987957
1539131037590751,-0.5798428320745188,-3.7537193865873633,1.2512397955290453
1539131037606739,-1.3122758831159445,-2.04470893415737,-1.0681315327688026
1539131037622726,-1.739528496223329,0.09155413138023505,-3.936827649347606
1539131037638713,-1.4343480582895154,1.6784924086366573,-6.317235065232353
1539131037654701,-0.6408789196611906,2.166781109330941,-7.476920729381163
1539131037670688,-0.09155413138023505,1.4343480582895154,-7.4158846417944915
1539131037686676,-0.15259021896690683,0.3967345693140487,-6.439307240405924
1539131037702663,-0.5798428320745188,-0.09155413138023505,-5.584802014190927
1539131037718650,-0.9460593575952316,0.3967345693140487,-5.096513313496644
1539131037734638,-1.1902037079423735,1.6784924086366573,-4.791332875562603
1539131037750625,-1.4953841458761872,3.0212863355459376,-4.242008087281647
1539131037766613,-1.6784924086366573,3.814755474174035,-3.1433585107195086
1539131037782600,-1.1902037079423735,3.1433585107195086,-1.0681315327688026
1539131037798587,0.03051804379333589,0.5188067444876197,2.166781109330941
1539131037814575,1.2512397955290453,-3.4485389486533222,5.889982452124741
1539131037830562,1.6784924086366573,-6.744487678339738,8.758678568703772
1539131037846550,0.9460593575952316,-8.026245517662346,10.162508583199724
1539131037862537,-0.33569848172737693,-7.049668116273779,9.430075532158298
1539131037878387,-1.3733119707026162,-3.997863736934505,6.744487678339738
1539131037894374,-2.288853284504512,-0.09155413138023505,3.3264667734797513
1539131037910361,-3.2654306858930795,3.4485389486533222,0.213626306553806
1539131037926348,-4.058899824521177,5.95101853971164,-1.8005645838102282
1539131037942335,-4.974441138323073,7.354848554207592,-2.8992141603723667
1539131037958322,-5.584802014190927,7.4158846417944915,-3.3875028610666504
1539131037974309,-5.645838101777599,6.256198977645454,-3.3264667734797513
1539131037990296,-5.584802014190927,4.547188525215461,-2.9602502479590385
1539131038006282,-5.76791027695117,3.1433585107195086,-2.655069810025225
1539131038022269,-6.195162890058782,2.655069810025225,-2.3498893720911838
1539131038038256,-6.134126802471883,3.5095750362402214,-2.3498893720911838
1539131038054243,-6.744487678339738,2.7771419851987957,-2.5940337224383256
1539131038070230,-7.354848554207592,1.6174563210497581,-1.4343480582895154
1539131038086217,-6.622415503166167,-0.45777065690094787,0.09155413138023505
1539131038102204,-6.561379415579495,-0.213626306553806,0.213626306553806
1539131038118191,-8.087281605249018,3.0823224231326094,-1.1902037079423735
1539131038134178,-8.941786831464015,7.598992904554734,-3.1433585107195086
1539131038150165,-6.683451590753066,10.955977721828049,-4.180971999694748
1539131038166152,-1.8616006713969,11.20012207217519,-3.5095750362402214
1539131038182139,2.9602502479590385,8.392462043183059,-0.7019150072480898
1539131038197998,5.828946364538069,3.997863736934505,3.997863736934505
1539131038213984,6.317235065232353,0.15259021896690683,9.002822919050914
1539131038229971,5.645838101777599,-2.3498893720911838,12.298771648737329
1539131038245957,5.706874189364498,-3.814755474174035,13.031204699778755
1539131038261943,6.8665598535133086,-5.462729839017356,12.603952086671143
1539131038277930,8.392462043183059,-6.805523765926637,11.566338597695903
1539131038293916,9.185931181811156,-7.049668116273779,9.979400320439481
1539131038309903,8.45349813076973,-5.706874189364498,7.782101167315204
1539131038325889,6.561379415579495,-3.1433585107195086,4.242008087281647
1539131038341876,4.42511635004189,0.15259021896690683,-0.5188067444876197
1539131038357862,2.227817196917613,3.997863736934505,-5.401693751430457
1539131038373849,1.1902037079423735,7.476920729381163,-10.223544670786623
1539131038389835,0.9460593575952316,10.650797283894008,-14.251926451514464
1539131038405821,0.6408789196611906,12.726024261844714,-16.2050812542916
1539131038421808,0.9460593575952316,12.4208438239109,-15.228503852903032
1539131038437794,1.6174563210497581,9.55214770733187,-12.054627298390187
1539131038453781,2.655069810025225,5.096513313496644,-7.660028992141633
1539131038469767,3.0212863355459376,0.5798428320745188,-2.7161058976118966
1539131038485754,2.288853284504512,-3.3875028610666504,2.227817196917613
1539131038501740,0.9460593575952316,-6.927595941100208,6.805523765926637
1539131038517608,-0.3967345693140487,-10.101472495613052,10.162508583199724
1539131038533594,-1.1291676203554744,-13.153276874952326,12.909132524605184
1539131038549579,-1.6174563210497581,-15.899900816357558,14.92332341496899
1539131038565565,-2.04470893415737,-17.36476691844041,15.289539940489703
1539131038581550,-2.410925459678083,-17.181658655680167,14.068818188753994
1539131038597536,-3.3264667734797513,-15.716792553597315,11.261158159761862
1539131038613521,-5.157549401083315,-13.031204699778755,7.660028992141633
1539131038629507,-6.500343327992596,-9.67421988250544,3.7537193865873633
1539131038645492,-6.500343327992596,-6.500343327992596,0.2746623941404778
1539131038661478,-6.073090714885211,-3.875791561760934,-2.3498893720911838
1539131038677463,-5.096513313496644,-1.3122758831159445,-4.669260700389032
1539131038693449,-3.997863736934505,1.1291676203554744,-6.622415503166167
1539131038709434,-3.2043945983061803,3.2654306858930795,-7.843137254901876
1539131038725420,-2.7771419851987957,5.096513313496644,-8.51453421835663
1539131038741405,-2.105745021744042,5.889982452124741,-8.209353780422589
1539131038757391,-1.1902037079423735,5.2185854886702145,-6.683451590753066
1539131038773376,-0.5188067444876197,3.2654306858930795,-4.486152437628789
1539131038789362,-0.6408789196611906,1.0681315327688026,-2.04470893415737
1539131038805347,-0.7629510948347615,-0.9460593575952316,-0.03051804379333589
1539131038821333,-0.2746623941404778,-2.655069810025225,1.3733119707026162
1539131038837219,1.5564202334630863,-4.730296787975931,2.288853284504512
1539131038853204,3.0212863355459376,-6.500343327992596,2.8381780727854675
1539131038869190,3.692683299000464,-7.843137254901876,2.9602502479590385
1539131038885175,3.2654306858930795,-8.209353780422589,2.7161058976118966
1539131038901161,2.655069810025225,-7.660028992141633,1.739528496223329
1539131038917146,2.105745021744042,-6.561379415579495,0.03051804379333589
1539131038933132,1.4953841458761872,-5.096513313496644,-1.8616006713969
1539131038949117,0.5798428320745188,-3.4485389486533222,-3.570611123826893
1539131038965103,-0.5798428320745188,-1.4953841458761872,-5.0354772259097444
1539131038981088,-1.4953841458761872,0.6408789196611906,-6.500343327992596
1539131038997074,-2.105745021744042,2.5940337224383256,-7.354848554207592
1539131039013059,-2.8992141603723667,4.119935912108076,-7.2938124666209205
1539131039029045,-4.119935912108076,4.974441138323073,-6.317235065232353
1539131039045030,-4.791332875562603,4.60822461280236,-4.486152437628789
1539131039061016,-4.303044174868319,3.0823224231326094,-1.8005645838102282
1539131039077001,-2.227817196917613,0.5798428320745188,1.0070954451819034
1539131039092987,-0.33569848172737693,-1.6784924086366573,3.5095750362402214
1539131039108972,0.5798428320745188,-2.7771419851987957,5.523765926604028
1539131039124958,0.09155413138023505,-3.0212863355459376,6.8665598535133086
1539131039140943,-0.5798428320745188,-3.875791561760934,8.45349813076973
1539131039156829,-0.5188067444876197,-5.401693751430457,9.85732814526591
1539131039172814,0.33569848172737693,-6.683451590753066,10.406652933546866
1539131039188799,0.9460593575952316,-6.8665598535133086,10.040436408026153
1539131039204784,1.0070954451819034,-5.889982452124741,8.819714656290444
1539131039220770,0.5188067444876197,-4.303044174868319,7.17174029144735
1539131039236755,0.45777065690094787,-3.0823224231326094,5.279621576256886
1539131039252740,0.5798428320745188,-2.7771419851987957,4.058899824521177
1539131039268725,0.45777065690094787,-2.4719615472647547,2.8992141603723667
1539131039284710,0.213626306553806,-1.4953841458761872,1.0070954451819034
1539131039300695,0.09155413138023505,-0.03051804379333589,-1.1902037079423735
1539131039316680,0.3967345693140487,1.1902037079423735,-3.1433585107195086
1539131039332665,0.7019150072480898,1.8005645838102282,-4.119935912108076
1539131039348650,0.45777065690094787,2.288853284504512,-4.364080262455218
1539131039364635,-0.5188067444876197,2.7771419851987957,-4.242008087281647
1539131039380620,-1.6174563210497581,3.3875028610666504,-3.936827649347606
1539131039396605,-1.8616006713969,3.2043945983061803,-3.570611123826893
1539131039412590,-1.0681315327688026,2.105745021744042,-2.8381780727854675
1539131039428575,-0.15259021896690683,0.7019150072480898,-1.5564202334630863
1539131039444560,-0.33569848172737693,-0.15259021896690683,-0.213626306553806
1539131039460545,-1.5564202334630863,-0.45777065690094787,0.9460593575952316
1539131039476440,-2.7161058976118966,-0.45777065690094787,1.6174563210497581
1539131039492425,-2.655069810025225,-0.6408789196611906,1.9226367589837992
1539131039508409,-2.105745021744042,-0.6408789196611906,2.166781109330941
1539131039524394,-1.4343480582895154,-0.5798428320745188,2.4719615472647547
1539131039540378,-1.6174563210497581,-0.9460593575952316,2.8992141603723667
1539131039556363,-2.227817196917613,-1.6174563210497581,3.2654306858930795
1539131039572347,-1.9226367589837992,-1.9226367589837992,2.8992141603723667
1539131039588332,-1.5564202334630863,-1.5564202334630863,2.227817196917613
1539131039604316,-1.0681315327688026,-1.3733119707026162,2.105745021744042
1539131039620301,-0.7019150072480898,-2.04470893415737,2.532997634851654
1539131039636285,-0.33569848172737693,-3.2043945983061803,3.0212863355459376
1539131039652270,-0.213626306553806,-3.6316472114137923,2.7771419851987957
1539131039668254,-0.2746623941404778,-2.532997634851654,2.3498893720911838
1539131039684239,-0.7629510948347615,-0.7019150072480898,2.288853284504512
1539131039700224,-1.1291676203554744,0.8239871824216607,2.166781109330941
1539131039716208,-1.0681315327688026,1.739528496223329,2.227817196917613
1539131039732193,-1.1902037079423735,3.2043945983061803,2.105745021744042
1539131039748177,-1.1902037079423735,5.584802014190927,1.8616006713969
1539131039764162,-1.0070954451819034,8.209353780422589,1.3122758831159445
1539131039780146,-0.7019150072480898,9.063859006637585,0.5798428320745188
1539131039796051,-0.8239871824216607,8.51453421835663,1.6174563210497581
1539131039812035,-2.227817196917613,6.256198977645454,4.669260700389032
1539131039828019,-2.3498893720911838,2.8381780727854675,7.2938124666209205
1539131039844003,-0.7629510948347615,-0.33569848172737693,8.392462043183059
1539131039859987,1.0681315327688026,-2.7161058976118966,8.33142595559616
1539131039875971,1.6174563210497581,-3.814755474174035,7.660028992141633
1539131039891955,1.3122758831159445,-4.303044174868319,6.683451590753066
1539131039907939,0.8850232700083325,-4.60822461280236,5.645838101777599
1539131039923923,0.09155413138023505,-4.9134050507361735,4.547188525215461
1539131039939907,-0.8850232700083325,-4.852368963149502,3.2654306858930795
1539131039955891,-0.8239871824216607,-4.242008087281647,1.0681315327688026
1539131039971875,0.5188067444876197,-3.0212863355459376,-1.6784924086366573
1539131039987859,1.6784924086366573,-1.8005645838102282,-3.936827649347606
1539131040003843,1.4343480582895154,-0.8850232700083325,-4.852368963149502
1539131040019827,0.03051804379333589,-0.5798428320745188,-4.486152437628789
1539131040035812,-1.6784924086366573,-0.2746623941404778,-3.814755474174035
1539131040051796,-2.3498893720911838,0.213626306553806,-3.7537193865873633
1539131040067780,-2.227817196917613,0.7629510948347615,-3.936827649347606
1539131040083764,-1.0070954451819034,-0.15259021896690683,-3.692683299000464
1539131040099748,0.09155413138023505,-1.5564202334630863,-2.410925459678083
1539131040115661,1.4953841458761872,-2.655069810025225,-1.0681315327688026
1539131040131645,1.2512397955290453,-2.410925459678083,-0.7019150072480898
1539131040147629,0.2746623941404778,-1.4343480582895154,-0.7019150072480898
1539131040163613,-0.15259021896690683,-0.7019150072480898,-0.5798428320745188
1539131040179597,0.09155413138023505,-0.7019150072480898,-0.5188067444876197
1539131040195582,0.03051804379333589,-0.7629510948347615,-0.3967345693140487
1539131040211566,-0.5798428320745188,-0.15259021896690683,-0.8239871824216607
1539131040227550,-1.3122758831159445,1.3733119707026162,-1.6784924086366573
1539131040243534,-1.4343480582895154,3.0212863355459376,-2.5940337224383256
1539131040259518,-1.4953841458761872,3.997863736934505,-3.0212863355459376
1539131040275502,-1.6784924086366573,4.180971999694748,-2.532997634851654
1539131040291486,-2.105745021744042,3.7537193865873633,-1.3122758831159445
1539131040307470,-2.532997634851654,3.1433585107195086,0.09155413138023505
1539131040323454,-2.3498893720911838,1.983672846570471,1.3122758831159445
1539131040339438,-1.4343480582895154,0.33569848172737693,2.7161058976118966
1539131040355422,-0.45777065690094787,-1.2512397955290453,4.058899824521177
1539131040371406,-0.09155413138023505,-2.227817196917613,5.2185854886702145
1539131040387390,-0.3967345693140487,-2.7161058976118966,6.073090714885211
1539131040403374,-0.9460593575952316,-2.8992141603723667,6.317235065232353
1539131040419358,-0.8239871824216607,-2.9602502479590385,5.889982452124741
1539131040435241,-0.213626306553806,-2.8381780727854675,5.0354772259097444
1539131040451225,0.8850232700083325,-2.9602502479590385,4.303044174868319
1539131040467208,1.6174563210497581,-3.4485389486533222,4.119935912108076
1539131040483192,1.8616006713969,-3.7537193865873633,3.7537193865873633
1539131040499176,1.8005645838102282,-3.4485389486533222,2.8381780727854675
1539131040515159,1.5564202334630863,-2.4719615472647547,1.3733119707026162
1539131040531143,1.4343480582895154,-1.1902037079423735,-0.45777065690094787
1539131040547126,1.1291676203554744,-0.09155413138023505,-2.410925459678083
1539131040563110,0.7629510948347615,0.6408789196611906,-4.42511635004189
1539131040579094,0.33569848172737693,1.2512397955290453,-6.195162890058782
1539131040595077,0.33569848172737693,1.739528496223329,-7.660028992141633
1539131040611061,0.7629510948347615,1.8005645838102282,-8.575570305943302
1539131040627044,1.2512397955290453,1.3733119707026162,-8.392462043183059
1539131040643028,1.0070954451819034,0.8239871824216607,-7.4158846417944915
1539131040659011,0.09155413138023505,0.9460593575952316,-6.561379415579495
1539131040674995,-0.5798428320745188,1.6784924086366573,-6.134126802471883
1539131040690979,-0.3967345693140487,2.288853284504512,-5.889982452124741
1539131040706962,0.3967345693140487,1.5564202334630863,-4.852368963149502
1539131040722946,0.8850232700083325,-0.45777065690094787,-2.4719615472647547
1539131040738929,0.7019150072480898,-2.4719615472647547,0.09155413138023505
1539131040754821,0.213626306553806,-3.2654306858930795,1.6784924086366573
1539131040770805,-0.213626306553806,-3.2654306858930795,2.532997634851654
1539131040786788,-0.09155413138023505,-3.1433585107195086,3.2043945983061803
1539131040802771,0.213626306553806,-3.1433585107195086,3.814755474174035
1539131040818754,0.15259021896690683,-2.9602502479590385,4.180971999694748
1539131040834737,-0.15259021896690683,-2.5940337224383256,4.119935912108076
1539131040850720,-0.2746623941404778,-2.04470893415737,3.692683299000464
1539131040866703,0.213626306553806,-1.5564202334630863,3.2043945983061803
1539131040882686,0.5798428320745188,-1.1902037079423735,3.0823224231326094
1539131040898669,0.45777065690094787,-0.45777065690094787,3.2043945983061803
1539131040914652,0.15259021896690683,0.3967345693140487,3.2654306858930795
1539131040930636,0.09155413138023505,1.1291676203554744,3.0212863355459376
1539131040946619,0.7629510948347615,1.2512397955290453,2.7161058976118966
1539131040962602,1.6784924086366573,0.8850232700083325,2.3498893720911838
1539131040978585,1.8616006713969,0.7019150072480898,2.166781109330941
1539131040994568,1.4343480582895154,1.0681315327688026,1.6784924086366573
1539131041010551,0.8850232700083325,1.4343480582895154,1.3733119707026162
1539131041026534,1.0070954451819034,0.8850232700083325,1.3733119707026162
1539131041042517,2.288853284504512,-0.7629510948347615,1.5564202334630863
1539131041058500,3.997863736934505,-3.1433585107195086,2.04470893415737
1539131041074432,4.974441138323073,-5.462729839017356,2.7771419851987957
1539131041090415,4.852368963149502,-6.927595941100208,2.8992141603723667
1539131041106398,4.180971999694748,-7.11070420386045,1.9226367589837992
1539131041122381,3.3264667734797513,-5.828946364538069,-0.09155413138023505
1539131041138364,2.288853284504512,-2.8992141603723667,-3.0212863355459376
1539131041154348,1.3733119707026162,0.8239871824216607,-6.317235065232353
1539131041170331,1.0681315327688026,3.7537193865873633,-8.697642481116873
1539131041186314,1.4343480582895154,5.096513313496644,-9.491111619745197
1539131041202297,1.8005645838102282,4.730296787975931,-8.758678568703772
1539131041218280,1.6174563210497581,3.5095750362402214,-7.049668116273779
1539131041234263,1.0681315327688026,2.5940337224383256,-5.889982452124741
1539131041250246,0.5188067444876197,2.227817196917613,-5.096513313496644
1539131041266229,0.2746623941404778,1.8616006713969,-4.058899824521177
1539131041282212,0.213626306553806,1.2512397955290453,-2.532997634851654
1539131041298195,0.15259021896690683,0.213626306553806,-0.7019150072480898
1539131041314179,0.33569848172737693,-0.8850232700083325,1.0681315327688026
1539131041330162,0.7019150072480898,-1.9226367589837992,2.288853284504512
1539131041346145,0.6408789196611906,-3.0823224231326094,3.570611123826893
1539131041362128,0.03051804379333589,-4.180971999694748,4.669260700389032
1539131041378111,-0.7629510948347615,-4.974441138323073,5.096513313496644
1539131041394073,-1.1902037079423735,-5.3406576638437855,4.9134050507361735
1539131041410056,-0.6408789196611906,-6.134126802471883,4.60822461280236
1539131041426038,0.2746623941404778,-7.598992904554734,4.486152437628789
1539131041442021,0.8239871824216607,-8.941786831464015,4.42511635004189
1539131041458004,0.7019150072480898,-8.758678568703772,3.814755474174035
1539131041473986,-0.2746623941404778,-6.012054627298312,2.166781109330941
1539131041489969,-1.4343480582895154,-1.739528496223329,-0.3967345693140487
1539131041505952,-1.8616006713969,2.166781109330941,-2.532997634851654
1539131041521934,-1.3122758831159445,4.486152437628789,-3.814755474174035
1539131041537917,-0.33569848172737693,5.279621576256886,-4.058899824521177
1539131041553899,0.213626306553806,5.401693751430457,-3.997863736934505
1539131041569882,0.2746623941404778,5.157549401083315,-3.692683299000464
1539131041585865,0.33569848172737693,4.852368963149502,-2.8992141603723667
1539131041601847,0.3967345693140487,4.547188525215461,-1.6784924086366573
1539131041617830,0.03051804379333589,4.364080262455218,-0.6408789196611906
1539131041633813,-0.3967345693140487,4.058899824521177,0.2746623941404778
1539131041649795,-0.33569848172737693,3.5095750362402214,0.8850232700083325
1539131041665778,0.9460593575952316,2.3498893720911838,0.9460593575952316
1539131041681760,2.532997634851654,0.8850232700083325,1.4343480582895154
1539131041697743,2.532997634851654,-0.2746623941404778,2.3498893720911838
1539131041713653,1.2512397955290453,-0.9460593575952316,3.0823224231326094
1539131041729636,0.09155413138023505,-1.4953841458761872,3.6316472114137923
1539131041745618,-0.03051804379333589,-1.9226367589837992,3.814755474174035
1539131041761601,0.5188067444876197,-1.739528496223329,3.1433585107195086
1539131041777584,0.7019150072480898,-1.4343480582895154,2.532997634851654
1539131041793566,0.3967345693140487,-1.5564202334630863,2.5940337224383256
1539131041809549,0.213626306553806,-1.9226367589837992,2.5940337224383256
1539131041825532,0.33569848172737693,-2.04470893415737,2.3498893720911838
1539131041841514,0.5798428320745188,-1.6174563210497581,1.8005645838102282
1539131041857497,0.213626306553806,-0.7019150072480898,1.1291676203554744
1539131041873479,-0.3967345693140487,0.03051804379333589,0.6408789196611906
1539131041889462,-0.7629510948347615,0.213626306553806,0.5798428320745188
1539131041905445,-0.7019150072480898,0.213626306553806,0.8239871824216607
1539131041921427,-0.6408789196611906,0.7629510948347615,0.6408789196611906
1539131041937410,-0.7019150072480898,1.3733119707026162,-0.03051804379333589
1539131041953393,-0.5188067444876197,1.1902037079423735,-0.45777065690094787
1539131041969375,0.09155413138023505,0.09155413138023505,-0.3967345693140487
1539131041985358,0.2746623941404778,-0.9460593575952316,-0.03051804379333589
1539131042001340,-0.213626306553806,-1.0681315327688026,0.09155413138023505
1539131042017323,-1.1902037079423735,-0.2746623941404778,-0.213626306553806
1539131042033264,-1.4953841458761872,0.33569848172737693,-0.7629510948347615
1539131042049246,-1.1902037079423735,0.03051804379333589,-0.8239871824216607
1539131042065228,-0.7629510948347615,-0.7019150072480898,-0.6408789196611906
1539131042081210,-0.7629510948347615,-1.1902037079423735,-0.3967345693140487
1539131042097192,-0.9460593575952316,-0.9460593575952316,-0.2746623941404778
1539131042113175,-0.6408789196611906,-0.5188067444876197,-0.33569848172737693
1539131042129157,-0.09155413138023505,-0.3967345693140487,-0.15259021896690683
1539131042145139,0.33569848172737693,-1.2512397955290453,0.8850232700083325
1539131042161121,0.3967345693140487,-2.5940337224383256,2.227817196917613
1539131042177103,0.33569848172737693,-3.3875028610666504,3.0212863355459376
1539131042193085,0.213626306553806,-2.7771419851987957,2.7771419851987957
1539131042209067,-0.213626306553806,-1.2512397955290453,1.6784924086366573
1539131042225050,-0.8239871824216607,0.6408789196611906,0.3967345693140487
1539131042241032,-0.8239871824216607,2.3498893720911838,-0.7629510948347615
1539131042257014,-0.45777065690094787,3.3875028610666504,-1.0070954451819034
1539131042272996,-0.5798428320745188,3.997863736934505,-0.8239871824216607
1539131042288978,-0.8850232700083325,4.364080262455218,-0.8239871824216607
1539131042304960,-0.8850232700083325,4.364080262455218,-0.8239871824216607
1539131042320943,-0.15259021896690683,3.6316472114137923,-0.5798428320745188
1539131042336925,1.0070954451819034,2.04470893415737,-0.03051804379333589
1539131042352874,1.3733119707026162,0.15259021896690683,0.5188067444876197
1539131042368857,1.6174563210497581,0.5188067444876197,-0.2746623941404778
1539131042384839,2.227817196917613,2.4719615472647547,-1.9226367589837992
1539131042400821,3.4485389486533222,3.5095750362402214,-3.1433585107195086
1539131042416803,4.547188525215461,3.6316472114137923,-3.3875028610666504
1539131042432785,3.814755474174035,2.9602502479590385,-1.9226367589837992
1539131042448767,1.983672846570471,1.739528496223329,0.03051804379333589
1539131042464749,0.03051804379333589,0.6408789196611906,1.6784924086366573
1539131042480732,-1.4343480582895154,0.33569848172737693,2.7771419851987957
1539131042496714,-1.8005645838102282,0.8850232700083325,2.8381780727854675
1539131042512696,-1.3733119707026162,2.288853284504512,1.6784924086366573
1539131042528678,-0.33569848172737693,3.936827649347606,0.3967345693140487
1539131042544660,1.1902037079423735,3.997863736934505,0.5188067444876197
1539131042560642,1.739528496223329,2.410925459678083,2.3498893720911838
1539131042576624,0.8239871824216607,0.33569848172737693,4.242008087281647
1539131042592607,-0.15259021896690683,-1.2512397955290453,5.157549401083315
1539131042608589,0.03051804379333589,-2.288853284504512,5.096513313496644
1539131042624571,0.8850232700083325,-3.1433585107195086,4.669260700389032
1539131042640553,1.3733119707026162,-3.570611123826893,3.997863736934505
1539131042656535,0.45777065690094787,-3.1433585107195086,3.4485389486533222
1539131042672454,-0.6408789196611906,-1.4343480582895154,1.6174563210497581
1539131042688437,-0.3967345693140487,0.7019150072480898,-0.7629510948347615
1539131042704419,0.8239871824216607,1.0681315327688026,-1.3122758831159445
1539131042720401,1.5564202334630863,-0.33569848172737693,-0.9460593575952316
1539131042736383,1.8005645838102282,-1.739528496223329,-0.8239871824216607
1539131042752365,2.04470893415737,-2.4719615472647547,-0.9460593575952316
1539131042768347,0.213626306553806,-1.983672846570471,-0.5798428320745188
1539131042784330,-1.1902037079423735,-1.5564202334630863,-0.33569848172737693
1539131042800312,-0.7629510948347615,-1.983672846570471,-0.8850232700083325
1539131042816294,0.213626306553806,-3.3264667734797513,-1.0070954451819034
1539131042832276,0.213626306553806,-4.242008087281647,-0.5798428320745188
1539131042848258,0.03051804379333589,-3.997863736934505,-0.8239871824216607
1539131042864240,-0.3967345693140487,-2.5940337224383256,-1.8005645838102282
1539131042880222,-0.7019150072480898,-1.3122758831159445,-2.410925459678083
1539131042896205,-0.7019150072480898,-0.6408789196611906,-2.166781109330941
1539131042912187,-0.8239871824216607,-0.2746623941404778,-1.3733119707026162
1539131042928169,-1.3733119707026162,0.45777065690094787,-0.8850232700083325
1539131042944151,-1.6784924086366573,1.4343480582895154,-0.8850232700083325
1539131042960133,-1.0681315327688026,1.5564202334630863,-0.3967345693140487
1539131042976115,-0.3967345693140487,0.5798428320745188,1.0070954451819034
1539131042992065,-0.5188067444876197,-0.213626306553806,2.8381780727854675
1539131043008047,-1.1291676203554744,0.213626306553806,3.7537193865873633
1539131043024028,-1.4953841458761872,1.4953841458761872,3.6316472114137923
1539131043040010,-0.2746623941404778,1.6174563210497581,3.5095750362402214
1539131043055992,1.739528496223329,-0.213626306553806,4.119935912108076
1539131043071973,2.8381780727854675,-2.105745021744042,4.180971999694748
1539131043087955,0.8239871824216607,-1.8616006713969,3.936827649347606
1539131043103937,-0.5188067444876197,-1.3733119707026162,3.692683299000464
1539131043119918,-0.9460593575952316,-0.7629510948347615,2.8992141603723667
1539131043135900,-0.8850232700083325,-0.09155413138023505,1.6784924086366573
1539131043151882,-0.7019150072480898,0.15259021896690683,0.7019150072480898
1539131043167863,-0.7019150072480898,0.15259021896690683,-0.09155413138023505
1539131043183845,-0.6408789196611906,0.33569848172737693,-0.45777065690094787
1539131043199827,-0.5798428320745188,0.2746623941404778,-0.45777065690094787
1539131043215808,-0.5798428320745188,0.213626306553806,-0.5188067444876197
1539131043231790,-0.5188067444876197,0.03051804379333589,-0.5798428320745188
1539131043247772,-0.3967345693140487,-0.15259021896690683,-0.5798428320745188
1539131043263754,0.15259021896690683,-0.5188067444876197,-0.5188067444876197
1539131043279735,0.3967345693140487,-0.7019150072480898,-0.5798428320745188
1539131043295717,0.2746623941404778,-0.33569848172737693,-0.8850232700083325
1539131043311676,-0.03051804379333589,0.213626306553806,-1.1291676203554744
1539131043327657,-0.09155413138023505,0.33569848172737693,-1.2512397955290453
1539131043343639,0.213626306553806,-0.2746623941404778,-1.0070954451819034
1539131043359621,0.2746623941404778,-1.1902037079423735,-0.7019150072480898
1539131043375602,-0.09155413138023505,-1.6174563210497581,-0.5798428320745188
1539131043391584,-1.1291676203554744,-0.9460593575952316,-1.0681315327688026
1539131043407566,-2.5940337224383256,0.8239871824216607,-1.8616006713969
1539131043423547,-3.570611123826893,2.105745021744042,-1.8616006713969
1539131043439529,-3.814755474174035,1.6784924086366573,-0.5188067444876197
1539131043455511,-3.4485389486533222,0.09155413138023505,1.739528496223329
1539131043471492,-3.0212863355459376,-1.6174563210497581,3.814755474174035
1539131043487474,-2.7771419851987957,-2.532997634851654,5.584802014190927
1539131043503456,-1.4343480582895154,-3.3875028610666504,6.683451590753066
1539131043519437,-0.213626306553806,-3.936827649347606,7.354848554207592
1539131043535419,0.45777065690094787,-4.119935912108076,7.537956816968062
1539131043551401,0.3967345693140487,-3.3875028610666504,6.8665598535133086
1539131043567382,0.15259021896690683,-2.227817196917613,5.706874189364498
1539131043583364,0.3967345693140487,-1.2512397955290453,4.242008087281647
1539131043599346,0.8239871824216607,-0.8850232700083325,2.8381780727854675
1539131043615327,1.0681315327688026,-0.7019150072480898,1.6784924086366573
1539131043631286,0.8850232700083325,0.03051804379333589,0.3967345693140487
1539131043647268,0.45777065690094787,0.8850232700083325,-0.9460593575952316
1539131043663250,0.213626306553806,1.1902037079423735,-1.9226367589837992
1539131043679231,0.33569848172737693,0.9460593575952316,-2.9602502479590385
1539131043695213,0.5188067444876197,0.9460593575952316,-3.7537193865873633
1539131043711195,0.3967345693140487,1.4343480582895154,-4.486152437628789
1539131043727176,0.15259021896690683,2.105745021744042,-4.852368963149502
1539131043743158,-0.03051804379333589,2.166781109330941,-4.60822461280236
1539131043759140,-0.03051804379333589,1.4343480582895154,-3.6316472114137923
1539131043775121,0.2746623941404778,0.213626306553806,-2.3498893720911838
1539131043791103,0.5798428320745188,-1.0681315327688026,-1.2512397955290453
1539131043807085,0.6408789196611906,-1.8616006713969,-0.5798428320745188
1539131043823066,0.3967345693140487,-1.983672846570471,-0.09155413138023505
1539131043839048,-0.03051804379333589,-1.6784924086366573,0.33569848172737693
1539131043855030,-0.45777065690094787,-1.3122758831159445,1.1902037079423735
1539131043871011,-0.8239871824216607,-1.0681315327688026,2.288853284504512
1539131043886993,-0.7019150072480898,-0.8850232700083325,3.0823224231326094
1539131043902975,-0.2746623941404778,-0.5798428320745188,3.4485389486533222
1539131043918956,0.03051804379333589,-0.213626306553806,3.692683299000464
1539131043934938,-0.3967345693140487,0.15259021896690683,4.119935912108076
1539131043950866,-1.0070954451819034,0.15259021896690683,4.364080262455218
1539131043966848,-1.3122758831159445,0.09155413138023505,4.364080262455218
1539131043982830,-0.6408789196611906,-0.09155413138023505,3.997863736934505
1539131043998811,0.213626306553806,-0.2746623941404778,3.7537193865873633
1539131044014793,0.6408789196611906,-0.5188067444876197,3.692683299000464
1539131044030775,0.213626306553806,-0.7629510948347615,3.6316472114137923
1539131044046756,-0.3967345693140487,-0.5798428320745188,3.0212863355459376
1539131044062738,-0.6408789196611906,0.3967345693140487,1.5564202334630863
1539131044078720,0.03051804379333589,1.4343480582895154,-0.09155413138023505
1539131044094701,0.8239871824216607,1.8616006713969,-0.8850232700083325
1539131044110683,0.8850232700083325,1.6784924086366573,-0.6408789196611906
1539131044126665,0.213626306553806,1.1291676203554744,0.3967345693140487
1539131044142646,-0.5798428320745188,0.5188067444876197,1.3122758831159445
1539131044158628,-0.5188067444876197,-0.03051804379333589,1.4953841458761872
1539131044174610,0.2746623941404778,-0.3967345693140487,0.8239871824216607
1539131044190591,1.0070954451819034,-0.6408789196611906,0.09155413138023505
1539131044206573,0.9460593575952316,-0.8239871824216607,-0.213626306553806
1539131044222555,0.3967345693140487,-1.0070954451819034,-0.03051804379333589
1539131044238536,0.09155413138023505,-1.3122758831159445,-0.03051804379333589
1539131044254518,0.5798428320745188,-1.8616006713969,-0.3967345693140487
1539131044270477,1.1902037079423735,-2.105745021744042,-1.1291676203554744
1539131044286458,1.4343480582895154,-1.6174563210497581,-1.9226367589837992
1539131044302439,0.9460593575952316,-0.6408789196611906,-2.227817196917613
1539131044318421,-0.09155413138023505,0.33569848172737693,-1.8616006713969
1539131044334402,-0.7629510948347615,0.45777065690094787,-1.0681315327688026
1539131044350383,-0.6408789196611906,-0.33569848172737693,-0.2746623941404778
1539131044366364,0.09155413138023505,-1.1902037079423735,-0.15259021896690683
1539131044382345,0.5798428320745188,-1.3733119707026162,-0.33569848172737693
1539131044398326,0.45777065690094787,-0.9460593575952316,-0.45777065690094787
1539131044414308,0.15259021896690683,-0.5188067444876197,-0.15259021896690683
1539131044430289,-0.33569848172737693,-0.213626306553806,0.5188067444876197
1539131044446270,-0.6408789196611906,0.03051804379333589,0.8239871824216607
1539131044462251,-0.33569848172737693,0.45777065690094787,0.7019150072480898
1539131044478232,0.3967345693140487,0.7019150072480898,0.33569848172737693
1539131044494214,1.1902037079423735,0.213626306553806,0.2746623941404778
1539131044510195,1.1291676203554744,-1.0070954451819034,1.1902037079423735
1539131044526176,0.33569848172737693,-1.983672846570471,2.105745021744042
1539131044542157,-0.45777065690094787,-2.105745021744042,2.227817196917613
1539131044558138,-0.33569848172737693,-1.6174563210497581,1.5564202334630863
1539131044574120,0.7629510948347615,-1.3122758831159445,0.7629510948347615
1539131044590088,1.6174563210497581,-1.3733119707026162,0.33569848172737693
1539131044606069,1.5564202334630863,-1.8616006713969,0.45777065690094787
1539131044622050,0.7019150072480898,-1.9226367589837992,0.33569848172737693
1539131044638031,0.15259021896690683,-1.6174563210497581,-0.33569848172737693
1539131044654012,0.45777065690094787,-1.3122758831159445,-1.2512397955290453
1539131044669994,1.0070954451819034,-1.0681315327688026,-1.8616006713969
1539131044685975,0.7629510948347615,-0.3967345693140487,-2.166781109330941
1539131044701956,-0.09155413138023505,0.7019150072480898,-2.3498893720911838
1539131044717937,-0.5188067444876197,1.5564202334630863,-2.410925459678083
1539131044733918,-0.09155413138023505,1.4953841458761872,-2.227817196917613
1539131044749899,0.7629510948347615,0.7019150072480898,-1.8005645838102282
1539131044765881,1.2512397955290453,-0.03051804379333589,-1.0681315327688026
1539131044781862,0.7629510948347615,-0.09155413138023505,-0.5188067444876197
1539131044797843,0.03051804379333589,0.2746623941404778,0.09155413138023505
1539131044813824,-0.33569848172737693,0.3967345693140487,0.7629510948347615
1539131044829805,-0.15259021896690683,-0.213626306553806,1.4953841458761872
1539131044845787,0.213626306553806,-0.7629510948347615,2.105745021744042
1539131044861768,0.09155413138023505,-0.3967345693140487,1.983672846570471
1539131044877749,-0.3967345693140487,0.33569848172737693,1.5564202334630863
1539131044893730,-0.6408789196611906,0.7019150072480898,1.3122758831159445
1539131044909698,-0.213626306553806,0.09155413138023505,1.6784924086366573
1539131044925679,0.09155413138023505,-0.9460593575952316,2.7161058976118966
1539131044941661,-0.15259021896690683,-1.4953841458761872,3.2043945983061803
1539131044957642,-0.5188067444876197,-1.2512397955290453,3.2043945983061803
1539131044973623,-0.6408789196611906,-0.8239871824216607,2.8992141603723667
1539131044989604,-0.2746623941404778,-0.9460593575952316,3.1433585107195086
1539131045005585,-0.213626306553806,-1.3733119707026162,3.4485389486533222
1539131045021566,-0.3967345693140487,-2.04470893415737,3.5095750362402214
1539131045037548,-0.2746623941404778,-2.5940337224383256,3.0823224231326094
1539131045053529,0.33569848172737693,-2.7161058976118966,2.227817196917613
1539131045069510,1.1902037079423735,-2.3498893720911838,1.0681315327688026
1539131045085491,1.3733119707026162,-1.739528496223329,0.213626306553806
1539131045101472,0.8850232700083325,-0.8239871824216607,-0.6408789196611906
1539131045117454,0.213626306553806,0.15259021896690683,-1.3122758831159445
1539131045133435,0.33569848172737693,0.5188067444876197,-2.166781109330941
1539131045149416,1.1902037079423735,0.213626306553806,-3.0212863355459376
1539131045165397,2.105745021744042,-0.3967345693140487,-3.6316472114137923
1539131045181378,2.5940337224383256,-0.5798428320745188,-4.180971999694748
1539131045197360,2.227817196917613,-0.3967345693140487,-4.303044174868319
1539131045213341,1.6174563210497581,-0.15259021896690683,-3.936827649347606
1539131045229309,1.3733119707026162,-0.15259021896690683,-3.5095750362402214
1539131045245290,1.8616006713969,-0.45777065690094787,-2.8992141603723667
1539131045261271,2.410925459678083,-0.7629510948347615,-2.166781109330941
1539131045277252,2.3498893720911838,-0.6408789196611906,-1.4343480582895154
1539131045293233,1.739528496223329,-0.213626306553806,-0.9460593575952316
1539131045309215,1.1902037079423735,0.15259021896690683,-0.5188067444876197
1539131045325196,1.3733119707026162,-0.03051804379333589,0.03051804379333589
1539131045341177,2.04470893415737,-0.7019150072480898,0.7629510948347615
1539131045357158,2.227817196917613,-1.5564202334630863,1.9226367589837992
1539131045373139,1.6784924086366573,-1.8616006713969,2.7771419851987957
1539131045389121,0.8239871824216607,-1.3733119707026162,3.0212863355459376
1539131045405102,0.5798428320745188,-0.3967345693140487,2.410925459678083
1539131045421083,1.0070954451819034,0.33569848172737693,1.5564202334630863
1539131045437064,1.2512397955290453,0.45777065690094787,1.6174563210497581
1539131045453045,0.7629510948347615,0.15259021896690683,2.166781109330941
1539131045469027,-0.09155413138023505,-0.213626306553806,2.5940337224383256
1539131045485008,-0.7019150072480898,-0.15259021896690683,2.410925459678083
1539131045500989,-0.7019150072480898,0.45777065690094787,1.739528496223329
1539131045516970,-0.5188067444876197,1.1291676203554744,1.0070954451819034
1539131045532951,-0.3967345693140487,1.3733119707026162,0.7629510948347615
1539131045548919,-0.5188067444876197,1.1902037079423735,1.1291676203554744
1539131045564901,-0.5188067444876197,0.2746623941404778,2.04470893415737
1539131045580882,-0.3967345693140487,-0.5798428320745188,2.7161058976118966
1539131045596863,-0.15259021896690683,-0.9460593575952316,2.7161058976118966
1539131045612844,-0.213626306553806,-0.7019150072480898,2.166781109330941
1539131045628825,-0.5188067444876197,-0.213626306553806,1.6174563210497581
1539131045644806,-0.8239871824216607,-0.15259021896690683,1.4343480582895154
1539131045660788,-0.45777065690094787,-0.45777065690094787,1.6174563210497581
1539131045676769,0.03051804379333589,-0.8239871824216607,1.739528496223329
1539131045692750,0.5188067444876197,-1.0681315327688026,1.3122758831159445
1539131045708731,0.5798428320745188,-1.0681315327688026,0.7019150072480898
1539131045724712,0.5188067444876197,-0.8850232700083325,-0.03051804379333589
1539131045740694,0.5798428320745188,-0.7019150072480898,-0.5798428320745188
1539131045756675,0.5188067444876197,-0.45777065690094787,-0.8850232700083325
1539131045772656,0.09155413138023505,0.33569848172737693,-1.2512397955290453
1539131045788637,-0.03051804379333589,1.1902037079423735,-2.04470893415737
1539131045804618,0.5188067444876197,1.8616006713969,-2.9602502479590385
1539131045820600,1.2512397955290453,1.983672846570471,-3.2654306858930795
1539131045836581,1.5564202334630863,1.6174563210497581,-2.8992141603723667
1539131045852562,1.1291676203554744,0.9460593575952316,-2.105745021744042
1539131045868499,0.5798428320745188,0.2746623941404778,-1.2512397955290453
1539131045884480,0.3967345693140487,-0.213626306553806,-0.7019150072480898
1539131045900461,0.6408789196611906,-0.45777065690094787,-0.5798428320745188
1539131045916442,0.9460593575952316,-0.5188067444876197,-0.213626306553806
1539131045932422,1.3122758831159445,-0.8239871824216607,0.3967345693140487
1539131045948403,1.1902037079423735,-1.1902037079423735,1.6174563210497581
1539131045964384,0.45777065690094787,-1.4343480582895154,2.7771419851987957
1539131045980364,-0.5188067444876197,-1.3733119707026162,3.1433585107195086
1539131045996345,-0.7629510948347615,-1.1902037079423735,2.7771419851987957
1539131046012326,-0.33569848172737693,-0.8850232700083325,2.04470893415737
1539131046028307,-0.33569848172737693,-0.5188067444876197,1.3122758831159445
1539131046044287,-1.2512397955290453,-0.3967345693140487,1.0681315327688026
1539131046060268,-2.166781109330941,-0.5188067444876197,0.8239871824216607
1539131046076249,-2.166781109330941,-0.7629510948347615,0.15259021896690683
1539131046092229,-1.5564202334630863,-1.2512397955290453,-0.5798428320745188
1539131046108210,-1.0070954451819034,-1.4343480582895154,-1.3122758831159445
1539131046124191,-0.9460593575952316,-1.3122758831159445,-1.9226367589837992
1539131046140172,-1.3733119707026162,-1.2512397955290453,-1.983672846570471
1539131046156152,-1.4953841458761872,-1.3733119707026162,-1.6174563210497581
1539131046172133,-1.3122758831159445,-1.3733119707026162,-1.3122758831159445
1539131046188110,-0.8850232700083325,-1.3122758831159445,-1.0681315327688026
1539131046204091,-0.5798428320745188,-0.8850232700083325,-0.7019150072480898
1539131046220071,-0.5188067444876197,-0.5188067444876197,-0.45777065690094787
1539131046236052,-0.2746623941404778,-0.213626306553806,-0.213626306553806
1539131046252033,0.3967345693140487,-0.03051804379333589,0.213626306553806
1539131046268014,1.1291676203554744,-0.09155413138023505,0.5798428320745188
1539131046283994,1.4953841458761872,-0.09155413138023505,1.1291676203554744
1539131046299975,1.3733119707026162,0.03051804379333589,1.5564202334630863
1539131046315956,1.0681315327688026,0.33569848172737693,1.9226367589837992
1539131046331936,0.7629510948347615,0.9460593575952316,1.983672846570471
1539131046347917,0.7629510948347615,1.5564202334630863,1.739528496223329
1539131046363898,0.9460593575952316,1.739528496223329,1.6174563210497581
1539131046379879,1.1902037079423735,1.3733119707026162,1.6174563210497581
1539131046395859,0.7629510948347615,0.7629510948347615,1.4953841458761872
1539131046411840,0.03051804379333589,0.8239871824216607,0.7629510948347615
1539131046427821,-0.45777065690094787,1.3122758831159445,-0.5188067444876197
1539131046443802,-0.3967345693140487,1.3122758831159445,-1.1902037079423735
1539131046459782,-0.213626306553806,0.7019150072480898,-1.1902037079423735
1539131046475763,-0.15259021896690683,-0.2746623941404778,-0.8850232700083325
1539131046491744,-0.15259021896690683,-1.2512397955290453,-0.2746623941404778
1539131046507721,0.03051804379333589,-2.04470893415737,0.3967345693140487
1539131046523701,0.45777065690094787,-2.4719615472647547,0.45777065690094787
1539131046539682,0.5188067444876197,-2.532997634851654,0.2746623941404778
1539131046555663,0.3967345693140487,-2.3498893720911838,0.3967345693140487
1539131046571643,-0.15259021896690683,-1.983672846570471,0.7019150072480898
1539131046587624,-0.3967345693140487,-1.4953841458761872,0.7629510948347615
1539131046603605,-0.03051804379333589,-1.0070954451819034,1.0681315327688026
1539131046619586,0.7019150072480898,-0.5188067444876197,1.3733119707026162
1539131046635566,1.0070954451819034,-0.09155413138023505,1.9226367589837992
1539131046651547,0.7629510948347615,-0.03051804379333589,2.7771419851987957
1539131046667528,0.2746623941404778,-0.15259021896690683,3.3264667734797513
1539131046683508,0.2746623941404778,-0.15259021896690683,3.3875028610666504
1539131046699489,0.7019150072480898,-0.03051804379333589,3.1433585107195086
1539131046715470,1.1902037079423735,0.33569848172737693,2.7771419851987957
1539131046731451,1.1291676203554744,0.9460593575952316,2.410925459678083
1539131046747431,0.5188067444876197,1.739528496223329,2.166781109330941
1539131046763412,-0.09155413138023505,2.3498893720911838,1.8005645838102282
1539131046779393,-0.3967345693140487,2.532997634851654,1.3122758831159445
1539131046795374,-0.2746623941404778,2.3498893720911838,0.7019150072480898
1539131046811354,-0.03051804379333589,2.04470893415737,0.213626306553806
1539131046827331,-0.15259021896690683,1.6174563210497581,0.15259021896690683
1539131046843312,-1.0070954451819034,1.0681315327688026,0.5798428320745188
1539131046859293,-1.8616006713969,0.6408789196611906,0.8850232700083325
1539131046875273,-2.04470893415737,-0.03051804379333589,0.8850232700083325
1539131046891254,-1.3122758831159445,-0.5188067444876197,0.3967345693140487
1539131046907235,-0.7629510948347615,-1.0070954451819034,0.213626306553806
1539131046923215,-1.2512397955290453,-1.3733119707026162,0.7019150072480898
1539131046939196,-2.166781109330941,-1.9226367589837992,1.2512397955290453
1539131046955177,-2.410925459678083,-2.4719615472647547,1.3733119707026162
1539131046971158,-1.6784924086366573,-2.8992141603723667,1.0070954451819034
1539131046987138,-0.8239871824216607,-2.8381780727854675,0.213626306553806
1539131047003119,-0.7019150072480898,-2.166781109330941,-0.5188067444876197
1539131047019100,-1.4343480582895154,-1.3733119707026162,-0.7629510948347615
1539131047035081,-2.04470893415737,-1.0070954451819034,-0.5188067444876197
1539131047051061,-1.8005645838102282,-0.9460593575952316,-0.45777065690094787
1539131047067042,-0.9460593575952316,-0.8239871824216607,-0.9460593575952316
1539131047083023,-0.3967345693140487,-0.213626306553806,-1.5564202334630863
1539131047099003,-0.3967345693140487,0.45777065690094787,-1.6784924086366573
1539131047114984,-0.5188067444876197,0.6408789196611906,-1.1902037079423735
1539131047130965,-0.5798428320745188,0.5798428320745188,-0.6408789196611906
1539131047146911,-0.15259021896690683,0.7019150072480898,-0.3967345693140487
1539131047162892,0.5798428320745188,1.0681315327688026,-0.3967345693140487
1539131047178873,1.3122758831159445,0.9460593575952316,-0.09155413138023505
1539131047194853,1.4953841458761872,0.5188067444876197,0.9460593575952316
1539131047210834,1.1902037079423735,0.15259021896690683,1.983672846570471
1539131047226815,0.8850232700083325,-0.09155413138023505,2.5940337224383256
1539131047242796,0.9460593575952316,-0.33569848172737693,2.655069810025225
1539131047258776,1.4953841458761872,-0.5798428320745188,2.166781109330941
1539131047274757,1.8616006713969,-0.45777065690094787,1.3733119707026162
1539131047290738,1.5564202334630863,0.03051804379333589,0.9460593575952316
1539131047306718,0.5798428320745188,0.8850232700083325,0.6408789196611906
1539131047322699,-0.2746623941404778,1.4953841458761872,0.15259021896690683
1539131047338680,0.03051804379333589,1.4343480582895154,-0.3967345693140487
1539131047354661,1.0070954451819034,0.7629510948347615,-0.9460593575952316
1539131047370641,1.8005645838102282,-0.09155413138023505,-1.5564202334630863
1539131047386622,1.6174563210497581,-0.5798428320745188,-1.9226367589837992
1539131047402603,0.6408789196611906,-0.5798428320745188,-1.8616006713969
1539131047418583,-0.15259021896690683,-0.5188067444876197,-1.4953841458761872
1539131047434564,-0.213626306553806,-0.8850232700083325,-0.8850232700083325
1539131047450545,0.45777065690094787,-1.4953841458761872,-0.45777065690094787
1539131047466522,1.1902037079423735,-1.8005645838102282,-0.2746623941404778
1539131047482503,1.4343480582895154,-1.6784924086366573,-0.03051804379333589
1539131047498483,0.8239871824216607,-1.2512397955290453,0.45777065690094787
1539131047514464,0.03051804379333589,-0.8850232700083325,0.8239871824216607
1539131047530445,-0.213626306553806,-0.8239871824216607,1.4343480582895154
1539131047546425,0.2746623941404778,-0.9460593575952316,1.739528496223329
1539131047562406,0.8850232700083325,-0.8239871824216607,1.8005645838102282
1539131047578387,1.1902037079423735,-0.2746623941404778,1.6174563210497581
1539131047594368,1.1291676203554744,0.09155413138023505,1.6174563210497581
1539131047610348,1.0070954451819034,-0.03051804379333589,1.983672846570471
1539131047626329,0.9460593575952316,-0.7019150072480898,2.166781109330941
1539131047642310,1.1902037079423735,-1.2512397955290453,1.9226367589837992
1539131047658290,1.4953841458761872,-1.1902037079423735,1.1291676203554744
1539131047674271,1.3122758831159445,-0.9460593575952316,0.3967345693140487
1539131047690252,0.2746623941404778,-0.15259021896690683,-0.3967345693140487
1539131047706233,-0.213626306553806,0.45777065690094787,-1.5564202334630863
1539131047722213,0.3967345693140487,0.03051804379333589,-1.9226367589837992
1539131047738194,1.4953841458761872,-1.1291676203554744,-1.983672846570471
1539131047754175,2.227817196917613,-1.5564202334630863,-2.227817196917613
1539131047770156,1.9226367589837992,-1.0070954451819034,-2.4719615472647547
1539131047786132,1.1902037079423735,-0.3967345693140487,-2.288853284504512
1539131047802113,0.7019150072480898,-0.5188067444876197,-1.5564202334630863
1539131047818094,0.8239871824216607,-1.0070954451819034,-0.7019150072480898
1539131047834075,1.3122758831159445,-1.1291676203554744,-0.2746623941404778
1539131047850055,1.4953841458761872,-0.8850232700083325,-0.2746623941404778
1539131047866036,1.3122758831159445,-0.2746623941404778,-0.3967345693140487
1539131047882017,0.8850232700083325,0.2746623941404778,0.09155413138023505
1539131047897997,0.33569848172737693,0.5798428320745188,0.8850232700083325
1539131047913978,0.09155413138023505,0.6408789196611906,1.4343480582895154
1539131047929959,0.2746623941404778,0.45777065690094787,1.6174563210497581
1539131047945940,0.9460593575952316,0.213626306553806,1.6174563210497581
1539131047961920,1.3122758831159445,0.213626306553806,1.739528496223329
1539131047977901,1.0681315327688026,0.2746623941404778,1.739528496223329
1539131047993882,0.3967345693140487,0.2746623941404778,1.6174563210497581
1539131048009863,0.09155413138023505,0.15259021896690683,1.6174563210497581
1539131048025843,0.03051804379333589,0.03051804379333589,1.4343480582895154
1539131048041824,0.09155413138023505,-0.15259021896690683,1.1902037079423735
1539131048057805,-0.15259021896690683,-0.8239871824216607,0.9460593575952316
1539131048073785,-0.2746623941404778,-1.9226367589837992,1.2512397955290453
1539131048089766,-0.213626306553806,-3.2043945983061803,1.4343480582895154
1539131048105682,-18.280308232242305,-12.726024261844714,3.4485389486533222
1539131048121662,-1.6784924086366573,-2.410925459678083,20.660715648126825
1539131048137642,-29.938200961318216,8.819714656290444,-4.730296787975931
1539131048153623,6.744487678339738,23.83459220263967,-16.632333867398984
1539131048169603,47.51659418631243,6.134126802471883,-17.975127794308264
1539131048185583,66.62088960097662,-10.223544670786623,-19.562066071564686
1539131048201563,66.37674525062948,-26.39810788128466,-22.247653925383247
1539131048217544,42.633707179369594,-28.656443121995835,-22.919050888838
1539131048233524,10.650797283894008,-24.505989166094423,-18.402380407415876
1539131048249504,-20.11139085984587,-18.341344319828977,-13.275349050125897
1539131048265484,-43.61028458075839,-15.228503852903032,-8.697642481116873
1539131048281465,-58.99137865262833,-14.740215152208748,-3.570611123826893
1539131048297445,-67.41435873960472,-14.862287327382319,2.655069810025225
1539131048313425,-66.7429617761502,-14.496070801861606,5.523765926604028
1539131048329405,-53.92538338292525,-14.862287327382319,1.983672846570471
1539131048345386,-30.853742275120112,-17.24269474326684,-4.974441138323073
1539131048361366,-5.2185854886702145,-20.23346303501944,-11.20012207217519
1539131048377346,11.566338597695903,-20.11139085984587,-14.435034714274707
1539131048393326,13.885709925993751,-14.679179064621849,-14.129854276340893
1539131048409307,7.721065079728305,-6.439307240405924,-11.139085984588291
1539131048425293,1.1291676203554744,1.0681315327688026,-6.500343327992596
1539131048441273,-1.1902037079423735,6.683451590753066,-1.6784924086366573
1539131048457253,2.288853284504512,9.491111619745197,1.4953841458761872
1539131048473233,8.209353780422589,10.589761196307336,3.692683299000464
1539131048489214,13.214312962538997,11.627374685282575,5.76791027695117
1539131048505194,15.228503852903032,13.885709925993751,8.026245517662346
1539131048521174,14.862287327382319,17.181658655680167,10.589761196307336
1539131048537154,13.946746013580423,20.538643472953254,13.092240787365427
1539131048553135,13.092240787365427,23.346303501945386,15.289539940489703
1539131048569115,12.481879911497572,25.48256656748299,16.937514305333025
1539131048585095,11.871519035629717,26.7032883192187,17.914091706721592
1539131048601075,11.07804989700162,27.130540932326085,18.70756084534969
1539131048617056,10.284580758373295,26.764324406805372,19.378957808804444
1539131048633036,9.246967269398056,25.60463874265656,19.9893186846723
1539131048649016,8.209353780422589,23.407339589532285,20.416571297779683
1539131048664996,7.537956816968062,20.416571297779683,20.477607385366582
1539131048680976,7.11070420386045,17.24269474326684,19.9282825970854
1539131048696957,6.9886320286868795,14.007782101167322,18.463416495002548
1539131048712937,6.744487678339738,10.955977721828049,16.510261692225413
1539131048728917,5.889982452124741,7.965209430075447,14.251926451514464
1539131048744903,4.547188525215461,5.0354772259097444,11.749446860456146
1539131048760883,2.7161058976118966,2.227817196917613,9.063859006637585
1539131048776864,0.7629510948347615,-0.213626306553806,5.828946364538069
1539131048792844,-1.0070954451819034,-2.410925459678083,2.3498893720911838
1539131048808824,-2.410925459678083,-4.364080262455218,-1.3122758831159445
1539131048824804,-3.2043945983061803,-6.317235065232353,-4.60822461280236
1539131048840785,-3.570611123826893,-8.087281605249018,-7.17174029144735
1539131048856765,-3.875791561760934,-9.430075532158298,-9.124895094224485
1539131048872745,-4.364080262455218,-10.223544670786623,-10.833905546654478
1539131048888725,-4.669260700389032,-10.589761196307336,-12.115663385976859
1539131048904706,-4.669260700389032,-11.01701380941472,-12.481879911497572
1539131048920686,-4.42511635004189,-11.810482948043045,-11.993591210803288
1539131048936666,-3.936827649347606,-12.542915999084471,-11.01701380941472
1539131048952646,-3.4485389486533222,-12.726024261844714,-9.979400320439481
1539131048968627,-3.2043945983061803,-11.871519035629717,-9.185931181811156
1539131048984607,-3.1433585107195086,-9.979400320439481,-8.575570305943302
1539131049000587,-2.7771419851987957,-7.537956816968062,-8.026245517662346
1539131049016567,-2.166781109330941,-5.3406576638437855,-6.927595941100208
1539131049032548,-1.6784924086366573,-3.5095750362402214,-5.401693751430457
1539131049048528,-1.2512397955290453,-1.9226367589837992,-3.6316472114137923
1539131049064483,-0.8239871824216607,-0.2746623941404778,-1.9226367589837992
1539131049080464,-0.09155413138023505,1.2512397955290453,-0.09155413138023505
1539131049096444,0.8239871824216607,2.166781109330941,1.739528496223329
1539131049112424,1.1902037079423735,2.7771419851987957,3.570611123826893
1539131049128404,1.0681315327688026,3.2654306858930795,4.852368963149502
1539131049144384,0.9460593575952316,3.814755474174035,5.462729839017356
1539131049160365,1.3733119707026162,4.242008087281647,5.76791027695117
1539131049176345,2.166781109330941,4.303044174868319,6.073090714885211
1539131049192325,2.5940337224383256,4.303044174868319,6.317235065232353
1539131049208305,2.410925459678083,4.242008087281647,6.500343327992596
1539131049224286,1.8616006713969,3.875791561760934,6.622415503166167
1539131049240266,1.2512397955290453,3.4485389486533222,6.317235065232353
1539131049256246,1.0070954451819034,2.9602502479590385,5.462729839017356
1539131049272226,1.1902037079423735,2.288853284504512,4.486152437628789
1539131049288207,1.1902037079423735,1.3122758831159445,3.6316472114137923
1539131049304187,0.5798428320745188,0.2746623941404778,3.0212863355459376
1539131049320167,-0.09155413138023505,-0.5798428320745188,2.3498893720911838
1539131049336147,-0.3967345693140487,-0.9460593575952316,0.8850232700083325
1539131049352128,0.03051804379333589,-1.4953841458761872,-0.45777065690094787
1539131049368108,0.7019150072480898,-2.4719615472647547,-1.0681315327688026
1539131049384094,0.7019150072480898,-3.3264667734797513,-1.3733119707026162
1539131049400074,-0.33569848172737693,-3.0823224231326094,-1.983672846570471
1539131049416054,-1.3733119707026162,-1.9226367589837992,-3.3264667734797513
1539131049432035,-1.6174563210497581,-0.8850232700083325,-4.547188525215461
1539131049448015,-1.2512397955290453,-0.45777065690094787,-5.2185854886702145
1539131049463995,-1.1291676203554744,-0.9460593575952316,-5.0354772259097444
1539131049479975,-1.3733119707026162,-1.6174563210497581,-4.119935912108076
1539131049495956,-1.4343480582895154,-1.983672846570471,-3.2043945983061803
1539131049511936,-0.7629510948347615,-2.3498893720911838,-2.3498893720911838
1539131049527916,0.15259021896690683,-2.7771419851987957,-1.5564202334630863
1539131049543896,0.7019150072480898,-3.3264667734797513,-0.6408789196611906
1539131049559877,0.33569848172737693,-3.570611123826893,0.33569848172737693
1539131049575857,-0.09155413138023505,-3.2043945983061803,1.0070954451819034
1539131049591837,-0.03051804379333589,-2.655069810025225,1.1291676203554744
1539131049607817,0.5798428320745188,-2.227817196917613,1.3122758831159445
1539131049623798,0.9460593575952316,-1.8616006713969,1.6784924086366573
1539131049639778,0.8239871824216607,-1.3733119707026162,1.8005645838102282
1539131049655758,0.33569848172737693,-0.3967345693140487,1.6174563210497581
1539131049671738,0.213626306553806,0.8850232700083325,0.9460593575952316
1539131049687718,0.5188067444876197,1.8005645838102282,0.33569848172737693
1539131049703704,0.8850232700083325,2.166781109330941,0.2746623941404778
1539131049719685,0.9460593575952316,1.983672846570471,0.6408789196611906
1539131049735665,0.5188067444876197,1.739528496223329,1.1291676203554744
1539131049751645,0.213626306553806,1.6784924086366573,1.1291676203554744
1539131049767625,0.33569848172737693,1.6784924086366573,0.7019150072480898
1539131049783606,0.7629510948347615,1.3122758831159445,0.2746623941404778
1539131049799586,0.8239871824216607,0.45777065690094787,0.2746623941404778
1539131049815566,0.213626306553806,-0.3967345693140487,0.5188067444876197
1539131049831546,-0.213626306553806,-1.0681315327688026,0.5188067444876197
1539131049847527,-0.2746623941404778,-1.6174563210497581,0.213626306553806
1539131049863507,0.15259021896690683,-1.983672846570471,-0.2746623941404778
1539131049879487,0.33569848172737693,-2.04470893415737,-0.7019150072480898
1539131049895467,0.213626306553806,-1.8005645838102282,-1.0681315327688026
1539131049911448,-0.09155413138023505,-1.3733119707026162,-1.3122758831159445
1539131049927428,-0.45777065690094787,-1.1902037079423735,-1.3122758831159445
1539131049943408,-0.45777065690094787,-1.4953841458761872,-1.0070954451819034
1539131049959388,-0.3967345693140487,-1.739528496223329,-0.7629510948347615
1539131049975369,-0.45777065690094787,-1.4953841458761872,-0.7629510948347615
1539131049991349,-0.5798428320745188,-0.9460593575952316,-1.0681315327688026
1539131050007329,-0.45777065690094787,-0.3967345693140487,-1.3733119707026162
1539131050023315,-0.2746623941404778,-0.45777065690094787,-1.3733119707026162
1539131050039295,-0.213626306553806,-0.7629510948347615,-0.8850232700083325
1539131050055276,-0.33569848172737693,-0.7629510948347615,-0.7629510948347615
1539131050071256,-0.3967345693140487,-0.213626306553806,-0.8850232700083325
1539131050087236,-0.2746623941404778,0.3967345693140487,-0.9460593575952316
1539131050103216,-0.03051804379333589,0.7019150072480898,-0.7019150072480898
1539131050119197,0.03051804379333589,0.5798428320745188,0.03051804379333589
1539131050135177,-0.15259021896690683,0.09155413138023505,1.0681315327688026
1539131050151157,-0.15259021896690683,-0.3967345693140487,1.8616006713969
1539131050167137,0.15259021896690683,-0.8850232700083325,2.288853284504512
1539131050183117,0.45777065690094787,-1.1291676203554744,2.105745021744042
1539131050199098,0.45777065690094787,-1.1291676203554744,1.6174563210497581
1539131050215078,0.15259021896690683,-0.6408789196611906,0.8850232700083325
1539131050231058,-0.03051804379333589,-0.09155413138023505,0.2746623941404778
1539131050247038,0.213626306553806,0.09155413138023505,-0.09155413138023505
1539131050263019,0.45777065690094787,-0.15259021896690683,-0.15259021896690683
1539131050278999,0.2746623941404778,-0.3967345693140487,-0.03051804379333589
1539131050294979,-0.213626306553806,-0.15259021896690683,-0.2746623941404778
1539131050310959,-0.213626306553806,0.3967345693140487,-0.7019150072480898
1539131050326940,0.33569848172737693,0.8239871824216607,-1.1291676203554744
1539131050342895,0.7629510948347615,0.7629510948347615,-0.8850232700083325
1539131050358875,0.7019150072480898,0.5188067444876197,-0.03051804379333589
1539131050374856,0.15259021896690683,0.5188067444876197,0.8239871824216607
1539131050390836,0.03051804379333589,0.6408789196611906,1.1291676203554744
1539131050406816,0.45777065690094787,0.7629510948347615,1.1291676203554744
1539131050422796,0.7629510948347615,0.5798428320745188,1.3122758831159445
1539131050438777,0.6408789196611906,0.15259021896690683,1.6174563210497581
1539131050454757,0.2746623941404778,-0.09155413138023505,1.739528496223329
1539131050470737,0.09155413138023505,0.03051804379333589,1.4953841458761872
1539131050486717,0.3967345693140487,0.33569848172737693,1.0681315327688026
1539131050502698,0.5798428320745188,0.6408789196611906,0.7019150072480898
1539131050518678,0.213626306553806,0.8239871824216607,0.7019150072480898
1539131050534658,-0.45777065690094787,1.0070954451819034,0.5188067444876197
1539131050550638,-0.5798428320745188,0.8239871824216607,0.2746623941404778
1539131050566619,-0.03051804379333589,0.03051804379333589,0.15259021896690683
1539131050582599,0.6408789196611906,-0.6408789196611906,-0.09155413138023505
1539131050598579,0.6408789196611906,-0.9460593575952316,-0.2746623941404778
1539131050614559,0.213626306553806,-0.9460593575952316,-0.3967345693140487
1539131050630540,-0.33569848172737693,-0.7019150072480898,-0.5798428320745188
1539131050646520,-0.33569848172737693,-0.5188067444876197,-0.8239871824216607
1539131050662506,0.03051804379333589,-0.33569848172737693,-0.9460593575952316
1539131050678486,0.3967345693140487,-0.33569848172737693,-0.7019150072480898
1539131050694466,0.213626306553806,-0.5798428320745188,0.2746623941404778
1539131050710446,-0.03051804379333589,-0.8239871824216607,1.1902037079423735
1539131050726427,0.09155413138023505,-1.1902037079423735,1.8616006713969
1539131050742407,0.7019150072480898,-1.8005645838102282,2.3498893720911838
1539131050758387,1.1291676203554744,-2.288853284504512,2.532997634851654
1539131050774367,0.8850232700083325,-1.8616006713969,2.288853284504512
1539131050790348,0.45777065690094787,-0.5798428320745188,1.3733119707026162
1539131050806328,0.33569848172737693,0.7019150072480898,0.33569848172737693
1539131050822308,0.5798428320745188,1.3122758831159445,-0.45777065690094787
1539131050838288,0.8850232700083325,1.4343480582895154,-0.8850232700083325
1539131050854269,0.8239871824216607,1.4953841458761872,-1.1902037079423735
1539131050870249,0.45777065690094787,1.9226367589837992,-1.4953841458761872
1539131050886229,0.09155413138023505,2.4719615472647547,-1.8616006713969
1539131050902209,0.15259021896690683,2.655069810025225,-1.983672846570471
1539131050918190,0.3967345693140487,2.655069810025225,-1.8616006713969
1539131050934170,0.6408789196611906,2.532997634851654,-1.1291676203554744
1539131050950150,0.5188067444876197,2.04470893415737,0.2746623941404778
1539131050966130,0.3967345693140487,1.1291676203554744,1.8005645838102282
1539131050982116,0.5798428320745188,-0.09155413138023505,3.1433585107195086
1539131050998097,0.8850232700083325,-1.0681315327688026,3.997863736934505
1539131051014077,0.8850232700083325,-1.1291676203554744,4.058899824521177
1539131051030057,0.5188067444876197,-0.3967345693140487,3.6316472114137923
1539131051046037,0.33569848172737693,0.15259021896690683,3.2654306858930795
1539131051062018,0.45777065690094787,0.15259021896690683,3.0212863355459376
1539131051077998,0.45777065690094787,0.15259021896690683,2.7161058976118966
1539131051093978,0.15259021896690683,0.8239871824216607,1.9226367589837992
1539131051109958,0.03051804379333589,1.8616006713969,0.8239871824216607
1539131051125939,0.09155413138023505,2.7161058976118966,-0.09155413138023505
1539131051141919,0.2746623941404778,2.8992141603723667,-0.45777065690094787
1539131051157899,0.09155413138023505,2.532997634851654,0.15259021896690683
1539131051173879,-0.09155413138023505,1.739528496223329,0.9460593575952316
1539131051189859,0.33569848172737693,0.9460593575952316,1.0681315327688026
1539131051205840,1.3733119707026162,-0.03051804379333589,0.7019150072480898
1539131051221820,2.105745021744042,-0.9460593575952316,0.5188067444876197
1539131051237800,1.8616006713969,-1.1291676203554744,0.213626306553806
1539131051253780,0.8239871824216607,-0.3967345693140487,-0.33569848172737693
1539131051269761,0.09155413138023505,0.5188067444876197,-1.0070954451819034
1539131051285741,0.2746623941404778,0.8239871824216607,-1.6174563210497581
1539131051301696,1.3122758831159445,0.45777065690094787,-2.04470893415737
1539131051317677,2.4719615472647547,0.15259021896690683,-2.227817196917613
1539131051333657,2.04470893415737,0.7629510948347615,-1.8005645838102282
1539131051349637,0.8239871824216607,2.166781109330941,-1.8005645838102282
1539131051365617,0.3967345693140487,3.0823224231326094,-2.227817196917613
1539131051381598,1.8005645838102282,3.0212863355459376,-2.410925459678083
1539131051397578,3.936827649347606,2.8992141603723667,-2.227817196917613
1539131051413558,4.486152437628789,3.692683299000464,-2.04470893415737
1539131051429538,3.3875028610666504,4.9134050507361735,-1.983672846570471
1539131051445519,1.983672846570471,5.706874189364498,-1.4953841458761872
1539131051461499,1.3122758831159445,5.645838101777599,-1.0681315327688026
1539131051477479,1.4343480582895154,5.0354772259097444,-1.1291676203554744
1539131051493459,1.3122758831159445,4.119935912108076,-0.8239871824216607
1539131051509440,0.7019150072480898,3.875791561760934,-0.213626306553806
1539131051525420,0.09155413138023505,4.180971999694748,-0.15259021896690683
1539131051541400,0.213626306553806,4.180971999694748,0.213626306553806
1539131051557380,0.7629510948347615,2.7161058976118966,1.6174563210497581
1539131051573361,1.3122758831159445,0.3967345693140487,3.2654306858930795
1539131051589341,1.6784924086366573,-1.6784924086366573,3.875791561760934
1539131051605321,1.9226367589837992,-2.8992141603723667,3.5095750362402214
1539131051621307,1.739528496223329,-3.2654306858930795,2.655069810025225
1539131051637287,0.9460593575952316,-3.0212863355459376,1.6174563210497581
1539131051653267,-0.09155413138023505,-2.166781109330941,0.2746623941404778
1539131051669248,-0.45777065690094787,-1.5564202334630863,-1.0070954451819034
1539131051685228,-0.09155413138023505,-1.2512397955290453,-1.983672846570471
1539131051701208,0.15259021896690683,-0.7629510948347615,-2.7771419851987957
1539131051717188,-0.09155413138023505,0.33569848172737693,-3.6316472114137923
1539131051733169,-0.45777065690094787,1.3122758831159445,-4.119935912108076
1539131051749149,-1.0681315327688026,1.739528496223329,-3.7537193865873633
1539131051765129,-1.5564202334630863,1.6784924086366573,-3.0823224231326094
1539131051781109,-1.4953841458761872,1.3733119707026162,-2.410925459678083
1539131051797090,-0.9460593575952316,0.8850232700083325,-2.04470893415737
1539131051813070,-0.213626306553806,0.15259021896690683,-1.2512397955290453
1539131051829050,0.33569848172737693,-0.5798428320745188,-0.33569848172737693
1539131051845030,0.3967345693140487,-0.7629510948347615,0.3967345693140487
1539131051861011,0.213626306553806,-0.5188067444876197,0.9460593575952316
1539131051876991,0.213626306553806,-0.213626306553806,1.3122758831159445
1539131051892971,0.6408789196611906,-0.2746623941404778,1.8005645838102282
1539131051908951,1.2512397955290453,-0.5188067444876197,2.288853284504512
1539131051924932,1.6174563210497581,-0.6408789196611906,2.655069810025225
1539131051940918,1.6174563210497581,-0.7019150072480898,2.7771419851987957
1539131051956898,1.6784924086366573,-0.5798428320745188,2.227817196917613
1539131051972878,1.983672846570471,-0.5798428320745188,1.4343480582895154
1539131051988858,1.9226367589837992,-0.33569848172737693,0.8239871824216607
1539131052004839,1.1291676203554744,0.5798428320745188,0.3967345693140487
1539131052020819,0.213626306553806,2.04470893415737,-0.5188067444876197
1539131052036799,0.213626306553806,3.0823224231326094,-1.2512397955290453
1539131052052779,0.8850232700083325,2.8992141603723667,-1.1291676203554744
1539131052068760,1.1902037079423735,2.288853284504512,-0.15259021896690683
1539131052084740,0.8239871824216607,1.983672846570471,0.7019150072480898
1539131052100720,0.213626306553806,2.166781109330941,1.3733119707026162
1539131052116700,0.09155413138023505,1.983672846570471,1.983672846570471
1539131052132681,0.6408789196611906,0.7629510948347615,2.7771419851987957
1539131052148661,1.4953841458761872,-1.2512397955290453,3.570611123826893
1539131052164641,1.9226367589837992,-3.0212863355459376,4.119935912108076
1539131052180621,1.9226367589837992,-4.058899824521177,3.936827649347606
1539131052196601,1.4343480582895154,-4.303044174868319,2.8992141603723667
1539131052212582,0.8239871824216607,-4.303044174868319,1.3733119707026162
1539131052228562,0.45777065690094787,-4.242008087281647,-0.213626306553806
1539131052244542,0.3967345693140487,-4.242008087281647,-1.6174563210497581
1539131052260498,0.45777065690094787,-3.997863736934505,-2.8992141603723667
1539131052276478,0.45777065690094787,-3.5095750362402214,-3.936827649347606
1539131052292458,0.2746623941404778,-2.7771419851987957,-4.486152437628789
1539131052308438,0.03051804379333589,-2.166781109330941,-4.486152437628789
1539131052324419,-0.15259021896690683,-1.739528496223329,-4.242008087281647
1539131052340399,-0.213626306553806,-1.3733119707026162,-3.997863736934505
1539131052356379,-0.15259021896690683,-1.0070954451819034,-3.570611123826893
1539131052372359,-0.03051804379333589,-0.5798428320745188,-2.8381780727854675
1539131052388340,0.09155413138023505,-0.15259021896690683,-2.105745021744042
1539131052404320,0.213626306553806,-0.09155413138023505,-1.1902037079423735
1539131052420300,0.45777065690094787,-0.7019150072480898,0.09155413138023505
1539131052436280,0.5188067444876197,-1.5564202334630863,1.3122758831159445
1539131052452261,0.33569848172737693,-1.8005645838102282,1.8616006713969
1539131052468241,0.213626306553806,-1.4953841458761872,1.739528496223329
1539131052484221,0.33569848172737693,-1.0070954451819034,1.3122758831159445
1539131052500201,0.213626306553806,-0.9460593575952316,1.3122758831159445
1539131052516182,0.09155413138023505,-1.3122758831159445,1.4343480582895154
1539131052532162,0.03051804379333589,-1.739528496223329,1.4953841458761872
1539131052548142,0.213626306553806,-1.8005645838102282,1.2512397955290453
1539131052564122,0.15259021896690683,-1.5564202334630863,0.7629510948347615
1539131052580108,-0.09155413138023505,-1.2512397955290453,0.09155413138023505
1539131052596089,-0.45777065690094787,-0.8850232700083325,-0.6408789196611906
1539131052612069,-0.5798428320745188,-0.6408789196611906,-1.1291676203554744
1539131052628049,-0.8239871824216607,-0.3967345693140487,-1.739528496223329
1539131052644029,-0.8239871824216607,-0.33569848172737693,-2.227817196917613
1539131052660009,-0.7019150072480898,-0.213626306553806,-2.655069810025225
1539131052675990,-0.7019150072480898,0.03051804379333589,-2.7161058976118966
1539131052691970,-0.7629510948347615,0.6408789196611906,-2.5940337224383256
1539131052707950,-1.1291676203554744,1.4953841458761872,-2.532997634851654
1539131052723930,-1.3733119707026162,1.983672846570471,-2.105745021744042
1539131052739911,-1.4953841458761872,2.04470893415737,-1.3122758831159445
1539131052755891,-1.4953841458761872,1.8616006713969,-0.3967345693140487
1539131052771871,-1.6784924086366573,1.739528496223329,0.2746623941404778
1539131052787851,-1.4953841458761872,1.0070954451819034,1.0681315327688026
1539131052803832,-1.0681315327688026,-0.213626306553806,2.04470893415737
1539131052819812,-0.8239871824216607,-1.4953841458761872,3.1433585107195086
1539131052835792,-0.8239871824216607,-2.410925459678083,3.692683299000464
1539131052851772,-0.7019150072480898,-2.8381780727854675,3.6316472114137923
1539131052867753,-0.33569848172737693,-3.0212863355459376,3.1433585107195086
1539131052883733,0.15259021896690683,-2.9602502479590385,2.166781109330941
1539131052899719,0.2746623941404778,-2.7771419851987957,1.3733119707026162
1539131052915699,0.2746623941404778,-2.9602502479590385,0.9460593575952316
1539131052931679,-0.03051804379333589,-2.7161058976118966,0.2746623941404778
1539131052947660,-0.45777065690094787,-1.8616006713969,-0.8850232700083325
1539131052963640,-0.8850232700083325,-0.6408789196611906,-1.9226367589837992
1539131052979620,-1.0681315327688026,0.03051804379333589,-2.288853284504512
1539131052995600,-0.8239871824216607,-0.33569848172737693,-2.105745021744042
1539131053011581,-0.15259021896690683,-1.3733119707026162,-1.8005645838102282
1539131053027561,0.6408789196611906,-2.532997634851654,-1.3122758831159445
1539131053043541,1.2512397955290453,-3.2654306858930795,-1.0070954451819034
1539131053059521,1.3122758831159445,-3.0212863355459376,-0.8239871824216607
1539131053075502,0.9460593575952316,-2.105745021744042,-0.8239871824216607
1539131053091482,0.33569848172737693,-1.1291676203554744,-1.1291676203554744
1539131053107462,0.09155413138023505,-0.6408789196611906,-1.0070954451819034
1539131053123442,0.213626306553806,-0.5798428320745188,-0.3967345693140487
1539131053139423,0.3967345693140487,-0.45777065690094787,0.2746623941404778
1539131053155403,0.5188067444876197,-0.15259021896690683,0.8239871824216607
1539131053171383,0.45777065690094787,0.09155413138023505,1.3122758831159445
1539131053187363,0.213626306553806,0.213626306553806,1.739528496223329
1539131053203343,0.213626306553806,0.33569848172737693,1.8005645838102282
1539131053219329,0.5188067444876197,0.3967345693140487,1.4953841458761872
1539131053235310,0.8239871824216607,0.09155413138023505,1.1291676203554744
1539131053251290,0.7019150072480898,-0.15259021896690683,0.7019150072480898
1539131053267270,-0.15259021896690683,0.3967345693140487,-0.2746623941404778
1539131053283250,-1.2512397955290453,1.739528496223329,-1.6784924086366573
1539131053299231,-1.4343480582895154,2.7771419851987957,-2.8381780727854675
1539131053315211,-1.3733119707026162,2.9602502479590385,-3.1433585107195086
1539131053331191,-1.1902037079423735,2.227817196917613,-3.2654306858930795
1539131053347171,-1.0070954451819034,1.1291676203554744,-3.2654306858930795
1539131053363152,-0.2746623941404778,0.15259021896690683,-3.570611123826893
1539131053379132,0.6408789196611906,-0.3967345693140487,-3.997863736934505
1539131053395112,1.0070954451819034,-0.8239871824216607,-4.058899824521177
1539131053411092,0.33569848172737693,-1.0070954451819034,-3.4485389486533222
1539131053427073,-0.6408789196611906,-0.7629510948347615,-3.0212863355459376
1539131053443053,-1.3122758831159445,0.03051804379333589,-2.9602502479590385
1539131053459033,-1.3122758831159445,1.0070954451819034,-3.0823224231326094
1539131053475013,-1.0681315327688026,1.9226367589837992,-3.2043945983061803
1539131053490994,-0.9460593575952316,2.227817196917613,-2.9602502479590385
1539131053506974,-1.1291676203554744,1.8616006713969,-1.8005645838102282
1539131053522954,-1.3733119707026162,1.1902037079423735,-0.2746623941404778
1539131053538910,-1.2512397955290453,0.5188067444876197,0.9460593575952316
1539131053554890,-0.5188067444876197,-0.213626306553806,1.739528496223329
1539131053570870,0.15259021896690683,-1.1902037079423735,2.3498893720911838
1539131053586850,0.33569848172737693,-2.105745021744042,3.3264667734797513
1539131053602831,0.15259021896690683,-2.4719615472647547,3.814755474174035
1539131053618811,-0.213626306553806,-1.9226367589837992,3.570611123826893
1539131053634791,-0.3967345693140487,-0.7629510948347615,2.7771419851987957
1539131053650771,-0.5188067444876197,0.3967345693140487,1.6174563210497581
1539131053666751,-0.8239871824216607,1.8005645838102282,0.33569848172737693
1539131053682732,-1.1902037079423735,3.0823224231326094,-0.7629510948347615
1539131053698712,-1.4953841458761872,3.814755474174035,-1.4953841458761872
1539131053714692,-1.1902037079423735,3.3875028610666504,-1.6174563210497581
1539131053730672,-0.03051804379333589,1.8005645838102282,-1.3122758831159445
1539131053746653,1.4953841458761872,-0.15259021896690683,-1.1291676203554744
1539131053762633,2.288853284504512,-1.5564202334630863,-0.9460593575952316
1539131053778613,1.983672846570471,-2.227817196917613,-1.0681315327688026
1539131053794593,1.4343480582895154,-2.5940337224383256,-1.1902037079423735
1539131053810574,1.3122758831159445,-2.8381780727854675,-1.3122758831159445
1539131053826554,1.0681315327688026,-2.7161058976118966,-1.0070954451819034
1539131053842534,0.3967345693140487,-1.983672846570471,-0.9460593575952316
1539131053858520,-0.09155413138023505,-1.0070954451819034,-1.1902037079423735
1539131053874500,0.213626306553806,-0.213626306553806,-1.4343480582895154
1539131053890481,0.7629510948347615,0.5188067444876197,-1.4343480582895154
1539131053906461,0.3967345693140487,1.5564202334630863,-1.1902037079423735
1539131053922441,-0.9460593575952316,2.7771419851987957,-0.8850232700083325
1539131053938421,-1.9226367589837992,3.5095750362402214,-0.3967345693140487
1539131053954402,-1.739528496223329,3.1433585107195086,0.33569848172737693
1539131053970382,-0.9460593575952316,2.227817196917613,1.3122758831159445
1539131053986362,-0.7019150072480898,1.4343480582895154,2.288853284504512
1539131054002342,-1.1291676203554744,0.8850232700083325,3.2043945983061803
1539131054018323,-1.4953841458761872,0.15259021896690683,4.058899824521177
1539131054034303,-1.3122758831159445,-1.1291676203554744,5.0354772259097444
1539131054050283,-0.8850232700083325,-2.532997634851654,5.706874189364498
1539131054066263,-0.45777065690094787,-3.4485389486533222,5.706874189364498
1539131054082244,-0.45777065690094787,-3.692683299000464,5.157549401083315
1539131054098224,-0.6408789196611906,-3.2654306858930795,4.303044174868319
1539131054114204,-0.8239871824216607,-2.8381780727854675,3.570611123826893
1539131054130184,-0.45777065690094787,-2.7771419851987957,2.532997634851654
1539131054146165,0.15259021896690683,-2.5940337224383256,1.4953841458761872
1539131054162145,0.3967345693140487,-1.739528496223329,-0.15259021896690683
1539131054178131,0.15259021896690683,-0.2746623941404778,-2.166781109330941
1539131054194111,0.33569848172737693,0.7629510948347615,-4.119935912108076
1539131054210091,0.7019150072480898,1.1291676203554744,-5.401693751430457
1539131054226071,1.0681315327688026,1.3122758831159445,-5.95101853971164
1539131054242052,1.0681315327688026,1.4953841458761872,-6.012054627298312
1539131054258032,0.7629510948347615,1.8005645838102282,-5.645838101777599
1539131054274012,0.6408789196611906,1.983672846570471,-5.2185854886702145
1539131054289992,0.9460593575952316,1.739528496223329,-4.60822461280236
1539131054305973,1.6174563210497581,1.1291676203554744,-3.7537193865873633
1539131054321953,1.983672846570471,0.213626306553806,-2.7161058976118966
1539131054337933,1.983672846570471,-0.7629510948347615,-1.6174563210497581
1539131054353913,1.739528496223329,-1.739528496223329,-0.45777065690094787
1539131054369894,1.6784924086366573,-2.288853284504512,0.213626306553806
1539131054385874,1.9226367589837992,-2.410925459678083,0.3967345693140487
1539131054401854,2.227817196917613,-2.288853284504512,0.3967345693140487
1539131054417834,2.166781109330941,-2.105745021744042,0.45777065690094787
1539131054433815,1.8005645838102282,-1.5564202334630863,0.15259021896690683
1539131054449795,1.3122758831159445,-1.0070954451819034,-0.33569848172737693
1539131054465775,0.8239871824216607,-0.5798428320745188,-0.45777065690094787
1539131054481755,0.6408789196611906,-0.213626306553806,-0.5188067444876197
1539131054497711,0.6408789196611906,0.213626306553806,-0.7629510948347615
1539131054513691,0.9460593575952316,0.3967345693140487,-0.8850232700083325
1539131054529671,1.0070954451819034,0.2746623941404778,-0.5188067444876197
1539131054545652,0.9460593575952316,0.03051804379333589,0.03051804379333589
1539131054561632,0.9460593575952316,-0.09155413138023505,0.5798428320745188
1539131054577612,0.7629510948347615,0.03051804379333589,1.1291676203554744
1539131054593592,0.3967345693140487,0.2746623941404778,1.6174563210497581
1539131054609573,0.03051804379333589,0.3967345693140487,1.983672846570471
1539131054625553,0.45777065690094787,0.15259021896690683,2.105745021744042
1539131054641533,1.3122758831159445,-0.3967345693140487,2.288853284504512
1539131054657513,1.739528496223329,-0.6408789196611906,2.3498893720911838
1539131054673493,1.3733119707026162,-0.33569848172737693,1.983672846570471
1539131054689474,0.8850232700083325,0.15259021896690683,1.4343480582895154
1539131054705454,0.7019150072480898,0.45777065690094787,1.0681315327688026
1539131054721434,0.9460593575952316,0.5798428320745188,0.6408789196611906
1539131054737414,1.1902037079423735,0.6408789196611906,0.33569848172737693
1539131054753395,1.1902037079423735,0.5188067444876197,0.5188067444876197
1539131054769375,1.0681315327688026,0.45777065690094787,0.5188067444876197
1539131054785355,0.9460593575952316,0.6408789196611906,0.33569848172737693
1539131054801335,0.8850232700083325,1.1902037079423735,-0.15259021896690683
1539131054817321,0.7629510948347615,1.6174563210497581,-0.45777065690094787
1539131054833302,0.7019150072480898,1.1902037079423735,-0.09155413138023505
1539131054849282,0.8239871824216607,0.15259021896690683,0.3967345693140487
1539131054865262,1.0070954451819034,-0.6408789196611906,0.45777065690094787
1539131054881242,1.1291676203554744,-0.6408789196611906,-0.09155413138023505
1539131054897223,0.8850232700083325,-0.09155413138023505,-0.7019150072480898
1539131054913203,0.6408789196611906,0.33569848172737693,-1.0070954451819034
1539131054929183,0.5798428320745188,0.213626306553806,-1.2512397955290453
1539131054945163,0.7019150072480898,0.03051804379333589,-1.2512397955290453
1539131054961144,0.5798428320745188,0.09155413138023505,-1.0070954451819034
1539131054977124,0.2746623941404778,0.6408789196611906,-0.8239871824216607
1539131054993104,0.03051804379333589,1.1902037079423735,-0.5798428320745188
1539131055009084,0.09155413138023505,1.0681315327688026,-0.09155413138023505
1539131055025065,0.33569848172737693,0.33569848172737693,1.0070954451819034
1539131055041045,0.213626306553806,-0.15259021896690683,2.04470893415737
1539131055057025,-0.15259021896690683,0.15259021896690683,2.4719615472647547
1539131055073005,-0.213626306553806,0.8239871824216607,2.410925459678083
1539131055088986,0.15259021896690683,1.3733119707026162,2.288853284504512
1539131055104966,0.6408789196611906,1.5564202334630863,2.410925459678083
1539131055120946,0.45777065690094787,1.3733119707026162,3.0212863355459376
1539131055136932,-0.15259021896690683,1.3122758831159445,3.5095750362402214
1539131055152912,-0.5798428320745188,1.4953841458761872,3.570611123826893
1539131055168892,-0.45777065690094787,1.4343480582895154,3.2043945983061803
1539131055184873,-0.213626306553806,0.9460593575952316,3.0212863355459376
1539131055200853,-0.03051804379333589,-0.15259021896690683,2.5940337224383256
1539131055216833,0.7019150072480898,-1.4953841458761872,2.3498893720911838
1539131055232813,0.8239871824216607,-1.6784924086366573,2.227817196917613
1539131055248794,0.03051804379333589,-0.9460593575952316,1.4953841458761872
1539131055264774,-0.9460593575952316,-0.33569848172737693,0.5798428320745188
1539131055280754,-0.8239871824216607,-0.7629510948347615,0.15259021896690683
1539131055296734,-0.3967345693140487,-1.5564202334630863,0.03051804379333589
1539131055312715,0.03051804379333589,-1.9226367589837992,-0.213626306553806
1539131055328695,0.03051804379333589,-1.8616006713969,-0.2746623941404778
1539131055344675,-0.45777065690094787,-1.6784924086366573,0.213626306553806
1539131055360655,-1.0681315327688026,-1.4953841458761872,0.5188067444876197
1539131055376636,-1.0681315327688026,-1.1291676203554744,0.5188067444876197
1539131055392616,-0.6408789196611906,-0.7019150072480898,0.5188067444876197
1539131055408596,-0.213626306553806,-0.2746623941404778,0.6408789196611906
1539131055424576,-0.03051804379333589,-0.33569848172737693,1.3122758831159445
1539131055440557,-0.15259021896690683,-0.6408789196611906,2.410925459678083
1539131055456482,-0.33569848172737693,-1.0681315327688026,3.4485389486533222
1539131055472462,-0.45777065690094787,-0.9460593575952316,3.6316472114137923
1539131055488442,-0.03051804379333589,-0.7019150072480898,2.8992141603723667
1539131055504422,0.45777065690094787,-0.7019150072480898,2.288853284504512
1539131055520403,0.7019150072480898,-1.1902037079423735,1.983672846570471
1539131055536383,0.213626306553806,-1.5564202334630863,1.739528496223329
1539131055552363,-0.6408789196611906,-1.739528496223329,1.3733119707026162
1539131055568343,-0.9460593575952316,-1.8005645838102282,0.7019150072480898
1539131055584324,-0.09155413138023505,-1.8005645838102282,-0.3967345693140487
1539131055600304,-2.8992141603723667,-2.105745021744042,0.213626306553806
1539131055616284,-6.683451590753066,-1.0070954451819034,-0.7629510948347615
1539131055632264,-6.073090714885211,-0.213626306553806,-3.2654306858930795
1539131055648244,-1.4343480582895154,1.6174563210497581,-7.904173342488775
1539131055664225,9.369039444571627,2.04470893415737,-11.993591210803288
1539131055680205,19.439993896391115,2.4719615472647547,-15.167467765316132
1539131055696185,18.95170519569683,2.105745021744042,-13.702601663233281
1539131055712165,6.927595941100208,3.4485389486533222,-8.33142595559616
1539131055728146,-5.279621576256886,4.852368963149502,-3.0823224231326094
1539131055744126,-8.45349813076973,4.60822461280236,-0.03051804379333589
1539131055760106,-6.378271152819025,3.875791561760934,1.5564202334630863
1539131055776092,-3.0212863355459376,2.227817196917613,3.0212863355459376
1539131055792072,-1.4953841458761872,1.0681315327688026,4.852368963149502
1539131055808053,-1.1291676203554744,-0.7629510948347615,7.721065079728305
1539131055824033,-2.532997634851654,-3.0823224231326094,11.383230334935433
1539131055840013,-5.706874189364498,-4.852368963149502,14.862287327382319
1539131055855993,-7.782101167315204,-6.378271152819025,17.303730830853738
1539131055871974,-7.232776379034021,-7.660028992141633,18.036163881895163
1539131055887954,-4.9134050507361735,-9.185931181811156,17.36476691844041
1539131055903934,-2.166781109330941,-10.101472495613052,15.716792553597315
1539131055919914,-0.3967345693140487,-10.223544670786623,13.58052948805971
1539131055935895,-0.09155413138023505,-9.85732814526591,11.749446860456146
1539131055951875,-0.5188067444876197,-9.124895094224485,9.979400320439481
1539131055967855,-1.4953841458761872,-8.575570305943302,8.087281605249018
1539131055983835,-2.7161058976118966,-8.209353780422589,6.439307240405924
1539131055999816,-2.532997634851654,-8.026245517662346,4.303044174868319
1539131056015796,-1.1291676203554744,-7.904173342488775,2.166781109330941
1539131056031776,-1.1291676203554744,-6.622415503166167,0.6408789196611906
1539131056047756,-2.532997634851654,-4.058899824521177,-1.0681315327688026
1539131056063737,-3.0212863355459376,-0.7629510948347615,-3.1433585107195086
1539131056079717,-1.983672846570471,2.532997634851654,-5.584802014190927
1539131056095703,-2.04470893415737,4.242008087281647,-6.744487678339738
1539131056111683,-2.105745021744042,5.2185854886702145,-6.9886320286868795
1539131056127663,0.03051804379333589,4.486152437628789,-6.073090714885211
1539131056143643,1.739528496223329,3.2043945983061803,-4.119935912108076
1539131056159624,0.8850232700083325,1.9226367589837992,-1.983672846570471
1539131056175604,0.5188067444876197,1.0070954451819034,-0.3967345693140487
1539131056191584,1.0070954451819034,0.2746623941404778,0.3967345693140487
1539131056207564,1.2512397955290453,0.09155413138023505,1.1291676203554744
1539131056223545,1.2512397955290453,-0.213626306553806,1.8005645838102282
1539131056239525,1.3733119707026162,-0.7019150072480898,2.4719615472647547
1539131056255505,1.0681315327688026,-1.1291676203554744,3.1433585107195086
1539131056271485,0.2746623941404778,-1.3122758831159445,3.7537193865873633
1539131056287466,-0.5798428320745188,-1.6784924086366573,4.180971999694748
1539131056303446,-1.983672846570471,-1.3733119707026162,4.547188525215461
1539131056319426,-1.983672846570471,-1.3122758831159445,4.242008087281647
1539131056335406,-1.4343480582895154,-1.5564202334630863,3.7537193865873633
1539131056351387,-0.3967345693140487,-2.227817196917613,3.7537193865873633
1539131056367367,0.2746623941404778,-2.9602502479590385,3.814755474174035
1539131056383347,0.213626306553806,-3.2654306858930795,3.875791561760934
1539131056399327,-0.33569848172737693,-3.2654306858930795,3.7537193865873633
1539131056415313,-0.9460593575952316,-3.0823224231326094,3.6316472114137923
1539131056431294,-0.9460593575952316,-3.0823224231326094,3.2654306858930795
1539131056447274,-1.1291676203554744,-2.7161058976118966,2.7771419851987957
1539131056463254,-1.8616006713969,-1.4343480582895154,2.7771419851987957
1539131056479234,-2.04470893415737,0.03051804379333589,3.0823224231326094
1539131056495215,-1.9226367589837992,1.739528496223329,3.7537193865873633
1539131056511195,-1.3122758831159445,3.4485389486533222,3.814755474174035
1539131056527175,-0.33569848172737693,4.42511635004189,2.5940337224383256
1539131056543155,0.8850232700083325,3.5095750362402214,1.1291676203554744
1539131056559136,1.8005645838102282,2.04470893415737,0.09155413138023505
1539131056575116,2.7771419851987957,0.5188067444876197,-0.33569848172737693
1539131056591096,2.8381780727854675,-0.2746623941404778,-0.6408789196611906
1539131056607076,1.983672846570471,-0.33569848172737693,-1.0070954451819034
1539131056623057,1.4343480582895154,-0.03051804379333589,-1.5564202334630863
1539131056639037,1.5564202334630863,0.213626306553806,-2.227817196917613
1539131056655017,2.105745021744042,0.15259021896690683,-2.7771419851987957
1539131056670997,2.4719615472647547,0.03051804379333589,-2.9602502479590385
1539131056686977,2.410925459678083,-0.2746623941404778,-2.8992141603723667
1539131056702958,1.983672846570471,-0.7019150072480898,-2.532997634851654
1539131056718938,1.4343480582895154,-1.2512397955290453,-2.105745021744042
1539131056734893,1.0681315327688026,-1.5564202334630863,-1.8616006713969
1539131056750874,0.8239871824216607,-1.6784924086366573,-1.5564202334630863
1539131056766854,0.6408789196611906,-1.739528496223329,-1.3122758831159445
1539131056782834,0.45777065690094787,-1.739528496223329,-0.8850232700083325
1539131056798814,0.45777065690094787,-1.8616006713969,-0.3967345693140487
1539131056814795,0.5798428320745188,-1.983672846570471,-0.09155413138023505
1539131056830775,0.45777065690094787,-2.105745021744042,0.15259021896690683
1539131056846755,0.33569848172737693,-1.983672846570471,0.45777065690094787
1539131056862735,0.15259021896690683,-1.739528496223329,0.8239871824216607
1539131056878716,0.09155413138023505,-1.4953841458761872,1.1291676203554744
1539131056894696,0.213626306553806,-1.0681315327688026,1.2512397955290453
1539131056910676,0.213626306553806,-0.5798428320745188,1.2512397955290453
1539131056926656,0.15259021896690683,-0.03051804379333589,1.2512397955290453
1539131056942637,0.09155413138023505,0.2746623941404778,1.1902037079423735
1539131056958617,0.15259021896690683,0.3967345693140487,1.3122758831159445
1539131056974597,0.09155413138023505,0.3967345693140487,1.2512397955290453
1539131056990577,-0.09155413138023505,0.6408789196611906,1.0681315327688026
1539131057006558,-0.2746623941404778,0.5798428320745188,0.7019150072480898
1539131057022538,-0.15259021896690683,0.15259021896690683,0.6408789196611906
1539131057038518,0.09155413138023505,-0.33569848172737693,0.5188067444876197
1539131057054504,0.33569848172737693,-0.45777065690094787,0.15259021896690683
1539131057070484,0.2746623941404778,-0.15259021896690683,-0.213626306553806
1539131057086465,0.09155413138023505,0.33569848172737693,-0.7019150072480898
1539131057102445,0.03051804379333589,0.6408789196611906,-0.9460593575952316
1539131057118425,0.213626306553806,0.5188067444876197,-0.8239871824216607
1539131057134405,0.2746623941404778,0.09155413138023505,-0.5188067444876197
1539131057150385,0.213626306553806,-0.2746623941404778,-0.15259021896690683
1539131057166366,0.213626306553806,-0.5188067444876197,-0.09155413138023505
1539131057182346,0.5798428320745188,-0.9460593575952316,-0.15259021896690683
1539131057198326,1.1902037079423735,-1.4953841458761872,0.03051804379333589
1539131057214306,1.3122758831159445,-1.8005645838102282,0.5188067444876197
1539131057230287,0.8239871824216607,-1.6174563210497581,1.0070954451819034
1539131057246267,0.33569848172737693,-1.0070954451819034,1.1902037079423735
1539131057262247,0.5188067444876197,-0.6408789196611906,1.1291676203554744
1539131057278227,1.0681315327688026,-0.5798428320745188,1.1902037079423735
1539131057294208,1.4343480582895154,-0.5188067444876197,1.1291676203554744
1539131057310188,1.4953841458761872,-0.45777065690094787,1.0681315327688026
1539131057326168,1.3733119707026162,-0.33569848172737693,1.0070954451819034
1539131057342148,1.1902037079423735,-0.09155413138023505,0.9460593575952316
1539131057358129,1.0070954451819034,0.8850232700083325,0.5188067444876197
1539131057374115,0.8850232700083325,2.227817196917613,-0.3967345693140487
1539131057390095,0.8239871824216607,3.1433585107195086,-1.0070954451819034
1539131057406075,0.7629510948347615,2.8992141603723667,-0.8239871824216607
1539131057422055,0.3967345693140487,1.8005645838102282,-0.15259021896690683
1539131057438036,0.09155413138023505,0.33569848172737693,0.3967345693140487
1539131057454016,0.15259021896690683,-1.0681315327688026,0.5188067444876197
1539131057469996,0.3967345693140487,-2.04470893415737,0.15259021896690683
1539131057485976,0.7019150072480898,-2.655069810025225,-0.15259021896690683
1539131057501957,0.7629510948347615,-3.0823224231326094,-0.213626306553806
1539131057517937,0.2746623941404778,-3.0212863355459376,-0.15259021896690683
1539131057533917,-0.213626306553806,-2.288853284504512,-0.5188067444876197
1539131057549897,-0.09155413138023505,-1.3733119707026162,-1.0681315327688026
1539131057565878,0.3967345693140487,-0.6408789196611906,-1.4953841458761872
1539131057581858,0.2746623941404778,0.03051804379333589,-1.4953841458761872
1539131057597838,-0.6408789196611906,0.8850232700083325,-1.2512397955290453
1539131057613818,-1.3733119707026162,1.6784924086366573,-0.7629510948347615
1539131057629799,-1.1902037079423735,2.04470893415737,-0.15259021896690683
1539131057645779,-0.03051804379333589,1.5564202334630863,0.5188067444876197
1539131057661759,0.8850232700083325,0.45777065690094787,1.5564202334630863
1539131057677739,0.9460593575952316,-0.5188067444876197,2.655069810025225
1539131057693695,0.2746623941404778,-0.8239871824216607,3.2043945983061803
1539131057709675,0.213626306553806,-0.9460593575952316,3.2043945983061803
1539131057725655,0.9460593575952316,-1.1902037079423735,2.8992141603723667
1539131057741635,1.9226367589837992,-1.4953841458761872,2.7161058976118966
1539131057757616,2.166781109330941,-1.8005645838102282,2.8992141603723667
1539131057773596,1.9226367589837992,-1.6784924086366573,2.8992141603723667
1539131057789576,1.9226367589837992,-1.0681315327688026,2.227817196917613
1539131057805556,2.410925459678083,-0.15259021896690683,1.3733119707026162
1539131057821537,2.4719615472647547,0.5188067444876197,0.9460593575952316
1539131057837517,1.8616006713969,0.9460593575952316,0.7019150072480898
1539131057853497,1.0681315327688026,1.3733119707026162,0.5798428320745188
1539131057869477,0.8239871824216607,1.6174563210497581,0.15259021896690683
1539131057885458,1.2512397955290453,1.4343480582895154,-0.3967345693140487
1539131057901438,1.739528496223329,0.8850232700083325,-1.0070954451819034
1539131057917418,1.8616006713969,0.2746623941404778,-1.4343480582895154
1539131057933398,1.8616006713969,-0.15259021896690683,-1.4953841458761872
1539131057949379,1.4953841458761872,-0.45777065690094787,-1.2512397955290453
1539131057965359,1.0681315327688026,-0.45777065690094787,-1.0070954451819034
1539131057981339,0.7629510948347615,-0.5798428320745188,-0.8850232700083325
1539131057997319,1.1291676203554744,-1.1291676203554744,-0.6408789196611906
1539131058013305,1.6784924086366573,-1.9226367589837992,-0.213626306553806
1539131058029286,1.6784924086366573,-2.5940337224383256,0.2746623941404778
1539131058045266,1.2512397955290453,-2.7161058976118966,0.7019150072480898
1539131058061246,1.0070954451819034,-2.166781109330941,0.8239871824216607
1539131058077226,1.0070954451819034,-1.3733119707026162,0.7019150072480898
1539131058093207,1.3122758831159445,-0.8239871824216607,1.0070954451819034
1539131058109187,1.6174563210497581,-1.0070954451819034,1.9226367589837992
1539131058125167,1.8005645838102282,-1.4953841458761872,3.3875028610666504
1539131058141147,1.6174563210497581,-1.8005645838102282,4.60822461280236
1539131058157127,1.0681315327688026,-1.4953841458761872,5.096513313496644
1539131058173108,0.5188067444876197,-1.3122758831159445,5.2185854886702145
1539131058189088,0.213626306553806,-1.6784924086366573,5.462729839017356
1539131058205068,0.09155413138023505,-2.5940337224383256,5.584802014190927
1539131058221048,0.15259021896690683,-3.2654306858930795,5.279621576256886
1539131058237029,-0.33569848172737693,-2.5940337224383256,4.119935912108076
1539131058253009,-0.8239871824216607,-0.7019150072480898,1.6784924086366573
1539131058268989,-1.0681315327688026,0.6408789196611906,-0.33569848172737693
1539131058284969,-0.7629510948347615,0.6408789196611906,-1.5564202334630863
1539131058300950,-0.213626306553806,0.15259021896690683,-2.532997634851654
1539131058316930,0.213626306553806,0.09155413138023505,-3.0823224231326094
1539131058332916,-0.03051804379333589,0.45777065690094787,-3.2043945983061803
1539131058348896,-0.45777065690094787,0.6408789196611906,-2.8992141603723667
1539131058364876,-0.6408789196611906,0.6408789196611906,-2.166781109330941
1539131058380857,-0.3967345693140487,0.3967345693140487,-1.3122758831159445
1539131058396837,-0.09155413138023505,0.09155413138023505,-0.5188067444876197
1539131058412817,0.09155413138023505,-0.213626306553806,0.15259021896690683
1539131058428797,0.213626306553806,-0.7629510948347615,0.6408789196611906
1539131058444778,0.45777065690094787,-1.1291676203554744,1.0681315327688026
1539131058460758,0.3967345693140487,-1.1291676203554744,1.3122758831159445
1539131058476738,0.03051804379333589,-0.5798428320745188,1.1902037079423735
1539131058492718,-0.2746623941404778,0.09155413138023505,0.7629510948347615
1539131058508699,-0.33569848172737693,0.6408789196611906,0.15259021896690683
1539131058524679,-0.3967345693140487,0.7019150072480898,-0.03051804379333589
1539131058540659,-0.33569848172737693,0.5188067444876197,-0.09155413138023505
1539131058556639,-0.15259021896690683,0.33569848172737693,-0.2746623941404778
1539131058572620,0.09155413138023505,-0.03051804379333589,-0.2746623941404778
1539131058588600,0.15259021896690683,-0.5798428320745188,-0.03051804379333589
1539131058604580,-0.15259021896690683,-1.0681315327688026,0.33569848172737693
1539131058620560,-0.3967345693140487,-1.3733119707026162,0.33569848172737693
1539131058636541,-0.33569848172737693,-1.739528496223329,0.09155413138023505
1539131058652496,-19.9282825970854,-13.214312962538997,8.392462043183059
1539131058668476,-6.317235065232353,3.0823224231326094,13.824673838406852
1539131058684456,-32.07446402685605,17.36476691844041,-11.01701380941472
1539131058700437,-10.040436408026153,20.05035477225897,-3.875791561760934
1539131058716417,2.04470893415737,9.124895094224485,-0.7019150072480898
1539131058732397,-5.157549401083315,10.711833371480907,-12.542915999084471
1539131058748377,-20.904859998473967,13.336385137712568,-33.5393301289389
1539131058764358,-36.04180971999699,16.1440451667047,-52.09430075532168
1539131058780338,-40.00915541313816,10.589761196307336,-56.366826886396666
1539131058796318,-31.525139238574866,-6.622415503166167,-49.16456855115598
1539131058812298,-16.754406042572555,-29.571984435797503,-36.957351033798886
1539131058828279,-2.532997634851654,-52.70466163118954,-22.003509575036105
1539131058844259,2.410925459678083,-67.47539482719162,-8.087281605249018
1539131058860239,-0.9460593575952316,-70.5271992065309,-1.3122758831159445
1539131058876219,-5.3406576638437855,-65.76638437476163,-1.5564202334630863
1539131058892200,-5.3406576638437855,-58.13687342641333,-4.791332875562603
1539131058908180,-0.2746623941404778,-49.469748989089794,-6.500343327992596
1539131058924160,6.439307240405924,-39.03257801174959,-6.073090714885211
1539131058940140,11.20012207217519,-26.153963530937517,-3.936827649347606
1539131058956121,12.848096437018285,-11.505302510109004,-1.1291676203554744
1539131058972107,11.932555123216616,3.3875028610666504,1.3733119707026162
1539131058988087,10.833905546654478,16.754406042572555,3.692683299000464
1539131059004067,11.993591210803288,27.313649195086555,5.645838101777599
1539131059020047,15.655756466010416,34.45487144274034,7.721065079728305
1539131059036028,20.23346303501944,38.78843366140222,10.101472495613052
1539131059052008,23.346303501945386,41.7792019531546,13.214312962538997
1539131059067988,24.07873655298681,44.58686198214673,16.510261692225413
1539131059083968,22.8580148012511,47.51659418631243,19.623102159151586
1539131059099949,20.782787823300396,50.14114595254432,22.186617837796575
1539131059115929,18.280308232242305,51.60601205462717,24.689097428854666
1539131059131909,15.472648203250174,52.033264667734784,27.191577019912984
1539131059147889,13.397421225299468,50.263218127717664,29.633020523384403
1539131059163869,12.726024261844714,45.92965590905601,31.52513923857464
1539131059179850,13.58052948805971,39.39879453727008,32.62378881513678
1539131059195830,14.557106889448278,31.89135576409535,32.684824902723676
1539131059211810,15.533684290836845,23.590447852292527,31.76928358892178
1539131059227790,14.98435950255589,15.777828641183987,30.182345311665358
1539131059243771,12.909132524605184,9.002822919050914,28.04608224612798
1539131059259751,9.85732814526591,3.570611123826893,24.994277866788707
1539131059275731,6.439307240405924,-0.3967345693140487,20.721751735713724
1539131059291717,3.1433585107195086,-3.6316472114137923,15.350576028076603
