Timestamp (microseconds),Accel X (g),Accel Y (g),Accel Z (g)
1539131774173889,-0.05365072098878443,0.7757076371404592,-0.6380102235446707
1539131774189890,-0.05633630884260299,0.7727779049362935,-0.6339818417639429
1539131774205890,-0.05242999923704872,0.7697261005569542,-0.6337376974135958
1539131774221891,-0.05218585488670158,0.7708247501335164,-0.6337376974135958
1539131774237892,-0.05816739147020655,0.7730220492866406,-0.6317845426108186
1539131774253893,-0.06805523765926624,0.7716792553597314,-0.6276340886549172
1539131774269893,-0.07342641336690336,0.7728999771114671,-0.6314183260852979
1539131774285894,-0.0736705577172505,0.7781490806439306,-0.6311741817349508
1539131774301895,-0.0707408255130848,0.7813229571984435,-0.638498512245365
1539131774317896,-0.0631723506523234,0.7853513389791713,-0.6477759975585564
1539131774333896,-0.05938811322194226,0.7838864728770885,-0.6535133897917142
1539131774349897,-0.05804531929503298,0.783154039826047,-0.655588616769665
1539131774365898,-0.060852979324025114,0.7794918745708399,-0.6485084306095978
1539131774381899,-0.06268406195162912,0.7781490806439306,-0.643625543602655
1539131774397899,-0.05230792706187515,0.7742427710383764,-0.6421606775005722
1539131774413900,-0.05169756618600729,0.7722896162355992,-0.63422598611429
1539131774429901,-0.04974441138323016,0.7676508735790035,-0.6270237277790494
1539131774445901,-0.05035477225909801,0.7653315022507057,-0.6223849851224537
1539131774461902,-0.054505226214999425,0.7660639353017471,-0.6165255207141223
1539131774477903,-0.06439307240405912,0.7616693369954985,-0.6164034485389487
1539131774493896,-0.06744487678339839,0.766674296177615,-0.6193331807431144
1539131774509897,-0.06561379415579482,0.7715571831845578,-0.6196993972686351
1539131774525898,-0.06524757763027411,0.7772945754177156,-0.6280003051804379
1539131774541898,-0.056946669718470844,0.7881589990081634,-0.6492408636606393
1539131774557899,-0.059876401922636546,0.7860837720302127,-0.6590066376745249
1539131774573900,-0.06207370107576082,0.789990081635767,-0.6637674525062942
1539131774589901,-0.06536964980544768,0.7902342259861141,-0.6630350194552528
1539131774605901,-0.0648813611047534,0.789135576409552,-0.6580300602731364
1539131774621902,-0.05999847409781012,0.7820553902494849,-0.6502174410620278
1539131774637903,-0.051941710536354435,0.7776607919432363,-0.6327611200122072
1539131774653904,-0.03961242084382377,0.7754634927901121,-0.6222629129472801
1539131774669904,-0.03997863736934448,0.7678950179293507,-0.6162813763637751
1539131774685905,-0.04217593652246876,0.7659418631265735,-0.6133516441596094
1539131774701906,-0.04498359655146089,0.7680170901045242,-0.6162813763637751
1539131774717907,-0.05511558709086728,0.768383306630045,-0.6242160677500572
1539131774733907,-0.061097123674372256,0.7768062867170213,-0.6315403982604715
1539131774749908,-0.06256198977645555,0.7785152971694513,-0.6397192339971007
1539131774765909,-0.0575570305943387,0.782299534599832,-0.6449683375295643
1539131774781910,-0.05548180361638799,0.7829098954756999,-0.6482642862592507
1539131774797910,-0.04864576180666802,0.7866941329060806,-0.6454566262302586
1539131774813934,-0.05035477225909801,0.7849851224536506,-0.6432593270771343
1539131774829935,-0.05145342183566015,0.7880369268329899,-0.645334554055085
1539131774845935,-0.05865568017090084,0.7816891737239642,-0.6460669871061264
1539131774861936,-0.06036469062333083,0.7786373693446249,-0.6403295948729686
1539131774877937,-0.059754329747462975,0.7735103379873349,-0.6311741817349508
1539131774893938,-0.06024261844815726,0.7711909666590371,-0.6222629129472801
1539131774909938,-0.0575570305943387,0.7677729457541771,-0.6207980468451972
1539131774925939,-0.0567025253681237,0.7645990691996642,-0.6242160677500572
1539131774941940,-0.053162432288090145,0.7738765545128556,-0.6237277790493629
1539131774957941,-0.05352864881361086,0.7763179980163271,-0.6317845426108186
1539131774973941,-0.06060883497367797,0.7798580910963606,-0.6387426565957122
1539131774989942,-0.06634622720683625,0.7835202563515677,-0.6430151827267871
1539131775005943,-0.06659037155718339,0.7887693598840313,-0.6461890592813
1539131775021944,-0.06060883497367797,0.7909666590371556,-0.6503395132372014
1539131775037944,-0.06146334019989297,0.7862058442053863,-0.6522926680399785
1539131775053945,-0.055848020141908705,0.7884031433585106,-0.6463111314564736
1539131775069946,-0.05169756618600729,0.7849851224536506,-0.6409399557488364
1539131775085947,-0.05108720531013944,0.7766842145418478,-0.6365453574425879
1539131775101947,-0.050598916609445155,0.7699702449073014,-0.6295872434576943
1539131775117948,-0.05145342183566015,0.7672846570534828,-0.6232394903486687
1539131775134002,-0.05133134966048658,0.76411078049897,-0.6161593041886015
1539131775150004,-0.04888990615701516,0.7656977187762264,-0.6195773250934615
1539131775166005,-0.04779125658045302,0.7658197909514,-0.6217746242465858
1539131775182006,-0.04583810177767589,0.7703364614328221,-0.6261692225528344
1539131775198007,-0.045349813076981604,0.7754634927901121,-0.6337376974135958
1539131775214008,-0.04840161745632088,0.7803463797970549,-0.6422827496757457
1539131775230010,-0.05133134966048658,0.7844968337529563,-0.6455786984054321
1539131775246011,-0.0462043183031966,0.7886472877088577,-0.6463111314564736
1539131775262012,-0.04449530785076661,0.7884031433585106,-0.6471656366826886
1539131775278013,-0.04376287479972518,0.7868162050812542,-0.6503395132372014
1539131775294015,-0.045593957427328746,0.7851071946288242,-0.64789806973373
1539131775310016,-0.05218585488670158,0.7844968337529563,-0.6369115739681086
1539131775326017,-0.05780117494468584,0.7791256580453192,-0.6356908522163729
1539131775342018,-0.05511558709086728,0.7779049362935835,-0.6366674296177615
1539131775358019,-0.05218585488670158,0.7777828641184099,-0.6394750896467536
1539131775374021,-0.05242999923704872,0.7747310597390706,-0.6347142748149843
1539131775390022,-0.054383154039825854,0.7689936675059128,-0.6289768825818265
1539131775406023,-0.062195773250934394,0.7685053788052185,-0.6200656137941558
1539131775422024,-0.06634622720683625,0.7658197909514,-0.6227512016479744
1539131775438026,-0.06414892805371197,0.7656977187762264,-0.6232394903486687
1539131775454101,-0.05780117494468584,0.7696040283817807,-0.6236057068741894
1539131775470103,-0.050476844434271584,0.7746089875638971,-0.6250705729762722
1539131775486105,-0.05133134966048658,0.7776607919432363,-0.6321507591363393
1539131775502106,-0.054627298390172996,0.7827878233005263,-0.6403295948729686
1539131775518108,-0.054627298390172996,0.7854734111543449,-0.64789806973373
1539131775534110,-0.04986648355840373,0.789135576409552,-0.650461585412375
1539131775550111,-0.0462043183031966,0.7896238651102463,-0.6516823071641107
1539131775566113,-0.03839169909208806,0.7890135042343784,-0.6522926680399785
1539131775582115,-0.03424124513618665,0.7897459372854199,-0.6482642862592507
1539131775598116,-0.033630884260318794,0.7853513389791713,-0.6397192339971007
1539131775614118,-0.037781338216220206,0.7809567406729228,-0.6330052643625543
1539131775630120,-0.03936827649347663,0.7758297093156328,-0.6255588616769665
1539131775646122,-0.04376287479972518,0.7711909666590371,-0.6225070572976272
1539131775662123,-0.04901197833218873,0.7700923170824749,-0.6225070572976272
1539131775678125,-0.05255207141222229,0.7661860074769207,-0.622018768596933
1539131775694127,-0.05145342183566015,0.7678950179293507,-0.6229953459983215
1539131775710128,-0.053162432288090145,0.7718013275349049,-0.6286106660563058
1539131775726130,-0.052918287937743,0.7777828641184099,-0.6352025635156786
1539131775742132,-0.05645838101777656,0.7791256580453192,-0.6422827496757457
1539131775758134,-0.05926604104676869,0.7849851224536506,-0.6424048218509193
1539131775774200,-0.05767910276951227,0.7859616998550392,-0.6392309452964064
1539131775790202,-0.05352864881361086,0.7846189059281299,-0.6405737392233157
1539131775806203,-0.0508430609597923,0.7847409781033035,-0.64106202792401
1539131775822205,-0.05523765926604085,0.7758297093156328,-0.6386205844205386
1539131775838207,-0.058289463645380124,0.7771725032425421,-0.63593499656672
1539131775854209,-0.057312886243991557,0.7725337605859464,-0.6275120164797436
1539131775870210,-0.05804531929503298,0.7710688944838635,-0.6272678721293965
1539131775886212,-0.053040360112916574,0.7766842145418478,-0.6245822842755779
1539131775902214,-0.052063782711528006,0.7777828641184099,-0.6295872434576943
1539131775918215,-0.04986648355840373,0.7832761120012206,-0.6364232852674143
1539131775934217,-0.04840161745632088,0.7846189059281299,-0.6438696879530021
1539131775950219,-0.049500267032883016,0.7846189059281299,-0.6466773479819943
1539131775966220,-0.04840161745632088,0.7802243076218813,-0.6452124818799114
1539131775982222,-0.04449530785076661,0.7787594415197985,-0.6439917601281757
1539131775998224,-0.04193179217212162,0.7748531319142442,-0.6389868009460593
1539131776014226,-0.03582818341344307,0.7736324101625085,-0.6349584191653315
1539131776030227,-0.03729304951552592,0.7763179980163271,-0.6288548104066529
1539131776046229,-0.0386358434424352,0.7744869153887235,-0.6237277790493629
1539131776062231,-0.04193179217212162,0.7735103379873349,-0.6226291294728008
1539131776078232,-0.046692607003890885,0.7716792553597314,-0.6234836346990158
1539131776094299,-0.0462043183031966,0.7776607919432363,-0.63080796520943
1539131776110301,-0.049134050507362304,0.7799801632715342,-0.6360570687418936
1539131776126303,-0.05096513313496587,0.7820553902494849,-0.6397192339971007
1539131776142305,-0.05365072098878443,0.7853513389791713,-0.6424048218509193
1539131776158308,-0.053284504463263715,0.7855954833295185,-0.6421606775005722
1539131776174310,-0.054627298390172996,0.7859616998550392,-0.6399633783474479
1539131776190312,-0.05157549401083372,0.7826657511253527,-0.6415503166247043
1539131776206314,-0.049256122682535874,0.7803463797970549,-0.6408178835736629
1539131776222316,-0.049134050507362304,0.7785152971694513,-0.635080491340505
1539131776238319,-0.04876783398184159,0.7758297093156328,-0.6301976043335622
1539131776254321,-0.053772793163958,0.7693598840314335,-0.6265354390783551
1539131776270323,-0.05426108186465228,0.7713130388342107,-0.6231174181734951
1539131776286325,-0.053040360112916574,0.7655756466010528,-0.6236057068741894
1539131776302327,-0.04742504005493231,0.7697261005569542,-0.6261692225528344
1539131776318329,-0.040222781719691625,0.7746089875638971,-0.6305638208590829
1539131776334332,-0.04119935912108019,0.7775387197680628,-0.6373998626688029
1539131776350334,-0.0394903486686502,0.7818112458991378,-0.6391088731212329
1539131776366336,-0.04107728694590662,0.7837644007019149,-0.6405737392233157
1539131776382338,-0.04205386434729519,0.7829098954756999,-0.6405737392233157
1539131776398340,-0.04473945220111375,0.779736018921187,-0.6361791409170672
1539131776414398,-0.04083314259555948,0.783154039826047,-0.6290989547570001
1539131776430400,-0.042786297398336615,0.7785152971694513,-0.6300755321583886
1539131776446402,-0.04571602960250232,0.7782711528191042,-0.6299534599832151
1539131776462404,-0.049500267032883016,0.781445029373617,-0.6323949034866865
1539131776478407,-0.054383154039825854,0.7785152971694513,-0.636789501792935
1539131776494409,-0.05401693751430514,0.7818112458991378,-0.6387426565957122
1539131776510411,-0.051819638361180864,0.7871824216067749,-0.6332494087129015
1539131776526413,-0.05645838101777656,0.7866941329060806,-0.6300755321583886
1539131776542415,-0.06768902113374553,0.7813229571984435,-0.6352025635156786
1539131776558417,-0.07000839246204338,0.7802243076218813,-0.6365453574425879
1539131776574420,-0.07440299076829193,0.7779049362935835,-0.6375219348439765
1539131776590422,-0.06707866025787768,0.7796139467460135,-0.6358129243915465
1539131776606424,-0.05816739147020655,0.7794918745708399,-0.6353246356908522
1539131776622426,-0.05133134966048658,0.778881513694972,-0.631662470435645
1539131776638428,-0.049256122682535874,0.7754634927901121,-0.6287327382314793
1539131776654430,-0.04119935912108019,0.7737544823376821,-0.6283665217059586
1539131776670433,-0.025940337224383825,0.7771725032425421,-0.6314183260852979
1539131776686435,-0.024963759822995257,0.7794918745708399,-0.6292210269321736
1539131776702437,-0.02935835812924381,0.7835202563515677,-0.6276340886549172
1539131776718439,-0.0365606164644845,0.7870603494316013,-0.6301976043335622
1539131776734527,-0.044129091325245895,0.791699092088197,-0.6338597695887693
1539131776750530,-0.05108720531013944,0.7907225146868084,-0.6449683375295643
1539131776766533,-0.053162432288090145,0.7877927824826427,-0.6510719462882428
1539131776782535,-0.053040360112916574,0.7875486381322956,-0.6503395132372014
1539131776798538,-0.050598916609445155,0.7846189059281299,-0.6488746471351186
1539131776814540,-0.05242999923704872,0.7827878233005263,-0.6438696879530021
1539131776830543,-0.057190814068817986,0.7761959258411535,-0.6355687800411993
1539131776846546,-0.05865568017090084,0.7768062867170213,-0.6311741817349508
1539131776862548,-0.053406576638437286,0.7765621423666742,-0.6222629129472801
1539131776878551,-0.05474937056534657,0.7753414206149385,-0.6178683146410315
1539131776894554,-0.05242999923704872,0.76923781185626,-0.6172579537651637
1539131776910556,-0.050720988784618726,0.7672846570534828,-0.618600747692073
1539131776926559,-0.045471885252155175,0.7671625848783092,-0.6162813763637751
1539131776942562,-0.04217593652246876,0.7681391622796978,-0.6171358815899901
1539131776958564,-0.03985656519417091,0.7790035858701456,-0.6221408407721065
1539131776974567,-0.03961242084382377,0.7836423285267413,-0.6323949034866865
1539131776990570,-0.04058899824521234,0.793408102540627,-0.6416723887998779
1539131777006572,-0.03167772945754166,0.8076905470359348,-0.6594949263752192
1539131777022575,-0.03814755474174092,0.8081788357366291,-0.6731670099946592
1539131777038578,-0.0462043183031966,0.8108644235904476,-0.6776836804760813
1539131777054596,-0.05011062790875087,0.8040283817807277,-0.6676737621118485
1539131777070598,-0.04486152437628732,0.7943846799420156,-0.6460669871061264
1539131777086601,-0.030945296406500233,0.7815671015487906,-0.6259250782024872
1539131777102604,-0.02935835812924381,0.7593499656672007,-0.6170138094148165
1539131777118606,-0.02276646066987098,0.7488517586022736,-0.6033417257953766
1539131777134609,-0.020813305867093845,0.742748149843595,-0.5928435187304495
1539131777150612,-0.012512397955291021,0.746166170748455,-0.5923552300297552
1539131777166614,-0.007629510948348184,0.7519035629816129,-0.6055390249485009
1539131777182617,-0.010559243152513886,0.7541008621347371,-0.6207980468451972
1539131777198619,-0.024475471122300974,0.7642328526741435,-0.6306858930342565
1539131777214622,-0.03839169909208806,0.7705806057831692,-0.6366674296177615
1539131777230625,-0.049378194857709445,0.781445029373617,-0.6388647287708857
1539131777246627,-0.054383154039825854,0.7941405355916684,-0.6443579766536964
1539131777262630,-0.054505226214999425,0.8024414435034712,-0.6508278019378957
1539131777278633,-0.057190814068817986,0.8084229800869762,-0.6551003280689707
1539131777294635,-0.05865568017090084,0.8034180209048598,-0.6552224002441442
1539131777310638,-0.057190814068817986,0.799389639124132,-0.6531471732661935
1539131777326641,-0.059876401922636546,0.7913328755626763,-0.6488746471351186
1539131777342643,-0.059876401922636546,0.7854734111543449,-0.6458228427557793
1539131777358646,-0.054505226214999425,0.7766842145418478,-0.6394750896467536
1539131777374694,-0.03558403906309593,0.7726558327611199,-0.631662470435645
1539131777390697,-0.01995880064087885,0.7551995117112993,-0.6301976043335622
1539131777406700,0.0025024795910582043,0.759838254367895,-0.620309758144503
1539131777422702,0.006530861371786045,0.7687495231555657,-0.6145723659113451
1539131777438705,-0.009216449225604606,0.7724116884107728,-0.6157930876630808
1539131777454708,-0.02252231631952384,0.7844968337529563,-0.6165255207141223
1539131777470710,-0.029724574654764524,0.7879148546578163,-0.6366674296177615
1539131777486713,-0.02398718242160669,0.800244144350347,-0.6566872663462271
1539131777502716,-0.0319218738078888,0.8106202792401005,-0.6724345769436177
1539131777518718,-0.0462043183031966,0.8139162279697869,-0.6718242160677499
1539131777534721,-0.07440299076829193,0.8021972991531241,-0.6684061951628899
1539131777550724,-0.09308003356984829,0.7876707103074692,-0.6637674525062942
1539131777566726,-0.09381246662088971,0.7772945754177156,-0.6519264515144578
1539131777582729,-0.08429083695735118,0.7681391622796978,-0.6341039139391165
1539131777598732,-0.07562371252002764,0.756420233463035,-0.6165255207141223
1539131777614734,-0.05743495841916513,0.7537346456092164,-0.6073701075761044
1539131777630737,-0.027038986800945963,0.7582513160906386,-0.6094453345540551
1539131777646740,-0.009948882276646032,0.7454337376974136,-0.6140840772106508
1539131777662742,0.005065995269703194,0.7383535515373465,-0.6217746242465858
1539131777678745,0.017639429312581,0.7531242847333486,-0.6204318303196765
1539131777694793,-0.002746623941405346,0.7605706874189364,-0.6170138094148165
1539131777710796,-0.045349813076981604,0.7576409552147707,-0.6135957885099566
1539131777726800,-0.0736705577172505,0.76923781185626,-0.6164034485389487
1539131777742803,-0.08099488822766476,0.7750972762645914,-0.6355687800411993
1539131777758806,-0.0993057145037004,0.7880369268329899,-0.6531471732661935
1539131777774809,-0.12555123216601816,0.7909666590371556,-0.6605935759517814
1539131777790812,-0.12164492256046389,0.803662165255207,-0.6675516899366749
1539131777806815,-0.11639581902800034,0.7964599069199663,-0.6738994430457006
1539131777822818,-0.091737239642939,0.8031738765545127,-0.6735332265201799
1539131777838822,-0.08233768215457404,0.7847409781033035,-0.6641336690318149
1539131777854825,-0.06610208285648911,0.781445029373617,-0.6460669871061264
1539131777870828,-0.07110704203860552,0.7603265430685893,-0.6299534599832151
1539131777886831,-0.057068741893644415,0.7475089646753643,-0.617746242465858
1539131777902834,-0.04596017395284946,0.7368886854352636,-0.6101777676050966
1539131777918837,-0.014587624933241727,0.7423819333180743,-0.6133516441596094
1539131777934840,-0.007995727473868897,0.7383535515373465,-0.6198214694438087
1539131777950843,-0.001037613488975353,0.746166170748455,-0.6262912947280079
1539131777966847,-0.0061646448462653325,0.759838254367895,-0.6282444495307851
1539131777982850,-0.013855191882200302,0.7771725032425421,-0.6394750896467536
1539131777998853,-0.028259708552681673,0.7909666590371556,-0.6370336461432822
1539131778014892,-0.04071107042038591,0.8106202792401005,-0.6371557183184557
1539131778030895,-0.04852368963149445,0.8113527122911419,-0.6505836575875485
1539131778046898,-0.058289463645380124,0.8089112687876705,-0.669504844739452
1539131778062902,-0.07647821774624264,0.8032959487296862,-0.672068360418097
1539131778078905,-0.0820935378042269,0.7909666590371556,-0.6655985351338978
1539131778094908,-0.0820935378042269,0.783154039826047,-0.6601052872510871
1539131778110911,-0.08465705348287189,0.7705806057831692,-0.6452124818799114
1539131778126914,-0.08392462043183047,0.7609369039444571,-0.6258030060273136
1539131778142917,-0.08026245517662334,0.759838254367895,-0.6095674067292287
1539131778158920,-0.07342641336690336,0.7528801403830014,-0.6089570458533609
1539131778174924,-0.06182955672541368,0.7506828412298772,-0.617746242465858
1539131778190927,-0.055725947966735134,0.7578850995651178,-0.6278782330052644
1539131778206930,-0.06012054627298369,0.7743648432135499,-0.6271457999542229
1539131778222933,-0.08099488822766476,0.7853513389791713,-0.63764400701915
1539131778238936,-0.10125886930647754,0.7898680094605934,-0.6525368123903257
1539131778254939,-0.10882734416723894,0.800244144350347,-0.6648661020828563
1539131778270942,-0.10748455024032966,0.8081788357366291,-0.6697489890897992
1539131778286945,-0.10052643625543611,0.7963378347447927,-0.6736552986953535
1539131778302949,-0.08160524910353262,0.7926756694895856,-0.667795834287022
1539131778318952,-0.049256122682535874,0.7807125963225756,-0.6603494316014342
1539131778334991,-0.024597543297474544,0.7738765545128556,-0.6461890592813
1539131778350994,-0.011169604028381741,0.7696040283817807,-0.6265354390783551
1539131778366997,-0.017273212787060288,0.7600823987182421,-0.6112764171816587
1539131778383000,-0.03057907988097952,0.7542229343099107,-0.6061493858243687
1539131778399004,-0.028137636377508102,0.7527580682078279,-0.6150606546120394
1539131778415007,-0.025696192874036683,0.7578850995651178,-0.6303196765087358
1539131778431010,-0.03533989471274879,0.7582513160906386,-0.6421606775005722
1539131778447013,-0.04644846265354374,0.768383306630045,-0.6467994201571678
1539131778463016,-0.05633630884260299,0.7755855649652856,-0.6447241931792171
1539131778479019,-0.06292820630197626,0.7763179980163271,-0.6463111314564736
1539131778495022,-0.060852979324025114,0.7799801632715342,-0.6486305027847714
1539131778511026,-0.05804531929503298,0.7832761120012206,-0.6447241931792171
1539131778527029,-0.053284504463263715,0.780590524147402,-0.6435034714274814
1539131778543032,-0.046570534828717314,0.7824216067750056,-0.6439917601281757
1539131778559035,-0.04449530785076661,0.7812008850232699,-0.64277103837644
1539131778575038,-0.05365072098878443,0.7758297093156328,-0.6458228427557793
1539131778591041,-0.06427100022888554,0.7667963683527885,-0.6460669871061264
1539131778607044,-0.07269398031586194,0.7613031204699778,-0.6458228427557793
1539131778623047,-0.057068741893644415,0.7643549248493171,-0.647043564507515
1539131778639051,-0.053284504463263715,0.7628900587472343,-0.6438696879530021
1539131778655090,-0.05523765926604085,0.7655756466010528,-0.6397192339971007
1539131778671094,-0.06463721675440626,0.7614251926451514,-0.6365453574425879
1539131778687097,-0.0613412680247194,0.7658197909514,-0.6372777904936293
1539131778703101,-0.05767910276951227,0.7667963683527885,-0.63764400701915
1539131778719104,-0.05023270008392444,0.7667963683527885,-0.6389868009460593
1539131778735108,-0.0365606164644845,0.7728999771114671,-0.6391088731212329
1539131778751112,-0.040100709544518054,0.7758297093156328,-0.6383764400701915
1539131778767115,-0.03924620431830306,0.7715571831845578,-0.6449683375295643
1539131778783119,-0.03936827649347663,0.7727779049362935,-0.6474097810330357
1539131778799122,-0.038879987792782345,0.7678950179293507,-0.6485084306095978
1539131778815126,-0.032532234683756656,0.7678950179293507,-0.6494850080109864
1539131778831130,-0.03045700770580595,0.7698481727321278,-0.6443579766536964
1539131778847133,-0.040222781719691625,0.7645990691996642,-0.6378881513694972
1539131778863137,-0.036316472114137355,0.7588616769665064,-0.6315403982604715
1539131778879140,-0.02923628595407024,0.7642328526741435,-0.6323949034866865
1539131778895144,-0.013000686655985305,0.7656977187762264,-0.6352025635156786
1539131778911148,-0.01605249103532458,0.7631342030975814,-0.6370336461432822
1539131778927151,-0.018371862363622427,0.7678950179293507,-0.6387426565957122
1539131778943155,-0.03216601815823594,0.7742427710383764,-0.6422827496757457
1539131778959159,-0.04364080262455161,0.7783932249942778,-0.6502174410620278
1539131778975189,-0.05242999923704872,0.7830319676508735,-0.6563210498207064
1539131778991192,-0.05865568017090084,0.790844586861982,-0.6666971847104599
1539131779007196,-0.06903181506065481,0.7935301747158006,-0.6725566491187913
1539131779023200,-0.08014038300144977,0.7930418860151063,-0.6742656595712213
1539131779039203,-0.07855344472419334,0.7901121538109406,-0.6691386282139313
1539131779055207,-0.07220569161516766,0.7854734111543449,-0.6629129472800792
1539131779071210,-0.07647821774624264,0.7720454718852521,-0.6438696879530021
1539131779087214,-0.07708857862211049,0.7625238422217135,-0.6248264286259251
1539131779103218,-0.059754329747462975,0.7506828412298772,-0.6088349736781873
1539131779119221,-0.04864576180666802,0.7438467994201572,-0.6002899214160373
1539131779135225,-0.040344853894865196,0.7376211184863051,-0.6065156023498894
1539131779151229,-0.025818265049210254,0.7354238193331808,-0.6192111085679408
1539131779167232,-0.017151140611886717,0.746166170748455,-0.6255588616769665
1539131779183236,-0.01483176928358887,0.7519035629816129,-0.6349584191653315
1539131779199239,-0.02423132677195383,0.7599603265430686,-0.6492408636606393
1539131779215243,-0.03265430685893023,0.7638666361486228,-0.6549782558937971
1539131779231247,-0.04644846265354374,0.7735103379873349,-0.6505836575875485
1539131779247250,-0.04888990615701516,0.7791256580453192,-0.647043564507515
1539131779263254,-0.05255207141222229,0.780590524147402,-0.6522926680399785
1539131779279257,-0.04596017395284946,0.7819333180743113,-0.6455786984054321
1539131779295288,-0.04766918440527945,0.7821774624246585,-0.6411841000991836
1539131779311291,-0.05157549401083372,0.7763179980163271,-0.645334554055085
1539131779327295,-0.05426108186465228,0.7669184405279621,-0.6457007705806057
1539131779343299,-0.06036469062333083,0.7639887083237964,-0.6414282444495307
1539131779359302,-0.061097123674372256,0.7602044708934157,-0.6319066147859922
1539131779375306,-0.0686655985351341,0.7605706874189364,-0.6221408407721065
1539131779391309,-0.06829938200961339,0.7686274509803921,-0.6190890363927672
1539131779407313,-0.07098496986343195,0.7703364614328221,-0.6159151598382544
1539131779423317,-0.07794308384832549,0.7707026779583428,-0.616891737239643
1539131779439320,-0.07147325856412623,0.7763179980163271,-0.6282444495307851
1539131779455324,-0.06903181506065481,0.7843747615777827,-0.6394750896467536
1539131779471327,-0.0733043411917298,0.7869382772564277,-0.6507057297627221
1539131779487331,-0.08807507438773188,0.788281071183337,-0.6568093385214007
1539131779503335,-0.09088273441672401,0.800244144350347,-0.6497291523613336
1539131779519338,-0.0669565880827041,0.8058594644083312,-0.6542458228427557
1539131779535342,-0.05548180361638799,0.8068360418097198,-0.6652323186083771
1539131779551345,-0.04644846265354374,0.8032959487296862,-0.6657206073090713
1539131779567349,-0.050598916609445155,0.7887693598840313,-0.6585183489738307
1539131779583353,-0.056946669718470844,0.7835202563515677,-0.6454566262302586
1539131779599356,-0.06146334019989297,0.7726558327611199,-0.6328831921873808
1539131779615387,-0.06366063935301769,0.7659418631265735,-0.6240939955748837
1539131779631390,-0.06610208285648911,0.7628900587472343,-0.611764705882353
1539131779647394,-0.06439307240405912,0.7534905012588693,-0.6041962310215916
1539131779663397,-0.057312886243991557,0.75556572823682,-0.5957732509346152
1539131779679401,-0.05877775234607441,0.7583733882658121,-0.5983367666132602
1539131779695405,-0.060852979324025114,0.764965285725185,-0.6082246128023194
1539131779711408,-0.0669565880827041,0.7728999771114671,-0.6195773250934615
1539131779727412,-0.06744487678339839,0.786572060730907,-0.6311741817349508
1539131779743415,-0.06659037155718339,0.7936522468909741,-0.6455786984054321
1539131779759419,-0.06829938200961339,0.8009765774013884,-0.6569314106965742
1539131779775423,-0.06793316548409267,0.8017090104524298,-0.6610818646524756
1539131779791426,-0.0707408255130848,0.7984130617227434,-0.6575417715724421
1539131779807430,-0.061097123674372256,0.7914549477378499,-0.6443579766536964
1539131779823434,-0.05523765926604085,0.7854734111543449,-0.6354467078660258
1539131779839437,-0.0575570305943387,0.7739986266880292,-0.6245822842755779
1539131779855441,-0.06207370107576082,0.7733882658121614,-0.6135957885099566
1539131779871444,-0.06707866025787768,0.7725337605859464,-0.6094453345540551
1539131779887448,-0.06890974288548124,0.7763179980163271,-0.605783169298848
1539131779903452,-0.07049668116273766,0.781445029373617,-0.606637674525063
1539131779919455,-0.07904173342488763,0.7763179980163271,-0.6172579537651637
1539131779935485,-0.09796292057679112,0.7768062867170213,-0.6237277790493629
1539131779951489,-0.09954985885404755,0.782299534599832,-0.6266575112535286
1539131779967493,-0.10052643625543611,0.7812008850232699,-0.6260471503776608
1539131779983496,-0.11566338597695891,0.7787594415197985,-0.6283665217059586
1539131779999500,-0.11102464332036321,0.7776607919432363,-0.6323949034866865
1539131780015504,-0.09466697184710471,0.7853513389791713,-0.6337376974135958
1539131780031507,-0.09356832227054257,0.7864499885557334,-0.6244602121004044
1539131780047511,-0.09662012664988184,0.7886472877088577,-0.6161593041886015
1539131780063514,-0.09137102311741829,0.7888914320592049,-0.6207980468451972
1539131780079518,-0.08453498130769832,0.7896238651102463,-0.6221408407721065
1539131780095522,-0.07562371252002764,0.7864499885557334,-0.6244602121004044
1539131780111525,-0.06524757763027411,0.7880369268329899,-0.6190890363927672
1539131780127529,-0.04962233920805659,0.7909666590371556,-0.6207980468451972
1539131780143532,-0.04193179217212162,0.7930418860151063,-0.6229953459983215
1539131780159536,-0.037659266041046635,0.7958495460440984,-0.6247043564507515
1539131780175540,-0.04058899824521234,0.7964599069199663,-0.6242160677500572
1539131780191543,-0.04119935912108019,0.7974364843213548,-0.6265354390783551
1539131780207547,-0.05816739147020655,0.7903562981612877,-0.6305638208590829
1539131780223550,-0.07647821774624264,0.7881589990081634,-0.6187228198672465
1539131780239554,-0.09832913710231184,0.7863279163805599,-0.6133516441596094
1539131780255584,-0.11383230334935535,0.779736018921187,-0.6095674067292287
1539131780271588,-0.1266498817425803,0.7724116884107728,-0.6120088502327001
1539131780287593,-0.12298771648737317,0.7759517814908063,-0.6106660563057908
1539131780303597,-0.12066834515907532,0.7796139467460135,-0.6033417257953766
1539131780319601,-0.10821698329137108,0.7830319676508735,-0.6024872205691616
1539131780335605,-0.09649805447470827,0.7904783703364613,-0.6093232623788816
1539131780351609,-0.0955214770733197,0.7919432364385441,-0.6221408407721065
1539131780367613,-0.09381246662088971,0.7997558556496527,-0.6287327382314793
1539131780383617,-0.0980849927519647,0.7997558556496527,-0.6319066147859922
1539131780399621,-0.10333409628442825,0.8007324330510412,-0.6372777904936293
1539131780415625,-0.10809491111619751,0.7990234225986113,-0.633371480888075
1539131780431629,-0.1380025940337224,0.7986572060730905,-0.6196993972686351
1539131780447633,-0.0955214770733197,0.8041504539559012,-0.5927214465552759
1539131780463637,-0.07220569161516766,0.7962157625696191,-0.6076142519264516
1539131780479642,-0.05560387579156156,0.8020752269779505,-0.6326390478370336
1539131780495646,-0.03607232776379021,0.7853513389791713,-0.6133516441596094
1539131780511650,-0.025574120698863112,0.8086671244373234,-0.6354467078660258
1539131780527654,-0.0508430609597923,0.7936522468909741,-0.6466773479819943
1539131780543658,-0.05951018539711583,0.8095216296635384,-0.63935301747158
1539131780559662,-0.07464713511863907,0.8009765774013884,-0.6408178835736629
1539131780575683,-0.054383154039825854,0.8170901045242998,-0.6414282444495307
1539131780591687,-0.06768902113374553,0.8137941557946133,-0.636789501792935
1539131780607691,-0.07965209430075548,0.8233157854581519,-0.6156710154879073
1539131780623695,-0.07550164034485407,0.8104982070649269,-0.6355687800411993
1539131780639700,-0.08307011520561547,0.7989013504234377,-0.6214084077210651
1539131780655704,-0.08661020828564903,0.7888914320592049,-0.6290989547570001
1539131780671708,-0.09747463187609684,0.7700923170824749,-0.6038300144960709
1539131780687712,-0.09796292057679112,0.7559319447623407,-0.5907682917524988
1539131780703716,-0.10675211718928823,0.7399404898146029,-0.568795300221256
1539131780719720,-0.062195773250934394,0.7403067063401236,-0.5637903410391396
1539131780735724,-0.03558403906309593,0.7467765316243229,-0.568795300221256
1539131780751728,-0.029724574654764524,0.7506828412298772,-0.577340352483406
1539131780767732,-0.041565575646600905,0.7678950179293507,-0.5853971160448617
1539131780783736,-0.059876401922636546,0.7718013275349049,-0.6050507362478066
1539131780799740,-0.0648813611047534,0.7895017929350727,-0.6253147173266194
1539131780815745,-0.08197146562905333,0.8004882887006941,-0.6336156252384222
1539131780831749,-0.08221560997940047,0.8120851453421833,-0.6373998626688029
1539131780847753,-0.08331425955596261,0.8114747844663155,-0.6411841000991836
1539131780863757,-0.07513542381933336,0.8202639810788126,-0.6466773479819943
1539131780879761,-0.08062867170214405,0.8091554131380176,-0.6405737392233157
1539131780895782,-0.08819714656290545,0.8057373922331577,-0.6345922026398108
1539131780911786,-0.0972304875257497,0.793408102540627,-0.6232394903486687
1539131780927790,-0.09906157015335326,0.784863050278477,-0.608346684977493
1539131780943794,-0.09759670405127041,0.7725337605859464,-0.5999237048905166
1539131780959798,-0.09942778667887398,0.7674067292286564,-0.5904020752269781
1539131780975803,-0.08807507438773188,0.7715571831845578,-0.5894254978255895
1539131780991807,-0.08014038300144977,0.7733882658121614,-0.5923552300297552
1539131781007811,-0.07928587777523477,0.7862058442053863,-0.5987029831387809
1539131781023815,-0.08111696040283833,0.7935301747158006,-0.6078583962767987
1539131781039819,-0.08514534218356618,0.8007324330510412,-0.6238498512245365
1539131781055823,-0.08978408484016187,0.8058594644083312,-0.6347142748149843
1539131781071827,-0.09027237354085615,0.8101319905394062,-0.6428931105516136
1539131781087831,-0.08477912565804546,0.8074464026855876,-0.6413061722743572
1539131781103835,-0.06732280460822482,0.8151369497215226,-0.6349584191653315
1539131781119839,-0.060852979324025114,0.8067139696345462,-0.6305638208590829
1539131781135843,-0.06939803158617552,0.7945067521171891,-0.6182345311665522
1539131781151847,-0.07232776379034123,0.7910887312123291,-0.6028534370946823
1539131781167852,-0.07696650644693692,0.7832761120012206,-0.5945525291828795
1539131781183856,-0.08477912565804546,0.7766842145418478,-0.5888151369497217
1539131781199860,-0.08697642481116974,0.7761959258411535,-0.5880827038986802
1539131781215881,-0.08136110475318548,0.7819333180743113,-0.5974822613870452
1539131781231885,-0.08441290913252475,0.7851071946288242,-0.6054169527733273
1539131781247889,-0.09466697184710471,0.7901121538109406,-0.6129854276340887
1539131781263893,-0.1001602197299154,0.7996337834744791,-0.6133516441596094
1539131781279897,-0.1047989623865111,0.8025635156786448,-0.613473716334783
1539131781295901,-0.10113679713130397,0.7990234225986113,-0.6226291294728008
1539131781311905,-0.08722056916151688,0.7967040512703134,-0.6266575112535286
1539131781327910,-0.07904173342488763,0.794262607766842,-0.6227512016479744
1539131781343914,-0.06988632028686981,0.8029297322041655,-0.6179903868162051
1539131781359918,-0.07562371252002764,0.7967040512703134,-0.6150606546120394
1539131781375922,-0.07806515602349906,0.8030518043793391,-0.615182726787213
1539131781391926,-0.08014038300144977,0.8051270313572898,-0.6071259632257573
1539131781407930,-0.0783093003738462,0.8021972991531241,-0.6115205615320058
1539131781423934,-0.0715953307392998,0.7975585564965284,-0.6173800259403373
1539131781439938,-0.05633630884260299,0.7989013504234377,-0.6188448920424201
1539131781455942,-0.05926604104676869,0.7974364843213548,-0.6172579537651637
1539131781471946,-0.07061875333791123,0.7953612573434041,-0.6061493858243687
1539131781487950,-0.08331425955596261,0.7914549477378499,-0.598947127489128
1539131781503955,-0.08026245517662334,0.7935301747158006,-0.5945525291828795
1539131781519959,-0.07415884641794479,0.8007324330510412,-0.5996795605401695
1539131781535949,-0.06854352635996053,0.8081788357366291,-0.6148165102616923
1539131781551953,-0.07403677424277122,0.8057373922331577,-0.6323949034866865
1539131781567958,-0.08355840390630975,0.8063477531090255,-0.6369115739681086
1539131781583962,-0.09161516746776543,0.8046387426565955,-0.6369115739681086
1539131781599966,-0.09356832227054257,0.7979247730220491,-0.6295872434576943
1539131781615970,-0.09063859006637687,0.792553597314412,-0.6159151598382544
1539131781631974,-0.09393453879606328,0.784863050278477,-0.5940642404821852
1539131781647978,-0.08441290913252475,0.7858396276798656,-0.5862516212710767
1539131781663982,-0.0800183108262762,0.7761959258411535,-0.5857633325703824
1539131781679986,-0.07684443427176335,0.7739986266880292,-0.5874723430228124
1539131781695990,-0.07684443427176335,0.7737544823376821,-0.5885709925993745
1539131781711994,-0.07428091859311836,0.7804684519722285,-0.5935759517814909
1539131781727998,-0.06842145418478696,0.7876707103074692,-0.6079804684519723
1539131781744002,-0.06598001068131554,0.7906004425116349,-0.615182726787213
1539131781760007,-0.0567025253681237,0.8042725261310748,-0.6206759746700237
1539131781776011,-0.05877775234607441,0.8065918974593727,-0.6305638208590829
1539131781792015,-0.06683451590753053,0.8081788357366291,-0.6311741817349508
1539131781808019,-0.07586785687037478,0.8063477531090255,-0.6282444495307851
1539131781824023,-0.07769893949797835,0.8079346913862819,-0.6238498512245365
1539131781840027,-0.07672236209658978,0.8092774853131912,-0.6187228198672465
1539131781856048,-0.08221560997940047,0.7999999999999998,-0.6144502937361715
1539131781872052,-0.08477912565804546,0.7940184634164948,-0.6059052414740216
1539131781888056,-0.08648813611047546,0.7860837720302127,-0.6027313649195087
1539131781904060,-0.07806515602349906,0.7827878233005263,-0.6048065918974594
1539131781920065,-0.07232776379034123,0.7816891737239642,-0.6021210040436409
1539131781936069,-0.07208361943999408,0.7827878233005263,-0.6013885709925995
1539131781952073,-0.0707408255130848,0.7870603494316013,-0.603219653620203
1539131781968077,-0.0678110933089191,0.789135576409552,-0.6082246128023194
1539131781984081,-0.06610208285648911,0.7948729686427098,-0.612619211108568
1539131782000085,-0.06585793850614197,0.7978027008468755,-0.6167696650644694
1539131782016089,-0.06561379415579482,0.8037842374303805,-0.6238498512245365
1539131782032093,-0.07208361943999408,0.7982909895475698,-0.6255588616769665
1539131782048097,-0.07415884641794479,0.8009765774013884,-0.617746242465858
1539131782064101,-0.0762340733958955,0.7980468451972227,-0.6166475928892958
1539131782080105,-0.07525749599450693,0.798535133897917,-0.6149385824368658
1539131782096109,-0.07354848554207694,0.7967040512703134,-0.6139620050354773
1539131782112114,-0.07489127946898622,0.7931639581902798,-0.6127412832837416
1539131782128118,-0.0733043411917298,0.7930418860151063,-0.6107881284809644
1539131782144122,-0.07013046463721695,0.7936522468909741,-0.6123750667582208
1539131782160126,-0.06805523765926624,0.7948729686427098,-0.6166475928892958
1539131782176178,-0.07061875333791123,0.7940184634164948,-0.6144502937361715
1539131782192182,-0.06634622720683625,0.7958495460440984,-0.610910200656138
1539131782208187,-0.06427100022888554,0.7901121538109406,-0.6105439841306173
1539131782224191,-0.06427100022888554,0.7929198138399327,-0.6110322728313116
1539131782240196,-0.06451514457923269,0.7887693598840313,-0.6148165102616923
1539131782256200,-0.06414892805371197,0.7853513389791713,-0.6132295719844358
1539131782272205,-0.06683451590753053,0.7871824216067749,-0.606637674525063
1539131782288210,-0.06646829938200982,0.7982909895475698,-0.6104219119554437
1539131782304214,-0.07293812466620908,0.7923094529640649,-0.6132295719844358
1539131782320219,-0.07586785687037478,0.7941405355916684,-0.6166475928892958
1539131782336223,-0.07513542381933336,0.7960936903944456,-0.6195773250934615
1539131782352228,-0.07672236209658978,0.8003662165255205,-0.6239719233997101
1539131782368232,-0.07550164034485407,0.7952391851682306,-0.6259250782024872
1539131782384237,-0.0753795681696805,0.7975585564965284,-0.6267795834287022
1539131782400241,-0.07403677424277122,0.7931639581902798,-0.6265354390783551
1539131782416246,-0.07013046463721695,0.7931639581902798,-0.6195773250934615
1539131782432251,-0.05926604104676869,0.7947508964675363,-0.6135957885099566
1539131782448255,-0.05889982452124798,0.789135576409552,-0.6034637979705502
1539131782464260,-0.05780117494468584,0.785717555504692,-0.599801632715343
1539131782480264,-0.057068741893644415,0.781445029373617,-0.5965056839856566
1539131782496276,-0.058289463645380124,0.7803463797970549,-0.6009002822919052
1539131782512281,-0.05743495841916513,0.7847409781033035,-0.6044403753719387
1539131782528286,-0.058411535820553695,0.7952391851682306,-0.6113984893568323
1539131782544290,-0.06549172198062125,0.7974364843213548,-0.6228732738231479
1539131782560295,-0.07086289768825837,0.7999999999999998,-0.6328831921873808
1539131782576299,-0.07598992904554835,0.8009765774013884,-0.6353246356908522
1539131782592304,-0.0858777752346076,0.7958495460440984,-0.6331273365377279
1539131782608308,-0.0791638056000612,0.7947508964675363,-0.6206759746700237
1539131782624313,-0.07769893949797835,0.7887693598840313,-0.6101777676050966
1539131782640318,-0.06976424811169624,0.780590524147402,-0.6054169527733273
1539131782656322,-0.06988632028686981,0.7813229571984435,-0.5961394674601359
1539131782672327,-0.06659037155718339,0.7855954833295185,-0.5968719005111773
1539131782688331,-0.07098496986343195,0.7816891737239642,-0.6055390249485009
1539131782704336,-0.07196154726482051,0.7868162050812542,-0.6131074998092623
1539131782720340,-0.06878767071030767,0.7931639581902798,-0.6196993972686351
1539131782736345,-0.05999847409781012,0.7990234225986113,-0.6275120164797436
1539131782752349,-0.06060883497367797,0.7996337834744791,-0.6297093156328679
1539131782768354,-0.05401693751430514,0.8065918974593727,-0.6288548104066529
1539131782784359,-0.05279621576256943,0.8021972991531241,-0.6281223773556115
1539131782800363,-0.055848020141908705,0.7952391851682306,-0.6234836346990158
1539131782816375,-0.05474937056534657,0.7893797207598992,-0.6182345311665522
1539131782832380,-0.06646829938200982,0.7897459372854199,-0.6101777676050966
1539131782848384,-0.07525749599450693,0.7870603494316013,-0.6088349736781873
1539131782864389,-0.08270389868009476,0.7871824216067749,-0.6089570458533609
1539131782880394,-0.08575570305943403,0.7893797207598992,-0.6120088502327001
1539131782896398,-0.0820935378042269,0.7915770199130234,-0.6187228198672465
1539131782912403,-0.07940794995040834,0.7913328755626763,-0.6248264286259251
1539131782928407,-0.07403677424277122,0.7913328755626763,-0.6223849851224537
1539131782944412,-0.06817730983443981,0.7927977416647591,-0.6226291294728008
1539131782960416,-0.06073090714885154,0.7920653086137177,-0.6193331807431144
1539131782976421,-0.05548180361638799,0.7941405355916684,-0.6156710154879073
1539131782992426,-0.04217593652246876,0.7914549477378499,-0.6144502937361715
1539131783008430,-0.04742504005493231,0.793408102540627,-0.6155489433127337
1539131783024435,-0.04180971999694805,0.7896238651102463,-0.6105439841306173
1539131783040439,-0.05230792706187515,0.7854734111543449,-0.6088349736781873
1539131783056444,-0.05792324711985941,0.7860837720302127,-0.6170138094148165
1539131783072448,-0.07098496986343195,0.7855954833295185,-0.613473716334783
1539131783088453,-0.07049668116273766,0.7844968337529563,-0.6148165102616923
1539131783104457,-0.07269398031586194,0.784008545052262,-0.6157930876630808
1539131783120462,-0.07403677424277122,0.7893797207598992,-0.6157930876630808
1539131783136474,-0.07061875333791123,0.7941405355916684,-0.6167696650644694
1539131783152479,-0.06829938200961339,0.799389639124132,-0.6232394903486687
1539131783168483,-0.06842145418478696,0.8042725261310748,-0.6317845426108186
1539131783184488,-0.07391470206759765,0.7975585564965284,-0.6383764400701915
1539131783200492,-0.07049668116273766,0.7967040512703134,-0.6343480582894636
1539131783216497,-0.06842145418478696,0.7935301747158006,-0.63080796520943
1539131783232502,-0.049500267032883016,0.7898680094605934,-0.6259250782024872
1539131783248506,-0.041565575646600905,0.7838864728770885,-0.615182726787213
1539131783264511,-0.036194399938963784,0.7777828641184099,-0.6144502937361715
1539131783280515,-0.04083314259555948,0.7685053788052185,-0.6072480354009309
1539131783296520,-0.05035477225909801,0.7660639353017471,-0.5993133440146488
1539131783312524,-0.05535973144121442,0.7716792553597314,-0.5939421683070116
1539131783328529,-0.06659037155718339,0.7770504310673685,-0.5857633325703824
1539131783344534,-0.07183947508964694,0.7855954833295185,-0.5893034256504159
1539131783360538,-0.07855344472419334,0.789990081635767,-0.6045624475471123
1539131783376543,-0.07940794995040834,0.7897459372854199,-0.6265354390783551
1539131783392547,-0.07696650644693692,0.7967040512703134,-0.6372777904936293
1539131783408552,-0.06585793850614197,0.8059815365835048,-0.6464332036316471
1539131783424556,-0.06915388723582838,0.8081788357366291,-0.6439917601281757
1539131783440561,-0.06793316548409267,0.8072022583352405,-0.6447241931792171
1539131783456573,-0.05389486533913157,0.8134279392690926,-0.6405737392233157
1539131783472578,-0.052063782711528006,0.8029297322041655,-0.6347142748149843
1539131783488582,-0.049134050507362304,0.795117112993057,-0.6238498512245365
1539131783504587,-0.05902189669642155,0.7847409781033035,-0.6161593041886015
1539131783520591,-0.06610208285648911,0.7809567406729228,-0.610910200656138
1539131783536596,-0.0745250629434655,0.7737544823376821,-0.6039520866712444
1539131783552600,-0.08307011520561547,0.7709468223086899,-0.6055390249485009
1539131783568605,-0.08697642481116974,0.7738765545128556,-0.6068818188754102
1539131783584610,-0.08868543526359973,0.7757076371404592,-0.6098115510795759
1539131783600614,-0.08661020828564903,0.7804684519722285,-0.6112764171816587
1539131783616619,-0.0875867856870376,0.7799801632715342,-0.616891737239643
1539131783632623,-0.08453498130769832,0.7846189059281299,-0.617746242465858
1539131783648628,-0.08538948653391332,0.7826657511253527,-0.6128633554589151
1539131783664632,-0.07794308384832549,0.7813229571984435,-0.614328221560998
1539131783680637,-0.07428091859311836,0.7858396276798656,-0.6112764171816587
1539131783696642,-0.06976424811169624,0.7864499885557334,-0.6054169527733273
1539131783712646,-0.0657358663309684,0.7873044937819484,-0.6099336232547494
1539131783728651,-0.05645838101777656,0.7915770199130234,-0.6127412832837416
1539131783744655,-0.048035400930800165,0.7981689173723963,-0.6161593041886015
1539131783760660,-0.04974441138323016,0.8025635156786448,-0.6323949034866865
1539131783776672,-0.044007019150072324,0.8096437018387119,-0.6428931105516136
1539131783792677,-0.04901197833218873,0.8084229800869762,-0.6477759975585564
1539131783808681,-0.044007019150072324,0.8139162279697869,-0.6518043793392843
1539131783824686,-0.04840161745632088,0.8051270313572898,-0.6499732967116807
1539131783840690,-0.05499351491569371,0.795971618219272,-0.6300755321583886
1539131783856695,-0.0613412680247194,0.7858396276798656,-0.614328221560998
1539131783872699,-0.07122911421377909,0.7748531319142442,-0.598947127489128
1539131783888704,-0.07354848554207694,0.7667963683527885,-0.5863736934462502
1539131783904708,-0.07147325856412623,0.7674067292286564,-0.5834439612420845
1539131783920713,-0.07013046463721695,0.7714351110093842,-0.5899137865262838
1539131783936718,-0.07696650644693692,0.7731441214618142,-0.6046845197222859
1539131783952722,-0.08184939345387976,0.7742427710383764,-0.613473716334783
1539131783968727,-0.08514534218356618,0.7781490806439306,-0.6179903868162051
1539131783984731,-0.08343633173113618,0.7886472877088577,-0.6282444495307851
1539131784000736,-0.07684443427176335,0.7932860303654534,-0.6320286869611658
1539131784016740,-0.0774547951476312,0.7989013504234377,-0.6228732738231479
1539131784032745,-0.07464713511863907,0.8059815365835048,-0.6181124589913787
1539131784048750,-0.07110704203860552,0.8042725261310748,-0.6221408407721065
1539131784064754,-0.06170748455024011,0.8039063096055541,-0.6336156252384222
1539131784080759,-0.05389486533913157,0.8013427939269091,-0.6338597695887693
1539131784096771,-0.049500267032883016,0.8025635156786448,-0.6289768825818265
1539131784112775,-0.0604867627985044,0.7923094529640649,-0.6251926451514458
1539131784128780,-0.06512550545510054,0.7903562981612877,-0.616037232013428
1539131784144785,-0.06683451590753053,0.7876707103074692,-0.6059052414740216
1539131784160789,-0.06878767071030767,0.7835202563515677,-0.6085908293278401
1539131784176794,-0.0640268558785384,0.7820553902494849,-0.6035858701457237
1539131784192798,-0.0604867627985044,0.7843747615777827,-0.602365148393988
1539131784208803,-0.0631723506523234,0.7853513389791713,-0.609201190203708
1539131784224807,-0.06842145418478696,0.788281071183337,-0.6207980468451972
1539131784240812,-0.07232776379034123,0.7885252155336842,-0.6236057068741894
1539131784256816,-0.07574578469520121,0.7936522468909741,-0.6221408407721065
1539131784272821,-0.07318226901655622,0.7970702677958341,-0.6245822842755779
1539131784288826,-0.07391470206759765,0.796826123445487,-0.6284885938811322
1539131784304830,-0.07598992904554835,0.7989013504234377,-0.6229953459983215
1539131784320835,-0.0791638056000612,0.7940184634164948,-0.622018768596933
1539131784336839,-0.07977416647592905,0.7877927824826427,-0.6182345311665522
1539131784352844,-0.07757686732280478,0.7877927824826427,-0.6128633554589151
1539131784368848,-0.0707408255130848,0.7870603494316013,-0.612619211108568
1539131784384853,-0.07135118638895266,0.787426565957122,-0.6155489433127337
1539131784400858,-0.07122911421377909,0.7871824216067749,-0.6146944380865187
1539131784416870,-0.07354848554207694,0.7912108033875027,-0.6095674067292287
1539131784432874,-0.07232776379034123,0.7906004425116349,-0.6122529945830473
1539131784448879,-0.07598992904554835,0.7876707103074692,-0.6145723659113451
1539131784464883,-0.07281605249103551,0.7918211642633706,-0.6129854276340887
1539131784480888,-0.07794308384832549,0.787426565957122,-0.6129854276340887
1539131784496893,-0.07867551689936692,0.7887693598840313,-0.6128633554589151
1539131784512897,-0.07782101167315192,0.7860837720302127,-0.6184786755168994
1539131784528902,-0.07696650644693692,0.789135576409552,-0.6153047989623865
1539131784544906,-0.0733043411917298,0.7892576485847256,-0.6156710154879073
1539131784560911,-0.08026245517662334,0.7898680094605934,-0.6209201190203708
1539131784576915,-0.07122911421377909,0.793408102540627,-0.6205539024948501
1539131784592920,-0.07000839246204338,0.8006103608758677,-0.618600747692073
1539131784608924,-0.06598001068131554,0.8040283817807277,-0.6215304798962387
1539131784624929,-0.06622415503166268,0.8037842374303805,-0.6244602121004044
1539131784640934,-0.06622415503166268,0.7996337834744791,-0.6292210269321736
1539131784656938,-0.06793316548409267,0.7965819790951398,-0.6233615625238422
1539131784672943,-0.05926604104676869,0.7877927824826427,-0.621164263370718
1539131784688947,-0.05474937056534657,0.7803463797970549,-0.6170138094148165
1539131784704952,-0.05938811322194226,0.7736324101625085,-0.6063935301747159
1539131784720956,-0.06622415503166268,0.7766842145418478,-0.5968719005111773
1539131784736999,-0.06927595941100195,0.7786373693446249,-0.5993133440146488
1539131784753004,-0.06182955672541368,0.7873044937819484,-0.608346684977493
1539131784769008,-0.06024261844815726,0.7871824216067749,-0.6227512016479744
1539131784785013,-0.06793316548409267,0.787426565957122,-0.6286106660563058
1539131784801017,-0.06878767071030767,0.7936522468909741,-0.6281223773556115
1539131784817022,-0.0724498359655148,0.7906004425116349,-0.6276340886549172
1539131784833027,-0.07879758907454049,0.7936522468909741,-0.6218966964217594
1539131784849031,-0.0745250629434655,0.7918211642633706,-0.6095674067292287
1539131784865036,-0.0657358663309684,0.7987792782482641,-0.6029755092698559
1539131784881040,-0.05804531929503298,0.7910887312123291,-0.6063935301747159
1539131784897045,-0.057190814068817986,0.7884031433585106,-0.6140840772106508
1539131784913049,-0.05743495841916513,0.7870603494316013,-0.6200656137941558
1539131784929054,-0.058533607995727266,0.7896238651102463,-0.6245822842755779
1539131784945058,-0.06268406195162912,0.7879148546578163,-0.6260471503776608
1539131784961063,-0.06256198977645555,0.7937743190661477,-0.6228732738231479
1539131784977068,-0.06060883497367797,0.7956054016937513,-0.6165255207141223
1539131784993072,-0.05816739147020655,0.7974364843213548,-0.6127412832837416
1539131785009077,-0.05426108186465228,0.7992675669489584,-0.6096894789044023
1539131785025081,-0.0567025253681237,0.7948729686427098,-0.6139620050354773
1539131785041086,-0.056946669718470844,0.7929198138399327,-0.6166475928892958
1539131785057098,-0.060975051499198685,0.7871824216067749,-0.6192111085679408
1539131785073103,-0.06451514457923269,0.7860837720302127,-0.6204318303196765
1539131785089107,-0.06878767071030767,0.786572060730907,-0.6153047989623865
1539131785105112,-0.07232776379034123,0.7892576485847256,-0.6133516441596094
1539131785121116,-0.0715953307392998,0.7898680094605934,-0.6106660563057908
1539131785137121,-0.0695201037613491,0.789135576409552,-0.6124971389333944
1539131785153125,-0.05877775234607441,0.7965819790951398,-0.6140840772106508
1539131785169130,-0.058411535820553695,0.7943846799420156,-0.618600747692073
1539131785185135,-0.059632257572289404,0.7975585564965284,-0.6173800259403373
1539131785201139,-0.06768902113374553,0.796826123445487,-0.6215304798962387
1539131785217144,-0.06988632028686981,0.7935301747158006,-0.6206759746700237
1539131785233148,-0.06939803158617552,0.7888914320592049,-0.6149385824368658
1539131785249153,-0.06671244373235696,0.7863279163805599,-0.6079804684519723
1539131785265157,-0.058533607995727266,0.7842526894026092,-0.6081025406271459
1539131785281162,-0.05633630884260299,0.7858396276798656,-0.613473716334783
1539131785297166,-0.05279621576256943,0.7890135042343784,-0.613473716334783
1539131785313171,-0.05780117494468584,0.7898680094605934,-0.6162813763637751
1539131785329176,-0.06158541237506654,0.7948729686427098,-0.6176241702906844
1539131785345180,-0.06451514457923269,0.7932860303654534,-0.6155489433127337
1539131785361185,-0.06146334019989297,0.795971618219272,-0.6104219119554437
1539131785377197,-0.055848020141908705,0.8001220721751734,-0.6034637979705502
1539131785393201,-0.054627298390172996,0.7967040512703134,-0.6085908293278401
1539131785409206,-0.06182955672541368,0.7907225146868084,-0.6102998397802701
1539131785425211,-0.06305027847714983,0.7932860303654534,-0.6116426337071794
1539131785441215,-0.06366063935301769,0.7923094529640649,-0.6171358815899901
1539131785457220,-0.06817730983443981,0.791699092088197,-0.6249485008010986
1539131785473224,-0.06561379415579482,0.7924315251392384,-0.6269016556038758
1539131785489229,-0.05914396887159512,0.8014648661020827,-0.6297093156328679
1539131785505233,-0.053772793163958,0.8079346913862819,-0.633371480888075
1539131785521238,-0.05487144274052014,0.8078126192111084,-0.636789501792935
1539131785537243,-0.05548180361638799,0.8101319905394062,-0.6310521095597772
1539131785553247,-0.0508430609597923,0.8078126192111084,-0.6231174181734951
1539131785569252,-0.05218585488670158,0.8001220721751734,-0.6159151598382544
1539131785585256,-0.05365072098878443,0.7904783703364613,-0.6153047989623865
1539131785601261,-0.05133134966048658,0.7879148546578163,-0.6081025406271459
1539131785617265,-0.04718089570458517,0.7921873807888913,-0.6037079423208973
1539131785633270,-0.04901197833218873,0.7877927824826427,-0.6012664988174259
1539131785649274,-0.048035400930800165,0.7873044937819484,-0.6067597467002366
1539131785665279,-0.05560387579156156,0.7825436789501792,-0.6084687571526666
1539131785681284,-0.05743495841916513,0.7833981841763942,-0.6072480354009309
1539131785697265,-0.058533607995727266,0.7832761120012206,-0.6089570458533609
1539131785713270,-0.06024261844815726,0.7843747615777827,-0.6089570458533609
1539131785729274,-0.057068741893644415,0.7910887312123291,-0.611764705882353
1539131785745279,-0.05023270008392444,0.7919432364385441,-0.6150606546120394
1539131785761283,-0.044129091325245895,0.7941405355916684,-0.6155489433127337
1539131785777288,-0.046814679179064456,0.792553597314412,-0.6184786755168994
1539131785793293,-0.04522774090180803,0.7978027008468755,-0.6171358815899901
1539131785809297,-0.04974441138323016,0.7956054016937513,-0.6193331807431144
1539131785825302,-0.053040360112916574,0.7927977416647591,-0.6178683146410315
1539131785841306,-0.046692607003890885,0.794262607766842,-0.6176241702906844
1539131785857311,-0.050598916609445155,0.791699092088197,-0.617746242465858
1539131785873315,-0.05926604104676869,0.7885252155336842,-0.6127412832837416
1539131785889320,-0.05999847409781012,0.7888914320592049,-0.6140840772106508
1539131785905325,-0.05645838101777656,0.7927977416647591,-0.6088349736781873
1539131785921329,-0.057068741893644415,0.7957274738689248,-0.6084687571526666
1539131785937334,-0.0657358663309684,0.7973144121461813,-0.6165255207141223
1539131785953338,-0.07000839246204338,0.7963378347447927,-0.6234836346990158
1539131785969343,-0.06927595941100195,0.7995117112993055,-0.6309300373846036
1539131785985347,-0.06366063935301769,0.7981689173723963,-0.6297093156328679
1539131786001352,-0.06195162890058725,0.7948729686427098,-0.6236057068741894
1539131786017364,-0.0567025253681237,0.7910887312123291,-0.619455252918288
1539131786033369,-0.05365072098878443,0.7919432364385441,-0.6118867780575266
1539131786049373,-0.05267414358739586,0.7914549477378499,-0.6072480354009309
1539131786065378,-0.05218585488670158,0.7888914320592049,-0.6065156023498894
1539131786081382,-0.05133134966048658,0.7919432364385441,-0.6051728084229802
1539131786097387,-0.062195773250934394,0.7941405355916684,-0.6088349736781873
1539131786113392,-0.06646829938200982,0.7981689173723963,-0.6150606546120394
1539131786129396,-0.06878767071030767,0.7987792782482641,-0.6221408407721065
1539131786145401,-0.060975051499198685,0.7998779278248263,-0.6331273365377279
1539131786161405,-0.05352864881361086,0.7963378347447927,-0.6369115739681086
1539131786177410,-0.04718089570458517,0.7949950408178834,-0.6356908522163729
1539131786193414,-0.04644846265354374,0.7898680094605934,-0.622018768596933
1539131786209419,-0.04632639047837017,0.788281071183337,-0.6132295719844358
1539131786225423,-0.054383154039825854,0.7825436789501792,-0.6079804684519723
1539131786241428,-0.0499885557335773,0.7791256580453192,-0.6081025406271459
1539131786257433,-0.041443503471427334,0.7799801632715342,-0.6090791180285344
1539131786273437,-0.04180971999694805,0.7821774624246585,-0.6073701075761044
1539131786289442,-0.046570534828717314,0.7830319676508735,-0.6076142519264516
1539131786305446,-0.04840161745632088,0.782299534599832,-0.6124971389333944
1539131786321451,-0.04473945220111375,0.7903562981612877,-0.6142061493858244
1539131786337463,-0.040100709544518054,0.7978027008468755,-0.6195773250934615
1539131786353468,-0.03692683299000521,0.8107423514152741,-0.6303196765087358
1539131786369472,-0.046814679179064456,0.8112306401159683,-0.6352025635156786
1539131786385477,-0.05218585488670158,0.8135500114442662,-0.6438696879530021
1539131786401481,-0.05682459754329727,0.8177004654001676,-0.6416723887998779
1539131786417486,-0.0631723506523234,0.8159914549477376,-0.6360570687418936
1539131786433490,-0.06121919584954583,0.8113527122911419,-0.63251697566186
1539131786449495,-0.059876401922636546,0.7953612573434041,-0.6227512016479744
1539131786465500,-0.05279621576256943,0.7721675440604256,-0.6214084077210651
1539131786481504,-0.04376287479972518,0.764965285725185,-0.6166475928892958
1539131786497509,-0.049256122682535874,0.7664301518272678,-0.5956511787594416
1539131786513513,-0.07037460898756409,0.7628900587472343,-0.5857633325703824
1539131786529518,-0.0783093003738462,0.7603265430685893,-0.5907682917524988
1539131786545522,-0.07403677424277122,0.7746089875638971,-0.5958953231097888
1539131786561527,-0.06390478370336483,0.781445029373617,-0.6082246128023194
1539131786577531,-0.05877775234607441,0.7930418860151063,-0.6248264286259251
1539131786593536,-0.062439917601281536,0.7958495460440984,-0.6343480582894636
1539131786609541,-0.06927595941100195,0.7938963912413213,-0.6435034714274814
1539131786625545,-0.06158541237506654,0.7964599069199663,-0.6449683375295643
1539131786641550,-0.05120927748531301,0.792553597314412,-0.6415503166247043
1539131786657562,-0.03851377126726163,0.7909666590371556,-0.6321507591363393
1539131786673566,-0.03533989471274879,0.7880369268329899,-0.6153047989623865
1539131786689571,-0.034851606012054503,0.7864499885557334,-0.6052948805981537
1539131786705576,-0.032410162508583085,0.7879148546578163,-0.6018768596932937
1539131786721580,-0.03839169909208806,0.7873044937819484,-0.6046845197222859
1539131786737585,-0.049378194857709445,0.7835202563515677,-0.6129854276340887
1539131786753589,-0.052918287937743,0.7837644007019149,-0.6234836346990158
1539131786769594,-0.0657358663309684,0.7844968337529563,-0.6266575112535286
1539131786785598,-0.06427100022888554,0.7879148546578163,-0.6303196765087358
1539131786801603,-0.06744487678339839,0.7864499885557334,-0.6259250782024872
1539131786817608,-0.06427100022888554,0.7886472877088577,-0.6198214694438087
1539131786833612,-0.06012054627298369,0.7885252155336842,-0.6181124589913787
1539131786849617,-0.05413900968947871,0.7909666590371556,-0.6181124589913787
1539131786865621,-0.047913328755626594,0.7930418860151063,-0.6231174181734951
1539131786881626,-0.05023270008392444,0.7858396276798656,-0.6234836346990158
1539131786897630,0.033752956435492365,0.6881818875410088,-0.8811779964904249
1539131786913635,-0.5541466392004271,-0.24005493247882814,-0.4796826123445488
1539131786929639,0.8113527122911419,2.90928511482414,0.009460593575951748
1539131786945644,-0.38507667658503086,0.5054398413061723,-0.6679179064621956
1539131786961649,-0.4473334859235525,0.0844129091325243,-1.987029831387808
1539131786977691,0.05792324711985941,0.6402075226977955,-1.7411764705882353
1539131786993696,0.603097581445029,1.4060883497367822,-0.8588387884336615
1539131787009701,0.31134508278019357,1.3527428091859308,-0.4122987716487372
1539131787025706,-0.11493095292591748,0.9740749217975129,-0.3362478065156025
1539131787041711,-0.34979781795986886,0.6162813763637747,-0.5302204928664072
1539131787057716,-0.1986724650949876,0.5106889448386358,-0.6222629129472801
1539131787073722,-0.002746623941405346,0.5717250324254213,-0.52997634851606
1539131787089727,-0.03961242084382377,0.6113984893568318,-0.35065232318608386
1539131787105732,-0.058289463645380124,0.6421606775005726,-0.2888838025482565
1539131787121737,-0.07122911421377909,0.6441138323033497,-0.349187457084001
1539131787137742,-0.13690394445716025,0.6151827267872125,-0.4306095979247728
1539131787153747,-0.22015716792553608,0.5935759517814905,-0.5348592355230029
1539131787169752,-0.18146028839551365,0.6115205615320054,-0.6637674525062942
1539131787185757,-0.09442282749675757,0.671335927367056,-0.7642328526741435
1539131787201762,-0.05548180361638799,0.7473868925001907,-0.8125734340428781
1539131787217767,-0.04486152437628732,0.8084229800869762,-0.8489509422446022
1539131787233772,-0.04718089570458517,0.8480964370183868,-0.87006942854963
1539131787249777,-0.05877775234607441,0.8610360875867853,-0.8816662851911192
1539131787265782,-0.04852368963149445,0.863111314564736,-0.8690928511482414
1539131787281787,-0.023010605020218122,0.8510261692225525,-0.8362554360265508
1539131787297790,0.016906996261539575,0.8247806515602347,-0.7919432364385441
1539131787313795,0.03704890516517878,0.7970702677958341,-0.7280994888227665
1539131787329800,0.03826962691691449,0.7809567406729228,-0.6575417715724421
1539131787345805,0.02777141985198739,0.7570305943389029,-0.603219653620203
1539131787361810,0.007385366598001042,0.7273670557717251,-0.5724574654764631
1539131787377815,-0.027649347676813818,0.7056382085908295,-0.5531700617990385
1539131787393820,-0.04180971999694805,0.6994125276569774,-0.5507286182955671
1539131787409825,-0.046692607003890885,0.7133287556267645,-0.5600061036087585
1539131787425830,-0.05926604104676869,0.7278553444724194,-0.5835660334172581
1539131787441836,-0.07257190814068837,0.7442130159456779,-0.6120088502327001
1539131787457841,-0.09234760051880686,0.75727473868925,-0.6406958113984893
1539131787473846,-0.09295796139467472,0.7820553902494849,-0.6627908751049056
1539131787489851,-0.08636606393530188,0.7975585564965284,-0.6775616083009077
1539131787505856,-0.07562371252002764,0.8064698252841991,-0.6878156710154881
1539131787521861,-0.0686655985351341,0.8034180209048598,-0.6911116197451745
1539131787537866,-0.060852979324025114,0.8025635156786448,-0.684031433585107
1539131787553871,-0.054383154039825854,0.7924315251392384,-0.6663309681849392
1539131787569876,-0.04693675135423803,0.7609369039444571,-0.6702372777904935
1539131787585881,-0.04596017395284946,0.6699931334401468,-0.6156710154879073
1539131787601886,0.0040894178683146265,0.8925307087815675,-0.5152056153200579
1539131787617889,-0.05267414358739586,0.7713130388342107,-0.6061493858243687
1539131787633894,-0.09076066224155044,0.707469291218433,-0.6885481040665296
1539131787649899,-0.07281605249103551,0.7516594186312657,-0.6526588845654993
1539131787665904,0.008850232700083893,0.8257572289616233,-0.6222629129472801
1539131787681909,-0.04364080262455161,0.7790035858701456,-0.6548561837186235
1539131787697914,-0.08734264133669045,0.7550774395361257,-0.6608377203021285
1539131787713919,-0.07135118638895266,0.7862058442053863,-0.6450904097047379
1539131787729924,-0.07037460898756409,0.7852292668039977,-0.6416723887998779
1539131787745929,-0.06366063935301769,0.7783932249942778,-0.6471656366826886
1539131787761934,-0.05413900968947871,0.7774166475928892,-0.6413061722743572
1539131787777939,-0.04376287479972518,0.7768062867170213,-0.6372777904936293
1539131787793944,-0.04901197833218873,0.7703364614328221,-0.6327611200122072
1539131787809949,-0.05401693751430514,0.7715571831845578,-0.6294651712825208
1539131787825955,-0.05780117494468584,0.7718013275349049,-0.6277561608300908
1539131787841960,-0.058289463645380124,0.7754634927901121,-0.6332494087129015
1539131787857965,-0.05511558709086728,0.780590524147402,-0.6371557183184557
1539131787873970,-0.05621423666742942,0.7827878233005263,-0.6422827496757457
1539131787889975,-0.05499351491569371,0.7803463797970549,-0.6526588845654993
1539131787905980,-0.05474937056534657,0.7807125963225756,-0.6511940184634164
1539131787921985,-0.051941710536354435,0.7858396276798656,-0.6459449149309529
1539131787937988,-0.053406576638437286,0.7819333180743113,-0.6455786984054321
1539131787953993,-0.0567025253681237,0.7760738536659799,-0.6408178835736629
1539131787969998,-0.05242999923704872,0.7731441214618142,-0.6383764400701915
1539131787986003,-0.050598916609445155,0.7703364614328221,-0.6364232852674143
1539131788002008,-0.050476844434271584,0.7716792553597314,-0.631662470435645
1539131788018013,-0.04766918440527945,0.7704585336079957,-0.6269016556038758
1539131788034018,-0.04986648355840373,0.76923781185626,-0.6243381399252308
1539131788050023,-0.04962233920805659,0.7741206988632028,-0.6266575112535286
1539131788066028,-0.051819638361180864,0.7676508735790035,-0.63593499656672
1539131788082033,-0.05682459754329727,0.7726558327611199,-0.6405737392233157
1539131788098038,-0.053772793163958,0.7809567406729228,-0.6397192339971007
1539131788114043,-0.058533607995727266,0.7836423285267413,-0.6344701304646372
1539131788130048,-0.06353856717784412,0.7838864728770885,-0.6365453574425879
1539131788146053,-0.0648813611047534,0.7836423285267413,-0.63935301747158
1539131788162058,-0.07013046463721695,0.7838864728770885,-0.6403295948729686
1539131788178063,-0.07281605249103551,0.7813229571984435,-0.64106202792401
1539131788194069,-0.0724498359655148,0.7810788128480963,-0.645334554055085
1539131788210074,-0.06475928892957983,0.7802243076218813,-0.6415503166247043
1539131788226079,-0.058411535820553695,0.7741206988632028,-0.6432593270771343
1539131788242084,-0.044007019150072324,0.7786373693446249,-0.6403295948729686
1539131788258087,-0.04876783398184159,0.7719233997100785,-0.6377660791943236
1539131788274092,-0.053772793163958,0.7691157396810864,-0.6339818417639429
1539131788290097,-0.050720988784618726,0.7720454718852521,-0.6294651712825208
1539131788306102,-0.04730296787975874,0.7726558327611199,-0.6271457999542229
1539131788322107,-0.04571602960250232,0.7715571831845578,-0.631662470435645
1539131788338112,-0.04974441138323016,0.7707026779583428,-0.6365453574425879
1539131788354117,-0.05780117494468584,0.7719233997100785,-0.6349584191653315
1539131788370122,-0.06366063935301769,0.7787594415197985,-0.6322728313115129
1539131788386127,-0.06878767071030767,0.7752193484397649,-0.6356908522163729
1539131788402132,-0.05926604104676869,0.7770504310673685,-0.6386205844205386
1539131788418137,-0.06280613412680269,0.7737544823376821,-0.6382543678950179
1539131788434142,-0.05682459754329727,0.7777828641184099,-0.6398413061722743
1539131788450147,-0.06585793850614197,0.7716792553597314,-0.63593499656672
1539131788466152,-0.06195162890058725,0.7737544823376821,-0.6347142748149843
1539131788482157,-0.05792324711985941,0.7688715953307392,-0.6361791409170672
1539131788498162,-0.0508430609597923,0.7696040283817807,-0.6389868009460593
1539131788514167,-0.04876783398184159,0.7696040283817807,-0.6381322957198443
1539131788530172,-0.04864576180666802,0.7713130388342107,-0.63251697566186
1539131788546177,-0.05255207141222229,0.7750972762645914,-0.6353246356908522
1539131788562183,-0.052918287937743,0.7738765545128556,-0.6358129243915465
1539131788578186,-0.050598916609445155,0.7782711528191042,-0.6381322957198443
1539131788594191,-0.05157549401083372,0.7758297093156328,-0.636789501792935
1539131788610196,-0.05413900968947871,0.7772945754177156,-0.6336156252384222
1539131788626201,-0.06158541237506654,0.7770504310673685,-0.6327611200122072
1539131788642206,-0.06353856717784412,0.7798580910963606,-0.6306858930342565
1539131788658211,-0.07037460898756409,0.7801022354467078,-0.6327611200122072
1539131788674216,-0.07037460898756409,0.779736018921187,-0.636789501792935
1539131788690221,-0.07281605249103551,0.7816891737239642,-0.6375219348439765
1539131788706226,-0.07049668116273766,0.7875486381322956,-0.6369115739681086
1539131788722231,-0.0733043411917298,0.7866941329060806,-0.6449683375295643
1539131788738236,-0.0733043411917298,0.7837644007019149,-0.6489967193102921
1539131788754241,-0.0686655985351341,0.7786373693446249,-0.64789806973373
1539131788770246,-0.06829938200961339,0.7761959258411535,-0.6414282444495307
1539131788786251,-0.0631723506523234,0.7697261005569542,-0.6370336461432822
1539131788802256,-0.05609216449225585,0.7678950179293507,-0.6327611200122072
1539131788818261,-0.055848020141908705,0.7650873579003585,-0.6242160677500572
1539131788834266,-0.049500267032883016,0.7703364614328221,-0.6217746242465858
1539131788850271,-0.05352864881361086,0.7656977187762264,-0.622018768596933
1539131788866276,-0.05743495841916513,0.7696040283817807,-0.621164263370718
1539131788882281,-0.06036469062333083,0.7739986266880292,-0.6253147173266194
1539131788898285,-0.062439917601281536,0.778881513694972,-0.6363012130922407
1539131788914290,-0.06366063935301769,0.7841306172274356,-0.6409399557488364
1539131788930295,-0.06524757763027411,0.7866941329060806,-0.6452124818799114
1539131788946300,-0.06707866025787768,0.7868162050812542,-0.6472877088578621
1539131788962305,-0.0724498359655148,0.7847409781033035,-0.6477759975585564
1539131788978310,-0.07220569161516766,0.7835202563515677,-0.640207522697795
1539131788994315,-0.06939803158617552,0.7812008850232699,-0.6354467078660258
1539131789010320,-0.06878767071030767,0.778881513694972,-0.6315403982604715
1539131789026325,-0.0631723506523234,0.7799801632715342,-0.6303196765087358
1539131789042330,-0.062439917601281536,0.7755855649652856,-0.6301976043335622
1539131789058335,-0.06305027847714983,0.7760738536659799,-0.6314183260852979
1539131789074340,-0.0613412680247194,0.7779049362935835,-0.6322728313115129
1539131789090345,-0.062195773250934394,0.7755855649652856,-0.6356908522163729
1539131789106350,-0.06182955672541368,0.7764400701915006,-0.6311741817349508
1539131789122355,-0.060852979324025114,0.7825436789501792,-0.6322728313115129
1539131789138360,-0.06366063935301769,0.7760738536659799,-0.63251697566186
1539131789154365,-0.060852979324025114,0.7794918745708399,-0.6328831921873808
1539131789170370,-0.05877775234607441,0.7787594415197985,-0.6347142748149843
1539131789186375,-0.05889982452124798,0.7736324101625085,-0.6349584191653315
1539131789202380,-0.05902189669642155,0.7752193484397649,-0.6354467078660258
1539131789218414,-0.05780117494468584,0.7810788128480963,-0.6355687800411993
1539131789234419,-0.06146334019989297,0.7791256580453192,-0.63251697566186
1539131789250424,-0.061097123674372256,0.778881513694972,-0.6339818417639429
1539131789266429,-0.06366063935301769,0.7824216067750056,-0.6343480582894636
1539131789282434,-0.06305027847714983,0.7815671015487906,-0.6369115739681086
1539131789298439,-0.057068741893644415,0.7832761120012206,-0.63593499656672
1539131789314444,-0.055970092317082276,0.7832761120012206,-0.635080491340505
1539131789330449,-0.05682459754329727,0.7821774624246585,-0.6361791409170672
1539131789346454,-0.055725947966735134,0.7813229571984435,-0.6349584191653315
1539131789362459,-0.0575570305943387,0.7783932249942778,-0.6334935530632486
1539131789378464,-0.05633630884260299,0.7807125963225756,-0.6305638208590829
1539131789394469,-0.05511558709086728,0.7796139467460135,-0.6332494087129015
1539131789410474,-0.05096513313496587,0.7809567406729228,-0.6355687800411993
1539131789426479,-0.052918287937743,0.7779049362935835,-0.6361791409170672
1539131789442484,-0.059632257572289404,0.7759517814908063,-0.6344701304646372
1539131789458490,-0.06610208285648911,0.7738765545128556,-0.6312962539101243
1539131789474495,-0.07342641336690336,0.7747310597390706,-0.6267795834287022
1539131789490500,-0.07403677424277122,0.7753414206149385,-0.6253147173266194
1539131789506505,-0.07476920729381265,0.7727779049362935,-0.6278782330052644
1539131789522510,-0.0733043411917298,0.7755855649652856,-0.6293430991073472
1539131789538513,-0.06915388723582838,0.7737544823376821,-0.6338597695887693
1539131789554518,-0.06939803158617552,0.7722896162355992,-0.6354467078660258
1539131789570523,-0.062317845426107965,0.7766842145418478,-0.6394750896467536
1539131789586528,-0.05865568017090084,0.779736018921187,-0.63935301747158
1539131789602533,-0.05523765926604085,0.7801022354467078,-0.6366674296177615
1539131789618538,-0.04840161745632088,0.7821774624246585,-0.6345922026398108
1539131789634543,-0.05035477225909801,0.7812008850232699,-0.6337376974135958
1539131789650548,-0.052918287937743,0.7761959258411535,-0.63422598611429
1539131789666553,-0.051941710536354435,0.7761959258411535,-0.6327611200122072
1539131789682558,-0.053772793163958,0.7769283588921949,-0.6273899443045701
1539131789698563,-0.05255207141222229,0.7779049362935835,-0.6264133669031815
1539131789714568,-0.05242999923704872,0.7818112458991378,-0.6332494087129015
1539131789730573,-0.056946669718470844,0.7769283588921949,-0.6382543678950179
1539131789746578,-0.06024261844815726,0.7689936675059128,-0.6428931105516136
1539131789762583,-0.061097123674372256,0.7699702449073014,-0.6387426565957122
1539131789778588,-0.05792324711985941,0.7719233997100785,-0.6339818417639429
1539131789794593,-0.054627298390172996,0.7769283588921949,-0.6289768825818265
1539131789810598,-0.06158541237506654,0.7808346684977492,-0.6260471503776608
1539131789826604,-0.06256198977645555,0.7791256580453192,-0.6284885938811322
1539131789842609,-0.0631723506523234,0.7820553902494849,-0.63422598611429
1539131789858612,-0.058411535820553695,0.7818112458991378,-0.6372777904936293
1539131789874617,-0.06353856717784412,0.7862058442053863,-0.6389868009460593
1539131789890622,-0.06305027847714983,0.789990081635767,-0.6449683375295643
1539131789906627,-0.06549172198062125,0.7877927824826427,-0.6461890592813
1539131789922632,-0.0695201037613491,0.7846189059281299,-0.6426489662012664
1539131789938637,-0.07086289768825837,0.7796139467460135,-0.6366674296177615
1539131789954642,-0.07220569161516766,0.7798580910963606,-0.6300755321583886
1539131789970647,-0.06280613412680269,0.7754634927901121,-0.6298313878080415
1539131789986652,-0.05365072098878443,0.7733882658121614,-0.6319066147859922
1539131790002657,-0.054505226214999425,0.7686274509803921,-0.6290989547570001
1539131790018662,-0.05413900968947871,0.7638666361486228,-0.6233615625238422
1539131790034667,-0.05938811322194226,0.7694819562066071,-0.6133516441596094
1539131790050672,-0.05865568017090084,0.7731441214618142,-0.618600747692073
1539131790066677,-0.05889982452124798,0.7771725032425421,-0.6207980468451972
1539131790082682,-0.05120927748531301,0.7869382772564277,-0.6265354390783551
1539131790098687,-0.05230792706187515,0.7868162050812542,-0.6338597695887693
1539131790114692,-0.05230792706187515,0.793408102540627,-0.6408178835736629
1539131790130697,-0.05352864881361086,0.7927977416647591,-0.6472877088578621
1539131790146702,-0.053284504463263715,0.787426565957122,-0.65302510109102
1539131790162707,-0.062439917601281536,0.7826657511253527,-0.6527809567406728
1539131790178711,-0.06634622720683625,0.7764400701915006,-0.6437476157778286
1539131790194716,-0.06634622720683625,0.7744869153887235,-0.6326390478370336
1539131790210721,-0.062439917601281536,0.7757076371404592,-0.620309758144503
1539131790226726,-0.055848020141908705,0.7763179980163271,-0.6183566033417258
1539131790242731,-0.055725947966735134,0.7793698023956663,-0.6165255207141223
1539131790258736,-0.06146334019989297,0.7732661936369878,-0.6242160677500572
1539131790274741,-0.06195162890058725,0.7770504310673685,-0.6287327382314793
1539131790290746,-0.06353856717784412,0.7744869153887235,-0.6364232852674143
1539131790306751,-0.06475928892957983,0.779736018921187,-0.6389868009460593
1539131790322756,-0.06305027847714983,0.7853513389791713,-0.6415503166247043
1539131790338761,-0.06439307240405912,0.7866941329060806,-0.6398413061722743
1539131790354766,-0.06207370107576082,0.7868162050812542,-0.6399633783474479
1539131790370771,-0.060852979324025114,0.7836423285267413,-0.6361791409170672
1539131790386776,-0.05743495841916513,0.7847409781033035,-0.6321507591363393
1539131790402781,-0.0604867627985044,0.7792477302204928,-0.6289768825818265
1539131790418786,-0.0686655985351341,0.7764400701915006,-0.6253147173266194
1539131790434791,-0.07257190814068837,0.7738765545128556,-0.6261692225528344
1539131790450796,-0.07183947508964694,0.7736324101625085,-0.6286106660563058
1539131790466801,-0.06598001068131554,0.7736324101625085,-0.6309300373846036
1539131790482806,-0.06732280460822482,0.7757076371404592,-0.6284885938811322
1539131790498809,-0.05816739147020655,0.7787594415197985,-0.6275120164797436
1539131790514814,-0.05523765926604085,0.7827878233005263,-0.6336156252384222
1539131790530820,-0.05120927748531301,0.7841306172274356,-0.6369115739681086
1539131790546825,-0.05267414358739586,0.7833981841763942,-0.6378881513694972
1539131790562830,-0.055970092317082276,0.784008545052262,-0.6355687800411993
1539131790578835,-0.05633630884260299,0.7819333180743113,-0.6332494087129015
1539131790594840,-0.05218585488670158,0.7810788128480963,-0.6343480582894636
1539131790610845,-0.05413900968947871,0.7747310597390706,-0.6330052643625543
1539131790626850,-0.050476844434271584,0.7721675440604256,-0.6311741817349508
1539131790642855,-0.05645838101777656,0.7682612344548714,-0.6234836346990158
1539131790658860,-0.06536964980544768,0.7627679865720607,-0.6179903868162051
1539131790674865,-0.0686655985351341,0.763256275272755,-0.6144502937361715
1539131790690870,-0.06439307240405912,0.7719233997100785,-0.6142061493858244
1539131790706875,-0.05352864881361086,0.7799801632715342,-0.622018768596933
1539131790722880,-0.05816739147020655,0.7804684519722285,-0.6388647287708857
1539131790738885,-0.06158541237506654,0.7870603494316013,-0.6480201419089036
1539131790754890,-0.07318226901655622,0.7901121538109406,-0.6454566262302586
1539131790770895,-0.07086289768825837,0.7941405355916684,-0.6485084306095978
1539131790786900,-0.06439307240405912,0.7923094529640649,-0.6489967193102921
1539131790802905,-0.056946669718470844,0.7946288242923627,-0.6450904097047379
1539131790818908,-0.055848020141908705,0.7855954833295185,-0.6463111314564736
1539131790834913,-0.05914396887159512,0.7809567406729228,-0.636789501792935
1539131790850918,-0.05511558709086728,0.7724116884107728,-0.6270237277790494
1539131790866923,-0.05523765926604085,0.7722896162355992,-0.6204318303196765
1539131790882928,-0.0567025253681237,0.7678950179293507,-0.6122529945830473
1539131790898934,-0.06170748455024011,0.7697261005569542,-0.6122529945830473
1539131790914939,-0.06366063935301769,0.76752880140383,-0.6212863355458915
1539131790930944,-0.05951018539711583,0.7724116884107728,-0.6299534599832151
1539131790946949,-0.05926604104676869,0.7779049362935835,-0.6328831921873808
1539131790962954,-0.06073090714885154,0.7887693598840313,-0.6339818417639429
1539131790978959,-0.06903181506065481,0.7913328755626763,-0.6380102235446707
1539131790994964,-0.07183947508964694,0.7907225146868084,-0.64960708018616
1539131791010969,-0.0657358663309684,0.7849851224536506,-0.6480201419089036
1539131791026974,-0.05658045319295013,0.7852292668039977,-0.6428931105516136
1539131791042979,-0.05609216449225585,0.7833981841763942,-0.6331273365377279
1539131791058984,-0.06024261844815726,0.7770504310673685,-0.6288548104066529
1539131791074989,-0.05938811322194226,0.7730220492866406,-0.6286106660563058
1539131791090994,-0.05792324711985941,0.7699702449073014,-0.6271457999542229
1539131791106999,-0.05035477225909801,0.7733882658121614,-0.6216525520714122
1539131791123004,-0.052063782711528006,0.7761959258411535,-0.6193331807431144
1539131791139007,-0.05889982452124798,0.7755855649652856,-0.6229953459983215
1539131791155012,-0.07232776379034123,0.7732661936369878,-0.6210421911955444
1539131791171017,-0.07196154726482051,0.7793698023956663,-0.6255588616769665
1539131791187022,-0.06939803158617552,0.7787594415197985,-0.633371480888075
1539131791203027,-0.07098496986343195,0.7792477302204928,-0.6388647287708857
1539131791219032,-0.07037460898756409,0.7777828641184099,-0.6348363469901579
1539131791235037,-0.06939803158617552,0.7790035858701456,-0.6322728313115129
1539131791251042,-0.06341649500267055,0.7798580910963606,-0.6289768825818265
1539131791267048,-0.05609216449225585,0.7809567406729228,-0.6299534599832151
1539131791283053,-0.05242999923704872,0.7787594415197985,-0.6363012130922407
1539131791299058,-0.05145342183566015,0.7791256580453192,-0.6361791409170672
1539131791315063,-0.050476844434271584,0.780590524147402,-0.6361791409170672
1539131791331068,-0.05133134966048658,0.7816891737239642,-0.6378881513694972
1539131791347073,-0.048157473105973736,0.7855954833295185,-0.6372777904936293
1539131791363078,-0.04693675135423803,0.7812008850232699,-0.6420386053253986
1539131791379083,-0.049134050507362304,0.7819333180743113,-0.635080491340505
1539131791395088,-0.04388494697489875,0.7869382772564277,-0.6326390478370336
1539131791411093,-0.04449530785076661,0.7841306172274356,-0.6287327382314793
1539131791427098,-0.044007019150072324,0.7801022354467078,-0.6264133669031815
1539131791443103,-0.04522774090180803,0.7796139467460135,-0.6284885938811322
1539131791459106,-0.05389486533913157,0.7748531319142442,-0.6289768825818265
1539131791475111,-0.05560387579156156,0.7750972762645914,-0.6343480582894636
1539131791491116,-0.05560387579156156,0.7738765545128556,-0.6317845426108186
1539131791507121,-0.058533607995727266,0.7813229571984435,-0.6321507591363393
1539131791523126,-0.06451514457923269,0.7833981841763942,-0.6290989547570001
1539131791539131,-0.06768902113374553,0.7844968337529563,-0.6299534599832151
1539131791555136,-0.06732280460822482,0.7833981841763942,-0.6344701304646372
1539131791571141,-0.0631723506523234,0.7830319676508735,-0.6383764400701915
1539131791587146,-0.06329442282749698,0.778881513694972,-0.6389868009460593
1539131791603151,-0.061097123674372256,0.779736018921187,-0.6377660791943236
1539131791619156,-0.05865568017090084,0.7793698023956663,-0.631662470435645
1539131791635162,-0.057190814068817986,0.779736018921187,-0.6269016556038758
1539131791651167,-0.05474937056534657,0.7792477302204928,-0.6269016556038758
1539131791667172,-0.050598916609445155,0.7798580910963606,-0.6247043564507515
1539131791683177,-0.05035477225909801,0.7787594415197985,-0.6284885938811322
1539131791699182,-0.04901197833218873,0.7774166475928892,-0.63593499656672
1539131791715187,-0.054383154039825854,0.7765621423666742,-0.6361791409170672
1539131791731192,-0.05816739147020655,0.7799801632715342,-0.6334935530632486
1539131791747197,-0.05780117494468584,0.7794918745708399,-0.6336156252384222
1539131791763202,-0.05242999923704872,0.7794918745708399,-0.6299534599832151
1539131791779205,-0.05011062790875087,0.7787594415197985,-0.6332494087129015
1539131791795210,-0.04852368963149445,0.7737544823376821,-0.6304417486839093
1539131791811215,-0.04437323567559304,0.7827878233005263,-0.6306858930342565
1539131791827220,-0.04730296787975874,0.7796139467460135,-0.63422598611429
1539131791843225,-0.05279621576256943,0.7807125963225756,-0.6405737392233157
1539131791859230,-0.058289463645380124,0.7794918745708399,-0.6415503166247043
1539131791875235,-0.057312886243991557,0.7787594415197985,-0.6323949034866865
1539131791891240,-0.05401693751430514,0.7796139467460135,-0.6269016556038758
1539131791907245,-0.054383154039825854,0.7782711528191042,-0.6247043564507515
1539131791923250,-0.0567025253681237,0.7774166475928892,-0.6264133669031815
1539131791939255,-0.05658045319295013,0.7777828641184099,-0.6267795834287022
1539131791955260,-0.05218585488670158,0.7791256580453192,-0.6283665217059586
1539131791971265,-0.057068741893644415,0.7782711528191042,-0.6337376974135958
1539131791987270,-0.06439307240405912,0.7782711528191042,-0.6354467078660258
1539131792003275,-0.0669565880827041,0.7825436789501792,-0.6386205844205386
1539131792019281,-0.05999847409781012,0.7813229571984435,-0.6389868009460593
1539131792035286,-0.04986648355840373,0.7897459372854199,-0.6394750896467536
1539131792051291,-0.05255207141222229,0.7849851224536506,-0.6428931105516136
1539131792067296,-0.05792324711985941,0.7792477302204928,-0.6369115739681086
1539131792083301,-0.062195773250934394,0.7759517814908063,-0.6259250782024872
1539131792099304,-0.0640268558785384,0.7774166475928892,-0.6182345311665522
1539131792115309,-0.06195162890058725,0.7760738536659799,-0.616891737239643
1539131792131314,-0.0575570305943387,0.7792477302204928,-0.6232394903486687
1539131792147319,-0.05609216449225585,0.7775387197680628,-0.6332494087129015
1539131792163324,-0.05816739147020655,0.7808346684977492,-0.6377660791943236
1539131792179329,-0.06060883497367797,0.7863279163805599,-0.6373998626688029
1539131792195334,-0.0640268558785384,0.7896238651102463,-0.63764400701915
1539131792211339,-0.06182955672541368,0.7876707103074692,-0.6378881513694972
1539131792227344,-0.05499351491569371,0.7862058442053863,-0.6426489662012664
1539131792243349,-0.04986648355840373,0.7825436789501792,-0.6405737392233157
1539131792259354,-0.04852368963149445,0.7825436789501792,-0.6381322957198443
1539131792275359,-0.05267414358739586,0.7770504310673685,-0.6341039139391165
1539131792291364,-0.05352864881361086,0.7750972762645914,-0.6265354390783551
1539131792307369,-0.05279621576256943,0.7737544823376821,-0.6248264286259251
1539131792323374,-0.04754711223010588,0.7759517814908063,-0.6250705729762722
1539131792339379,-0.04718089570458517,0.7771725032425421,-0.6248264286259251
1539131792355384,-0.04974441138323016,0.778027008468757,-0.6277561608300908
1539131792371389,-0.05548180361638799,0.7796139467460135,-0.6280003051804379
1539131792387395,-0.05889982452124798,0.7815671015487906,-0.6323949034866865
1539131792403400,-0.05914396887159512,0.7801022354467078,-0.63764400701915
1539131792419403,-0.0575570305943387,0.7783932249942778,-0.6398413061722743
1539131792435408,-0.05096513313496587,0.7838864728770885,-0.6383764400701915
1539131792451413,-0.04974441138323016,0.7813229571984435,-0.63764400701915
1539131792467418,-0.05255207141222229,0.7810788128480963,-0.6349584191653315
1539131792483423,-0.052063782711528006,0.7793698023956663,-0.63080796520943
1539131792499428,-0.051941710536354435,0.7790035858701456,-0.6283665217059586
1539131792515433,-0.05365072098878443,0.7736324101625085,-0.6271457999542229
1539131792531438,-0.05523765926604085,0.7735103379873349,-0.6258030060273136
1539131792547443,-0.05743495841916513,0.7731441214618142,-0.6247043564507515
1539131792563448,-0.059876401922636546,0.7759517814908063,-0.6236057068741894
1539131792579453,-0.062317845426107965,0.7799801632715342,-0.6288548104066529
1539131792595458,-0.06598001068131554,0.7802243076218813,-0.6344701304646372
1539131792611463,-0.062439917601281536,0.7873044937819484,-0.6395971618219272
1539131792627468,-0.06427100022888554,0.7868162050812542,-0.6443579766536964
1539131792643473,-0.06182955672541368,0.7844968337529563,-0.6431372549019607
1539131792659478,-0.06170748455024011,0.7821774624246585,-0.6422827496757457
1539131792675483,-0.062317845426107965,0.7820553902494849,-0.6380102235446707
1539131792691488,-0.058411535820553695,0.7782711528191042,-0.6315403982604715
1539131792707493,-0.054505226214999425,0.7718013275349049,-0.6266575112535286
1539131792723498,-0.05365072098878443,0.7731441214618142,-0.6204318303196765
1539131792739502,-0.05279621576256943,0.7728999771114671,-0.6188448920424201
1539131792755507,-0.048035400930800165,0.7760738536659799,-0.6212863355458915
1539131792771512,-0.04339665827420447,0.7820553902494849,-0.6310521095597772
1539131792787517,-0.045593957427328746,0.7843747615777827,-0.6383764400701915
1539131792803522,-0.04730296787975874,0.7835202563515677,-0.6438696879530021
1539131792819527,-0.05230792706187515,0.7810788128480963,-0.6461890592813
1539131792835532,-0.05096513313496587,0.7816891737239642,-0.6433813992523079
1539131792851537,-0.052063782711528006,0.7781490806439306,-0.6352025635156786
1539131792867542,-0.04742504005493231,0.7816891737239642,-0.6280003051804379
1539131792883547,-0.04901197833218873,0.7812008850232699,-0.6237277790493629
1539131792899552,-0.054383154039825854,0.7764400701915006,-0.6237277790493629
1539131792915557,-0.05499351491569371,0.7782711528191042,-0.6245822842755779
1539131792931562,-0.053772793163958,0.7770504310673685,-0.6259250782024872
1539131792947567,-0.05743495841916513,0.7757076371404592,-0.6328831921873808
1539131792963572,-0.0613412680247194,0.7763179980163271,-0.6332494087129015
1539131792979577,-0.05902189669642155,0.781445029373617,-0.6332494087129015
1539131792995582,-0.061097123674372256,0.7829098954756999,-0.6364232852674143
1539131793011587,-0.05523765926604085,0.7873044937819484,-0.6391088731212329
1539131793027592,-0.05560387579156156,0.7881589990081634,-0.6408178835736629
1539131793043597,-0.05792324711985941,0.7876707103074692,-0.6430151827267871
1539131793059600,-0.062317845426107965,0.7862058442053863,-0.641916533150225
1539131793075605,-0.06366063935301769,0.7841306172274356,-0.6341039139391165
1539131793091611,-0.06390478370336483,0.7787594415197985,-0.6334935530632486
1539131793107616,-0.05792324711985941,0.7792477302204928,-0.6283665217059586
1539131793123621,-0.05548180361638799,0.7724116884107728,-0.6295872434576943
1539131793139626,-0.05218585488670158,0.7724116884107728,-0.631662470435645
1539131793155631,-0.05365072098878443,0.7720454718852521,-0.6286106660563058
1539131793171636,-0.058533607995727266,0.7725337605859464,-0.6242160677500572
1539131793187641,-0.05767910276951227,0.7790035858701456,-0.6225070572976272
1539131793203646,-0.05682459754329727,0.780590524147402,-0.6293430991073472
1539131793219651,-0.05902189669642155,0.7752193484397649,-0.6365453574425879
1539131793235656,-0.05157549401083372,0.7713130388342107,-0.6413061722743572
1539131793251661,-0.04315251392385733,0.7710688944838635,-0.6432593270771343
1539131793267666,-0.038879987792782345,0.7739986266880292,-0.6360570687418936
1539131793283671,-0.03424124513618665,0.7813229571984435,-0.6323949034866865
1539131793299676,-0.031189440756847375,0.7821774624246585,-0.6280003051804379
1539131793315681,-0.040100709544518054,0.7858396276798656,-0.6310521095597772
1539131793331686,-0.04571602960250232,0.7881589990081634,-0.6371557183184557
1539131793347691,-0.049378194857709445,0.7866941329060806,-0.6459449149309529
1539131793363696,-0.053772793163958,0.7862058442053863,-0.6492408636606393
1539131793379699,-0.049500267032883016,0.780590524147402,-0.6475318532082093
1539131793395704,-0.05365072098878443,0.7819333180743113,-0.6433813992523079
1539131793411709,-0.05804531929503298,0.7731441214618142,-0.6361791409170672
1539131793427714,-0.056946669718470844,0.7735103379873349,-0.6250705729762722
1539131793443719,-0.06463721675440626,0.7709468223086899,-0.6154268711375601
1539131793459725,-0.06341649500267055,0.7676508735790035,-0.6122529945830473
1539131793475730,-0.05682459754329727,0.7711909666590371,-0.6157930876630808
1539131793491735,-0.04974441138323016,0.7733882658121614,-0.6269016556038758
1539131793507740,-0.048035400930800165,0.7763179980163271,-0.6370336461432822
1539131793523745,-0.05816739147020655,0.7755855649652856,-0.6392309452964064
1539131793539750,-0.06012054627298369,0.7792477302204928,-0.6373998626688029
1539131793555755,-0.06146334019989297,0.7838864728770885,-0.6345922026398108
1539131793571760,-0.04901197833218873,0.793408102540627,-0.6299534599832151
1539131793587765,-0.04193179217212162,0.7915770199130234,-0.6369115739681086
1539131793603770,-0.039002059967955915,0.781445029373617,-0.6449683375295643
1539131793619775,-0.0386358434424352,0.7757076371404592,-0.6472877088578621
1539131793635780,-0.04193179217212162,0.7693598840314335,-0.6430151827267871
1539131793651785,-0.041565575646600905,0.7697261005569542,-0.6369115739681086
1539131793667790,-0.042908369573510186,0.7656977187762264,-0.6273899443045701
1539131793683795,-0.04388494697489875,0.7698481727321278,-0.6171358815899901
1539131793699829,-0.04315251392385733,0.7730220492866406,-0.6145723659113451
1539131793715834,-0.04693675135423803,0.7748531319142442,-0.6156710154879073
1539131793731839,-0.04730296787975874,0.7782711528191042,-0.6242160677500572
1539131793747844,-0.05157549401083372,0.7854734111543449,-0.6387426565957122
1539131793763849,-0.0613412680247194,0.7871824216067749,-0.6511940184634164
1539131793779854,-0.0631723506523234,0.7931639581902798,-0.6549782558937971
1539131793795859,-0.06341649500267055,0.7930418860151063,-0.6571755550469214
1539131793811864,-0.06329442282749698,0.789990081635767,-0.64960708018616
1539131793827869,-0.053040360112916574,0.7903562981612877,-0.645334554055085
1539131793843874,-0.050476844434271584,0.7837644007019149,-0.6334935530632486
1539131793859879,-0.044007019150072324,0.7833981841763942,-0.6300755321583886
1539131793875884,-0.04644846265354374,0.7713130388342107,-0.6281223773556115
1539131793891889,-0.04351873044937804,0.7696040283817807,-0.6237277790493629
1539131793907894,-0.044129091325245895,0.768383306630045,-0.619455252918288
1539131793923899,-0.04644846265354374,0.7681391622796978,-0.6178683146410315
1539131793939904,-0.04229800869764233,0.7720454718852521,-0.6199435416189822
1539131793955909,-0.04351873044937804,0.7766842145418478,-0.6292210269321736
1539131793971914,-0.042664225223163044,0.7785152971694513,-0.6354467078660258
1539131793987919,-0.04083314259555948,0.7851071946288242,-0.6339818417639429
1539131794003924,-0.04315251392385733,0.787426565957122,-0.6369115739681086
1539131794019928,-0.044007019150072324,0.7858396276798656,-0.6426489662012664
1539131794035933,-0.04644846265354374,0.7868162050812542,-0.64448004882887
1539131794051938,-0.04473945220111375,0.7826657511253527,-0.645334554055085
1539131794067943,-0.045593957427328746,0.7802243076218813,-0.6398413061722743
1539131794083948,-0.04486152437628732,0.7775387197680628,-0.6343480582894636
1539131794099953,-0.04437323567559304,0.781445029373617,-0.6269016556038758
1539131794115958,-0.04058899824521234,0.7809567406729228,-0.6267795834287022
1539131794131963,-0.0462043183031966,0.7760738536659799,-0.6290989547570001
1539131794147968,-0.04571602960250232,0.7759517814908063,-0.6311741817349508
1539131794163973,-0.04962233920805659,0.7774166475928892,-0.6338597695887693
1539131794179978,-0.049134050507362304,0.7790035858701456,-0.6327611200122072
1539131794195983,-0.050598916609445155,0.7775387197680628,-0.6334935530632486
1539131794211988,-0.05255207141222229,0.7801022354467078,-0.6353246356908522
1539131794227993,-0.050476844434271584,0.782299534599832,-0.6315403982604715
1539131794243998,-0.04986648355840373,0.7829098954756999,-0.6330052643625543
1539131794260003,-0.05157549401083372,0.7794918745708399,-0.6389868009460593
1539131794276008,-0.04901197833218873,0.7816891737239642,-0.6395971618219272
1539131794292013,-0.04522774090180803,0.7818112458991378,-0.6373998626688029
1539131794308018,-0.04461738002594018,0.7803463797970549,-0.6363012130922407
1539131794324023,-0.04217593652246876,0.7769283588921949,-0.6356908522163729
1539131794340026,-0.04596017395284946,0.7766842145418478,-0.6309300373846036
1539131794356032,-0.04229800869764233,0.7753414206149385,-0.6303196765087358
1539131794372037,-0.04046692607003877,0.7772945754177156,-0.6272678721293965
1539131794388042,-0.04522774090180803,0.7750972762645914,-0.6273899443045701
1539131794404047,-0.046814679179064456,0.7750972762645914,-0.6301976043335622
1539131794420052,-0.04974441138323016,0.7777828641184099,-0.6312962539101243
1539131794436057,-0.05023270008392444,0.7793698023956663,-0.6328831921873808
1539131794452062,-0.053406576638437286,0.7790035858701456,-0.6372777904936293
1539131794468067,-0.04876783398184159,0.7781490806439306,-0.6378881513694972
1539131794484072,-0.04583810177767589,0.7783932249942778,-0.6352025635156786
1539131794500077,-0.042908369573510186,0.7794918745708399,-0.6328831921873808
1539131794516082,-0.046814679179064456,0.7799801632715342,-0.6321507591363393
1539131794532087,-0.048035400930800165,0.7825436789501792,-0.6294651712825208
1539131794548092,-0.053284504463263715,0.7821774624246585,-0.6327611200122072
1539131794564097,-0.04461738002594018,0.7843747615777827,-0.6347142748149843
1539131794580102,-0.04364080262455161,0.7798580910963606,-0.6405737392233157
1539131794596107,-0.04486152437628732,0.7791256580453192,-0.6398413061722743
1539131794612112,-0.04644846265354374,0.7837644007019149,-0.6381322957198443
1539131794628117,-0.05535973144121442,0.7813229571984435,-0.6345922026398108
1539131794644122,-0.058289463645380124,0.7804684519722285,-0.6343480582894636
1539131794660125,-0.05352864881361086,0.779736018921187,-0.6321507591363393
1539131794676130,-0.04827954528114731,0.7774166475928892,-0.6288548104066529
1539131794692135,-0.04901197833218873,0.7759517814908063,-0.6240939955748837
1539131794708140,-0.053040360112916574,0.7719233997100785,-0.6265354390783551
1539131794724146,-0.05413900968947871,0.7753414206149385,-0.6260471503776608
1539131794740151,-0.04827954528114731,0.7801022354467078,-0.6261692225528344
1539131794756156,-0.04254215304798947,0.7826657511253527,-0.633371480888075
1539131794772161,-0.043030441748683756,0.7807125963225756,-0.6391088731212329
1539131794788166,-0.04632639047837017,0.7813229571984435,-0.6387426565957122
1539131794804171,-0.04351873044937804,0.7818112458991378,-0.6366674296177615
1539131794820176,-0.043030441748683756,0.7819333180743113,-0.6358129243915465
1539131794836181,-0.04046692607003877,0.7821774624246585,-0.6366674296177615
1539131794852186,-0.042786297398336615,0.7794918745708399,-0.6391088731212329
1539131794868191,-0.04217593652246876,0.7787594415197985,-0.636789501792935
1539131794884196,-0.04046692607003877,0.7801022354467078,-0.6317845426108186
1539131794900201,-0.04376287479972518,0.7794918745708399,-0.6282444495307851
1539131794916206,-0.04583810177767589,0.7787594415197985,-0.6305638208590829
1539131794932211,-0.04888990615701516,0.7793698023956663,-0.6275120164797436
1539131794948216,-0.04644846265354374,0.7791256580453192,-0.6303196765087358
1539131794964221,-0.04571602960250232,0.7764400701915006,-0.63080796520943
1539131794980224,-0.04596017395284946,0.786572060730907,-0.6287327382314793
1539131794996229,-0.0470588235294116,0.7962157625696191,-0.6343480582894636
1539131795012234,-0.04986648355840373,0.793408102540627,-0.6486305027847714
1539131795028239,-0.05658045319295013,0.7909666590371556,-0.6609597924773021
1539131795044244,-0.05120927748531301,0.7873044937819484,-0.6642557412069885
1539131795060249,-0.04608224612802303,0.7927977416647591,-0.6250705729762722
1539131795076254,-0.06524757763027411,0.7617914091706721,-0.6173800259403373
1539131795092260,-0.04437323567559304,0.7672846570534828,-0.6085908293278401
1539131795108265,-0.0462043183031966,0.7667963683527885,-0.5966277561608302
1539131795124270,-0.03936827649347663,0.7616693369954985,-0.606637674525063
1539131795140275,-0.04071107042038591,0.7619134813458457,-0.6209201190203708
1539131795156280,-0.04046692607003877,0.7697261005569542,-0.6343480582894636
1539131795172285,-0.04339665827420447,0.7801022354467078,-0.6432593270771343
1539131795188290,-0.04742504005493231,0.7888914320592049,-0.6457007705806057
1539131795204295,-0.053040360112916574,0.7932860303654534,-0.6447241931792171
1539131795220300,-0.0508430609597923,0.798535133897917,-0.6437476157778286
1539131795236305,-0.04486152437628732,0.794262607766842,-0.6483863584344243
1539131795252310,-0.038879987792782345,0.7906004425116349,-0.6497291523613336
1539131795268315,-0.04132143129625376,0.7875486381322956,-0.6449683375295643
1539131795284320,-0.04608224612802303,0.7841306172274356,-0.6377660791943236
1539131795300323,-0.04779125658045302,0.7764400701915006,-0.6298313878080415
1539131795316328,-0.04852368963149445,0.7724116884107728,-0.6217746242465858
1539131795332333,-0.04388494697489875,0.7713130388342107,-0.6207980468451972
1539131795348338,-0.04229800869764233,0.7691157396810864,-0.6226291294728008
1539131795364343,-0.045593957427328746,0.7720454718852521,-0.6218966964217594
1539131795380348,-0.053406576638437286,0.7758297093156328,-0.6198214694438087
1539131795396353,-0.06036469062333083,0.7771725032425421,-0.6273899443045701
1539131795412358,-0.06146334019989297,0.778027008468757,-0.6323949034866865
1539131795428363,-0.05413900968947871,0.780590524147402,-0.6371557183184557
1539131795444368,-0.04766918440527945,0.7838864728770885,-0.6415503166247043
1539131795460374,-0.0432745860990309,0.7846189059281299,-0.6446021210040436
1539131795476379,-0.042786297398336615,0.7868162050812542,-0.6414282444495307
1539131795492384,-0.02667277027542525,-0.44379339284351893,-1.3072098878461889
1539131795508389,0.09246967269397999,0.9748073548485543,-0.037659266041046635
1539131795524394,0.5087357900358587,2.1220416571297775,-0.3696955825131609
1539131795540399,-0.8087891966124969,0.05145342183566015,-0.9618677042801558
1539131795556404,-0.1732814526588844,0.11480888075074347,-1.875944151979858
1539131795572409,0.40473029678797623,1.0734416723887996,-1.3079423208972303
1539131795588414,0.44501411459525464,1.249103532463569,-0.6830548561837184
1539131795604419,0.22870222018768604,1.20332646677348,-0.4370794232089721
1539131795620422,-0.17694361791409152,0.820141908903639,-0.46515602349889384
1539131795636427,-0.25214007782101167,0.5969939726863505,-0.5965056839856566
1539131795652432,-0.14740215152208735,0.5891813534752419,-0.599801632715343
1539131795668437,-0.05609216449225585,0.6189669642175932,-0.47272449835965524
1539131795684442,-0.05548180361638799,0.6303196765087362,-0.37628747997253376
1539131795700447,-0.05804531929503298,0.6504615854123754,-0.38226901655603873
1539131795716452,-0.055970092317082276,0.6577859159227897,-0.43830014496070824
1539131795732457,-0.13299763485160598,0.6489967193102926,-0.4816357671473259
1539131795748462,-0.19171435111009405,0.6537575341420618,-0.546211947814145
1539131795764467,-0.15045395590142663,0.6782940413519496,-0.65473411154345
1539131795780472,-0.07379262989242408,0.7239490348668651,-0.7505607690547036
1539131795796477,-0.045471885252155175,0.7733882658121614,-0.8095216296635384
1539131795812482,-0.024963759822995257,0.8101319905394062,-0.8498054474708172
1539131795828487,-0.03997863736934448,0.8325932707713433,-0.8607919432364386
1539131795844493,-0.05120927748531301,0.8374761577782861,-0.8543221179522393
1539131795860498,-0.03814755474174092,0.8393072404058897,-0.827954528114748
1539131795876503,-0.013488975356679589,0.8263675898374911,-0.7841306172274356
1539131795892508,0.011902037079423167,0.8046387426565955,-0.7343251697566187
1539131795908513,0.033752956435492365,0.7903562981612877,-0.6770733196002134
1539131795924518,0.025940337224383825,0.766674296177615,-0.6287327382314793
1539131795940551,0.004455634393835339,0.7457999542229343,-0.5883268482490274
1539131795956556,-0.025818265049210254,0.7276112001220723,-0.566231784542611
1539131795972561,-0.045349813076981604,0.7263904783703365,-0.5562218661783778
1539131795988567,-0.05108720531013944,0.7257801174944687,-0.5685511558709089
1539131796004572,-0.052063782711528006,0.7395742732890822,-0.5907682917524988
1539131796020577,-0.060975051499198685,0.75214770733196,-0.6150606546120394
1539131796036582,-0.07403677424277122,0.7639887083237964,-0.6403295948729686
1539131796052587,-0.07660028992141621,0.7772945754177156,-0.6594949263752192
1539131796068592,-0.07232776379034123,0.7912108033875027,-0.672922865644312
1539131796084597,-0.05865568017090084,0.803662165255207,-0.6792706187533377
1539131796100602,-0.05279621576256943,0.7987792782482641,-0.6808575570305941
1539131796116607,-0.04583810177767589,0.7947508964675363,-0.6735332265201799
1539131796132612,-0.046692607003890885,0.788281071183337,-0.6553444724193178
1539131796148617,-0.044007019150072324,0.7816891737239642,-0.6366674296177615
1539131796164622,-0.04205386434729519,0.7718013275349049,-0.6190890363927672
1539131796180627,-0.04217593652246876,0.76923781185626,-0.6164034485389487
1539131796196632,-0.042786297398336615,0.76411078049897,-0.6150606546120394
1539131796212637,-0.053284504463263715,0.7630121309224078,-0.6153047989623865
1539131796228642,-0.05792324711985941,0.7685053788052185,-0.6225070572976272
1539131796244647,-0.06170748455024011,0.7700923170824749,-0.6312962539101243
1539131796260650,-0.06182955672541368,0.7749752040894178,-0.6404516670481422
1539131796276655,-0.05804531929503298,0.778881513694972,-0.6469214923323414
1539131796292660,-0.05474937056534657,0.7791256580453192,-0.6489967193102921
1539131796308665,-0.048035400930800165,0.7846189059281299,-0.6466773479819943
1539131796324670,-0.04071107042038591,0.784008545052262,-0.6464332036316471
1539131796340675,-0.03668268863965807,0.7799801632715342,-0.64277103837644
1539131796356680,-0.03265430685893023,0.7790035858701456,-0.6381322957198443
1539131796372686,-0.03057907988097952,0.780590524147402,-0.6337376974135958
1539131796388691,-0.038879987792782345,0.7774166475928892,-0.6348363469901579
1539131796404696,-0.042908369573510186,0.7736324101625085,-0.631662470435645
1539131796420701,-0.046814679179064456,0.7766842145418478,-0.6290989547570001
1539131796436706,-0.044251163500419466,0.7791256580453192,-0.6305638208590829
1539131796452711,-0.05169756618600729,0.7573968108644236,-0.6391088731212329
1539131796468716,-0.04229800869764233,0.7859616998550392,-0.617746242465858
1539131796484721,-0.06170748455024011,0.7962157625696191,-0.6293430991073472
1539131796500726,-0.07354848554207694,0.7682612344548714,-0.6586404211490042
1539131796516731,-0.050476844434271584,0.7808346684977492,-0.6574196993972685
1539131796532736,-0.05133134966048658,0.7858396276798656,-0.6420386053253986
1539131796548741,-0.053772793163958,0.7736324101625085,-0.6431372549019607
1539131796564746,-0.05609216449225585,0.7689936675059128,-0.63422598611429
1539131796580749,-0.049378194857709445,0.7750972762645914,-0.6173800259403373
1539131796596754,-0.04693675135423803,0.7746089875638971,-0.6201876859693294
1539131796612759,-0.04583810177767589,0.7709468223086899,-0.6297093156328679
1539131796628764,-0.03985656519417091,0.7719233997100785,-0.6336156252384222
1539131796644769,-0.03546196688792236,0.7739986266880292,-0.6353246356908522
1539131796660774,-0.040100709544518054,0.7739986266880292,-0.6322728313115129
1539131796676779,-0.044251163500419466,0.780590524147402,-0.6312962539101243
1539131796692784,-0.04779125658045302,0.7881589990081634,-0.6415503166247043
1539131796708789,-0.058411535820553695,0.7810788128480963,-0.6540016784924085
1539131796724794,-0.05780117494468584,0.7821774624246585,-0.650461585412375
1539131796740800,-0.05267414358739586,0.7841306172274356,-0.6409399557488364
1539131796756805,-0.05035477225909801,0.781445029373617,-0.6353246356908522
1539131796772810,-0.05096513313496587,0.7774166475928892,-0.6372777904936293
1539131796788815,-0.053162432288090145,0.7696040283817807,-0.6373998626688029
1539131796804820,-0.04779125658045302,0.7693598840314335,-0.63080796520943
1539131796820825,-0.04180971999694805,0.7718013275349049,-0.6234836346990158
1539131796836830,-0.03961242084382377,0.7720454718852521,-0.6256809338521401
1539131796852835,-0.04107728694590662,0.7741206988632028,-0.6276340886549172
1539131796868840,-0.04852368963149445,0.7757076371404592,-0.6348363469901579
1539131796884845,-0.05548180361638799,0.778027008468757,-0.6360570687418936
1539131796900848,-0.058289463645380124,0.7791256580453192,-0.6399633783474479
1539131796916853,-0.05780117494468584,0.7804684519722285,-0.6428931105516136
1539131796932858,-0.053772793163958,0.7787594415197985,-0.6463111314564736
1539131796948863,-0.05011062790875087,0.7804684519722285,-0.64106202792401
1539131796964868,-0.04596017395284946,0.7792477302204928,-0.6353246356908522
1539131796980873,-0.04376287479972518,0.7781490806439306,-0.6355687800411993
1539131796996878,-0.03802548256656735,0.7772945754177156,-0.6366674296177615
1539131797012883,-0.038757915617608774,0.7737544823376821,-0.6358129243915465
1539131797028888,-0.0424200808728159,0.7742427710383764,-0.6320286869611658
1539131797044893,-0.045593957427328746,0.7721675440604256,-0.6262912947280079
1539131797060898,-0.04754711223010588,0.7747310597390706,-0.6254367895017929
1539131797076903,-0.052063782711528006,0.7757076371404592,-0.6284885938811322
1539131797092908,-0.051941710536354435,0.7794918745708399,-0.6343480582894636
1539131797108914,-0.049256122682535874,0.7777828641184099,-0.6416723887998779
1539131797124919,-0.04962233920805659,0.779736018921187,-0.6392309452964064
1539131797140924,-0.04718089570458517,0.7801022354467078,-0.6442359044785229
1539131797156929,-0.04974441138323016,0.7794918745708399,-0.6442359044785229
1539131797172934,-0.04901197833218873,0.7810788128480963,-0.6387426565957122
1539131797188939,-0.04742504005493231,0.7808346684977492,-0.6328831921873808
1539131797204944,-0.04718089570458517,0.7790035858701456,-0.6292210269321736
1539131797220947,-0.04754711223010588,0.7758297093156328,-0.6303196765087358
1539131797236952,-0.050476844434271584,0.7737544823376821,-0.6336156252384222
1539131797252957,-0.053284504463263715,0.7748531319142442,-0.6336156252384222
1539131797268962,-0.05218585488670158,0.7775387197680628,-0.6344701304646372
1539131797284967,-0.04840161745632088,0.7804684519722285,-0.6334935530632486
1539131797300972,-0.0470588235294116,0.7826657511253527,-0.6380102235446707
1539131797316977,-0.05035477225909801,0.7825436789501792,-0.6388647287708857
1539131797332982,-0.05096513313496587,0.7833981841763942,-0.63935301747158
1539131797348987,-0.04742504005493231,0.7815671015487906,-0.6363012130922407
1539131797364992,-0.04754711223010588,0.7772945754177156,-0.6356908522163729
1539131797380997,-0.04608224612802303,0.7771725032425421,-0.6321507591363393
1539131797397002,-0.05023270008392444,0.7765621423666742,-0.6312962539101243
1539131797413007,-0.04730296787975874,0.7775387197680628,-0.6304417486839093
1539131797429012,-0.046692607003890885,0.7752193484397649,-0.6317845426108186
1539131797445017,-0.04644846265354374,0.7776607919432363,-0.6349584191653315
1539131797461022,-0.04840161745632088,0.7793698023956663,-0.6365453574425879
1539131797477028,-0.04779125658045302,0.7833981841763942,-0.6386205844205386
1539131797493033,-0.04596017395284946,0.783154039826047,-0.6409399557488364
1539131797509038,-0.04571602960250232,0.7852292668039977,-0.6403295948729686
1539131797525043,-0.04766918440527945,0.7832761120012206,-0.6364232852674143
1539131797541046,-0.04864576180666802,0.782299534599832,-0.6338597695887693
1539131797557051,-0.04730296787975874,0.7785152971694513,-0.6317845426108186
1539131797573056,-0.050476844434271584,0.7754634927901121,-0.6331273365377279
1539131797589061,-0.04864576180666802,0.7764400701915006,-0.6295872434576943
1539131797605066,-0.04510566872663446,0.778881513694972,-0.6248264286259251
1539131797621071,-0.04364080262455161,0.7775387197680628,-0.6294651712825208
1539131797637076,-0.04119935912108019,0.778027008468757,-0.6354467078660258
1539131797653081,-0.04632639047837017,0.7783932249942778,-0.6375219348439765
1539131797669086,-0.05133134966048658,0.7781490806439306,-0.6386205844205386
1539131797685091,-0.05487144274052014,0.7777828641184099,-0.6358129243915465
1539131797701096,-0.05560387579156156,0.7775387197680628,-0.6300755321583886
1539131797717101,-0.05096513313496587,0.7813229571984435,-0.6310521095597772
1539131797733106,-0.04876783398184159,0.7781490806439306,-0.6345922026398108
1539131797749111,-0.045471885252155175,0.7782711528191042,-0.6331273365377279
1539131797765116,-0.04583810177767589,0.7777828641184099,-0.6358129243915465
1539131797781121,-0.04473945220111375,0.778881513694972,-0.6373998626688029
1539131797797126,-0.04473945220111375,0.7847409781033035,-0.6366674296177615
1539131797813131,-0.04339665827420447,0.784008545052262,-0.6348363469901579
1539131797829136,-0.04315251392385733,0.7810788128480963,-0.6400854505226214
1539131797845142,-0.04498359655146089,0.7765621423666742,-0.6386205844205386
1539131797861114,-0.04888990615701516,0.7771725032425421,-0.6358129243915465
1539131797877119,-0.04754711223010588,0.7772945754177156,-0.6319066147859922
1539131797893124,-0.04779125658045302,0.7787594415197985,-0.6336156252384222
1539131797909129,-0.049256122682535874,0.7766842145418478,-0.6360570687418936
1539131797925134,-0.04827954528114731,0.7766842145418478,-0.6334935530632486
1539131797941139,-0.04876783398184159,0.7766842145418478,-0.6365453574425879
1539131797957144,-0.051941710536354435,0.7754634927901121,-0.6353246356908522
1539131797973149,-0.050598916609445155,0.7782711528191042,-0.6355687800411993
1539131797989154,-0.05267414358739586,0.7779049362935835,-0.6328831921873808
1539131798005159,-0.04608224612802303,0.7791256580453192,-0.6349584191653315
1539131798021165,-0.045593957427328746,0.778881513694972,-0.6356908522163729
1539131798037170,-0.045349813076981604,0.7769283588921949,-0.6369115739681086
1539131798053175,-0.048035400930800165,0.7749752040894178,-0.6380102235446707
1539131798069180,-0.04827954528114731,0.7749752040894178,-0.6320286869611658
1539131798085185,-0.049378194857709445,0.7709468223086899,-0.6292210269321736
1539131798101190,-0.04583810177767589,0.7721675440604256,-0.6273899443045701
1539131798117195,-0.037659266041046635,0.7749752040894178,-0.6317845426108186
1539131798133200,-0.03448538948653379,0.7793698023956663,-0.6312962539101243
1539131798149205,-0.035217822537575216,0.7781490806439306,-0.6337376974135958
1539131798165210,-0.0394903486686502,0.7803463797970549,-0.6381322957198443
1539131798181244,-0.041565575646600905,0.7809567406729228,-0.6383764400701915
1539131798197249,-0.04217593652246876,0.7818112458991378,-0.6404516670481422
1539131798213254,-0.040100709544518054,0.7829098954756999,-0.6409399557488364
1539131798229259,-0.03692683299000521,0.784008545052262,-0.6387426565957122
1539131798245264,-0.03595025558861664,0.784008545052262,-0.6425268940260929
1539131798261269,-0.033630884260318794,0.7782711528191042,-0.6477759975585564
1539131798277274,-0.03717097734035235,0.7777828641184099,-0.6435034714274814
1539131798293279,-0.044129091325245895,0.7735103379873349,-0.6354467078660258
1539131798309284,-0.046814679179064456,0.7744869153887235,-0.6258030060273136
1539131798325289,-0.04766918440527945,0.7755855649652856,-0.6195773250934615
1539131798341294,-0.0499885557335773,0.7725337605859464,-0.6184786755168994
1539131798357299,-0.049378194857709445,0.7728999771114671,-0.6223849851224537
1539131798373304,-0.05401693751430514,0.7713130388342107,-0.6310521095597772
1539131798389309,-0.05389486533913157,0.7750972762645914,-0.6370336461432822
1539131798405314,-0.05865568017090084,0.7799801632715342,-0.643625543602655
1539131798421319,-0.06036469062333083,0.7838864728770885,-0.6474097810330357
1539131798437324,-0.06195162890058725,0.7825436789501792,-0.6494850080109864
1539131798453329,-0.061097123674372256,0.7863279163805599,-0.6474097810330357
1539131798469334,-0.05145342183566015,0.7847409781033035,-0.6446021210040436
1539131798485339,-0.05230792706187515,0.779736018921187,-0.63764400701915
1539131798501342,-0.050476844434271584,0.7787594415197985,-0.6310521095597772
1539131798517347,-0.049134050507362304,0.7736324101625085,-0.6301976043335622
1539131798533352,-0.04449530785076661,0.7760738536659799,-0.6292210269321736
1539131798549358,-0.0462043183031966,0.7757076371404592,-0.6306858930342565
1539131798565363,-0.04742504005493231,0.7733882658121614,-0.6305638208590829
1539131798581368,-0.04693675135423803,0.7758297093156328,-0.6323949034866865
1539131798597373,-0.04596017395284946,0.7760738536659799,-0.6343480582894636
1539131798613378,-0.04473945220111375,0.7754634927901121,-0.6363012130922407
1539131798629383,-0.04095521477073305,0.7791256580453192,-0.6365453574425879
1539131798645388,-0.04193179217212162,0.7782711528191042,-0.6411841000991836
1539131798661393,-0.045349813076981604,0.7766842145418478,-0.6421606775005722
1539131798677398,-0.04632639047837017,0.7769283588921949,-0.6432593270771343
1539131798693403,-0.04461738002594018,0.7786373693446249,-0.6355687800411993
1539131798709408,-0.042786297398336615,0.7774166475928892,-0.6348363469901579
1539131798725413,-0.040100709544518054,0.7794918745708399,-0.63422598611429
1539131798741418,-0.046814679179064456,0.7770504310673685,-0.6320286869611658
1539131798757423,-0.05535973144121442,0.7739986266880292,-0.633371480888075
1539131798773428,-0.05645838101777656,0.7748531319142442,-0.6330052643625543
1539131798789433,-0.05645838101777656,0.7761959258411535,-0.6290989547570001
1539131798805438,-0.05682459754329727,0.7776607919432363,-0.6303196765087358
1539131798821441,-0.05548180361638799,0.7720454718852521,-0.6336156252384222
1539131798837446,-0.05560387579156156,0.76923781185626,-0.6330052643625543
1539131798853451,-0.05548180361638799,0.7709468223086899,-0.6315403982604715
1539131798869456,-0.054627298390172996,0.7716792553597314,-0.6315403982604715
1539131798885461,-0.05242999923704872,0.7711909666590371,-0.631662470435645
1539131798901466,-0.04522774090180803,0.7766842145418478,-0.6298313878080415
1539131798917472,-0.05096513313496587,0.7776607919432363,-0.6363012130922407
1539131798933477,-0.04254215304798947,0.7794918745708399,-0.6391088731212329
1539131798949482,-0.05169756618600729,0.7798580910963606,-0.6331273365377279
1539131798965487,-0.04852368963149445,0.7829098954756999,-0.6293430991073472
1539131798981492,-0.05499351491569371,0.7829098954756999,-0.6326390478370336
1539131798997497,-0.04718089570458517,0.7833981841763942,-0.63422598611429
1539131799013502,-0.044129091325245895,0.7844968337529563,-0.6387426565957122
1539131799029507,-0.039124132143129486,0.780590524147402,-0.6449683375295643
1539131799045512,-0.03729304951552592,0.7846189059281299,-0.6447241931792171
1539131799061517,-0.03839169909208806,0.7810788128480963,-0.64277103837644
1539131799077522,-0.040344853894865196,0.7842526894026092,-0.6403295948729686
1539131799093527,-0.04071107042038591,0.7826657511253527,-0.6365453574425879
1539131799109532,-0.042908369573510186,0.7809567406729228,-0.636789501792935
1539131799125537,-0.04718089570458517,0.7793698023956663,-0.6321507591363393
