Timestamp (microseconds),Gyro X (°/s),Gyro Y (°/s),Gyro Z (°/s)
1539131774173889,1.0681315327688026,2.5940337224383256,0.2746623941404778
1539131774189890,0.8239871824216607,2.7161058976118966,0.2746623941404778
1539131774205890,0.7019150072480898,2.410925459678083,0.15259021896690683
1539131774221891,0.7019150072480898,2.288853284504512,0.45777065690094787
1539131774237892,0.45777065690094787,2.4719615472647547,0.7629510948347615
1539131774253893,0.15259021896690683,2.532997634851654,0.8850232700083325
1539131774269893,-0.09155413138023505,2.4719615472647547,0.6408789196611906
1539131774285894,-0.09155413138023505,2.4719615472647547,0.09155413138023505
1539131774301895,-0.213626306553806,2.5940337224383256,-0.5188067444876197
1539131774317896,-0.2746623941404778,2.655069810025225,-1.0070954451819034
1539131774333896,0.03051804379333589,3.0823224231326094,-0.8239871824216607
1539131774349897,0.8239871824216607,3.2654306858930795,-0.2746623941404778
1539131774365898,1.1291676203554744,3.5095750362402214,0.03051804379333589
1539131774381899,1.3122758831159445,3.4485389486533222,-0.03051804379333589
1539131774397899,1.5564202334630863,3.2043945983061803,-0.213626306553806
1539131774413900,1.4953841458761872,3.3875028610666504,-0.2746623941404778
1539131774429901,1.4953841458761872,2.8992141603723667,-0.09155413138023505
1539131774445901,1.1902037079423735,2.8381780727854675,0.213626306553806
1539131774461902,0.6408789196611906,2.8381780727854675,0.45777065690094787
1539131774477903,-0.03051804379333589,2.8381780727854675,0.5798428320745188
1539131774493896,-0.3967345693140487,2.532997634851654,0.09155413138023505
1539131774509897,-0.8239871824216607,2.105745021744042,-0.5188067444876197
1539131774525898,-1.5564202334630863,2.227817196917613,-0.9460593575952316
1539131774541898,-1.8005645838102282,2.655069810025225,-0.9460593575952316
1539131774557899,-1.4953841458761872,3.6316472114137923,-0.33569848172737693
1539131774573900,-0.7019150072480898,4.058899824521177,0.09155413138023505
1539131774589901,0.09155413138023505,4.242008087281647,0.03051804379333589
1539131774605901,0.7629510948347615,4.364080262455218,-0.2746623941404778
1539131774621902,1.3733119707026162,4.180971999694748,-0.7629510948347615
1539131774637903,1.9226367589837992,3.6316472114137923,-1.0070954451819034
1539131774653904,1.983672846570471,3.4485389486533222,-0.8239871824216607
1539131774669904,1.4953841458761872,3.6316472114137923,-0.2746623941404778
1539131774685905,0.9460593575952316,3.3875028610666504,0.3967345693140487
1539131774701906,0.33569848172737693,3.2043945983061803,0.7019150072480898
1539131774717907,-0.15259021896690683,3.2043945983061803,1.0681315327688026
1539131774733907,-0.33569848172737693,2.7161058976118966,1.0681315327688026
1539131774749908,-0.5188067444876197,2.532997634851654,0.33569848172737693
1539131774765909,-0.45777065690094787,2.227817196917613,-0.03051804379333589
1539131774781910,-0.15259021896690683,2.105745021744042,-0.33569848172737693
1539131774797910,0.3967345693140487,2.105745021744042,-0.09155413138023505
1539131774813934,0.7019150072480898,2.7161058976118966,0.5188067444876197
1539131774829935,0.7019150072480898,3.3264667734797513,1.0681315327688026
1539131774845935,0.8850232700083325,3.692683299000464,1.3122758831159445
1539131774861936,1.3733119707026162,3.2654306858930795,1.2512397955290453
1539131774877937,1.4953841458761872,3.0212863355459376,0.8239871824216607
1539131774893938,1.3733119707026162,2.7771419851987957,0.5798428320745188
1539131774909938,1.0070954451819034,2.7771419851987957,0.3967345693140487
1539131774925939,0.6408789196611906,3.0212863355459376,0.33569848172737693
1539131774941940,0.2746623941404778,2.7161058976118966,0.213626306553806
1539131774957941,-0.2746623941404778,3.0823224231326094,0.2746623941404778
1539131774973941,-0.45777065690094787,3.3264667734797513,0.6408789196611906
1539131774989942,-0.213626306553806,3.2043945983061803,0.5188067444876197
1539131775005943,0.03051804379333589,3.1433585107195086,0.03051804379333589
1539131775021944,0.2746623941404778,3.3264667734797513,-0.33569848172737693
1539131775037944,0.7629510948347615,3.4485389486533222,-0.45777065690094787
1539131775053945,1.6174563210497581,3.1433585107195086,-0.3967345693140487
1539131775069946,1.9226367589837992,3.4485389486533222,-0.45777065690094787
1539131775085947,1.983672846570471,3.692683299000464,-0.33569848172737693
1539131775101947,1.983672846570471,3.692683299000464,-0.09155413138023505
1539131775117948,1.739528496223329,3.570611123826893,-0.15259021896690683
1539131775134002,1.3733119707026162,3.1433585107195086,-0.15259021896690683
1539131775150004,0.7019150072480898,3.2043945983061803,-0.15259021896690683
1539131775166005,0.15259021896690683,3.2654306858930795,-0.2746623941404778
1539131775182006,-0.3967345693140487,3.1433585107195086,-0.213626306553806
1539131775198007,-0.7629510948347615,3.2043945983061803,0.15259021896690683
1539131775214008,-0.7629510948347615,3.5095750362402214,0.2746623941404778
1539131775230010,-0.5798428320745188,3.3264667734797513,0.33569848172737693
1539131775246011,-0.15259021896690683,2.8381780727854675,0.213626306553806
1539131775262012,-0.03051804379333589,2.8992141603723667,0.09155413138023505
1539131775278013,0.33569848172737693,2.9602502479590385,0.5188067444876197
1539131775294015,0.9460593575952316,3.0212863355459376,1.0681315327688026
1539131775310016,1.3733119707026162,3.2654306858930795,1.4343480582895154
1539131775326017,1.3733119707026162,3.1433585107195086,1.3122758831159445
1539131775342018,1.3733119707026162,2.532997634851654,0.9460593575952316
1539131775358019,1.3733119707026162,2.4719615472647547,0.5798428320745188
1539131775374021,1.6784924086366573,2.288853284504512,0.8850232700083325
1539131775390022,1.9226367589837992,2.3498893720911838,1.1902037079423735
1539131775406023,1.4953841458761872,2.7161058976118966,1.1902037079423735
1539131775422024,0.7019150072480898,2.8992141603723667,0.7629510948347615
1539131775438026,0.213626306553806,2.8992141603723667,0.15259021896690683
1539131775454101,-0.03051804379333589,2.8381780727854675,-0.2746623941404778
1539131775470103,-0.33569848172737693,2.8381780727854675,-0.09155413138023505
1539131775486105,-0.7629510948347615,3.3264667734797513,0.09155413138023505
1539131775502106,-0.9460593575952316,3.7537193865873633,0.2746623941404778
1539131775518108,-0.7629510948347615,3.7537193865873633,0.15259021896690683
1539131775534110,-0.2746623941404778,3.814755474174035,-0.03051804379333589
1539131775550111,0.15259021896690683,3.936827649347606,-0.213626306553806
1539131775566113,0.7629510948347615,3.4485389486533222,-0.33569848172737693
1539131775582115,1.3733119707026162,3.3264667734797513,-0.03051804379333589
1539131775598116,1.739528496223329,3.2654306858930795,0.5188067444876197
1539131775614118,1.9226367589837992,3.2043945983061803,0.8239871824216607
1539131775630120,1.8616006713969,2.7771419851987957,1.0681315327688026
1539131775646122,1.6174563210497581,2.5940337224383256,1.1291676203554744
1539131775662123,1.3122758831159445,2.227817196917613,1.0681315327688026
1539131775678125,1.0070954451819034,1.8616006713969,1.0681315327688026
1539131775694127,0.6408789196611906,1.6784924086366573,0.8239871824216607
1539131775710128,0.15259021896690683,1.8005645838102282,0.5798428320745188
1539131775726130,-0.15259021896690683,1.8616006713969,0.5798428320745188
1539131775742132,-0.213626306553806,2.166781109330941,0.5798428320745188
1539131775758134,0.09155413138023505,2.166781109330941,0.5188067444876197
1539131775774200,0.3967345693140487,2.105745021744042,0.03051804379333589
1539131775790202,0.45777065690094787,2.227817196917613,-0.213626306553806
1539131775806203,0.6408789196611906,2.288853284504512,-0.09155413138023505
1539131775822205,0.8239871824216607,2.7771419851987957,0.15259021896690683
1539131775838207,1.0070954451819034,2.8992141603723667,0.213626306553806
1539131775854209,1.1291676203554744,2.8381780727854675,-0.09155413138023505
1539131775870210,1.0070954451819034,2.8992141603723667,-0.213626306553806
1539131775886212,0.7019150072480898,3.0823224231326094,-0.3967345693140487
1539131775902214,0.2746623941404778,3.4485389486533222,-0.45777065690094787
1539131775918215,0.09155413138023505,3.814755474174035,-0.2746623941404778
1539131775934217,0.2746623941404778,3.997863736934505,-0.15259021896690683
1539131775950219,0.7019150072480898,3.814755474174035,-0.15259021896690683
1539131775966220,0.9460593575952316,3.6316472114137923,-0.33569848172737693
1539131775982222,1.1902037079423735,3.5095750362402214,-0.45777065690094787
1539131775998224,1.3122758831159445,3.2043945983061803,-0.5798428320745188
1539131776014226,1.3733119707026162,3.0212863355459376,-0.45777065690094787
1539131776030227,1.3122758831159445,2.8992141603723667,-0.09155413138023505
1539131776046229,1.1291676203554744,2.8381780727854675,0.2746623941404778
1539131776062231,0.7629510948347615,2.7161058976118966,0.3967345693140487
1539131776078232,0.213626306553806,2.5940337224383256,0.3967345693140487
1539131776094299,-0.09155413138023505,2.4719615472647547,0.33569848172737693
1539131776110301,-0.15259021896690683,2.5940337224383256,0.33569848172737693
1539131776126303,-0.03051804379333589,2.655069810025225,0.3967345693140487
1539131776142305,0.15259021896690683,2.5940337224383256,0.33569848172737693
1539131776158308,0.45777065690094787,2.4719615472647547,0.09155413138023505
1539131776174310,0.7019150072480898,2.5940337224383256,0.03051804379333589
1539131776190312,0.7629510948347615,2.7771419851987957,-0.15259021896690683
1539131776206314,0.9460593575952316,2.8381780727854675,-0.2746623941404778
1539131776222316,1.2512397955290453,2.8992141603723667,-0.33569848172737693
1539131776238319,1.2512397955290453,3.0212863355459376,-0.2746623941404778
1539131776254321,1.1291676203554744,3.2043945983061803,-0.15259021896690683
1539131776270323,0.8850232700083325,2.8992141603723667,-0.2746623941404778
1539131776286325,0.5188067444876197,2.7771419851987957,-0.7629510948347615
1539131776302327,0.15259021896690683,2.532997634851654,-1.2512397955290453
1539131776318329,-0.33569848172737693,2.3498893720911838,-1.1902037079423735
1539131776334332,-0.3967345693140487,2.3498893720911838,-0.9460593575952316
1539131776350334,-0.2746623941404778,2.166781109330941,-0.6408789196611906
1539131776366336,-0.213626306553806,2.166781109330941,-0.45777065690094787
1539131776382338,-0.15259021896690683,2.227817196917613,-0.33569848172737693
1539131776398340,0.15259021896690683,2.04470893415737,-0.213626306553806
1539131776414398,0.3967345693140487,1.8005645838102282,-0.213626306553806
1539131776430400,0.213626306553806,1.8616006713969,-0.03051804379333589
1539131776446402,0.03051804379333589,1.739528496223329,0.15259021896690683
1539131776462404,-0.15259021896690683,1.8616006713969,0.3967345693140487
1539131776478407,-0.33569848172737693,1.983672846570471,0.3967345693140487
1539131776494409,0.03051804379333589,1.9226367589837992,0.213626306553806
1539131776510411,0.5798428320745188,1.9226367589837992,0.3967345693140487
1539131776526413,0.6408789196611906,2.532997634851654,0.8239871824216607
1539131776542415,0.33569848172737693,3.3875028610666504,1.0070954451819034
1539131776558417,0.5798428320745188,3.7537193865873633,0.8850232700083325
1539131776574420,0.6408789196611906,4.180971999694748,0.2746623941404778
1539131776590422,0.7019150072480898,4.058899824521177,-0.5188067444876197
1539131776606424,0.9460593575952316,4.058899824521177,-0.8850232700083325
1539131776622426,0.9460593575952316,4.364080262455218,-0.8850232700083325
1539131776638428,0.6408789196611906,4.42511635004189,-1.0070954451819034
1539131776654430,0.45777065690094787,3.7537193865873633,-1.4953841458761872
1539131776670433,0.5188067444876197,2.8992141603723667,-1.6174563210497581
1539131776686435,0.3967345693140487,2.8992141603723667,-0.8850232700083325
1539131776702437,0.33569848172737693,2.9602502479590385,0.15259021896690683
1539131776718439,0.2746623941404778,2.9602502479590385,0.8239871824216607
1539131776734527,0.09155413138023505,3.0823224231326094,1.0681315327688026
1539131776750530,-0.15259021896690683,3.2043945983061803,0.7629510948347615
1539131776766533,0.09155413138023505,2.9602502479590385,0.6408789196611906
1539131776782535,0.7019150072480898,2.8381780727854675,0.45777065690094787
1539131776798538,1.2512397955290453,3.0212863355459376,0.6408789196611906
1539131776814540,1.5564202334630863,3.5095750362402214,1.0070954451819034
1539131776830543,1.4953841458761872,4.058899824521177,1.2512397955290453
1539131776846546,1.6784924086366573,4.180971999694748,1.0681315327688026
1539131776862548,1.9226367589837992,4.180971999694748,0.8850232700083325
1539131776878551,1.5564202334630863,4.669260700389032,0.8850232700083325
1539131776894554,0.9460593575952316,4.791332875562603,0.6408789196611906
1539131776910556,0.5188067444876197,4.852368963149502,0.45777065690094787
1539131776926559,0.213626306553806,4.669260700389032,0.2746623941404778
1539131776942562,-0.2746623941404778,4.9134050507361735,0.2746623941404778
1539131776958564,-0.7019150072480898,4.9134050507361735,0.33569848172737693
1539131776974567,-1.0070954451819034,5.096513313496644,0.6408789196611906
1539131776990570,-0.8850232700083325,5.3406576638437855,0.9460593575952316
1539131777006572,-0.5188067444876197,5.645838101777599,1.1291676203554744
1539131777022575,0.33569848172737693,6.927595941100208,1.9226367589837992
1539131777038578,1.5564202334630863,7.049668116273779,2.3498893720911838
1539131777054596,3.1433585107195086,6.561379415579495,1.8616006713969
1539131777070598,4.364080262455218,5.76791027695117,0.8239871824216607
1539131777086601,4.42511635004189,5.3406576638437855,0.09155413138023505
1539131777102604,3.814755474174035,5.462729839017356,-0.213626306553806
1539131777118606,3.3264667734797513,4.547188525215461,-0.15259021896690683
1539131777134609,2.655069810025225,3.3264667734797513,-0.2746623941404778
1539131777150612,1.3733119707026162,2.227817196917613,-0.5188067444876197
1539131777166614,-0.09155413138023505,1.6784924086366573,-0.2746623941404778
1539131777182617,-1.2512397955290453,1.8005645838102282,0.8239871824216607
1539131777198619,-1.6784924086366573,1.983672846570471,1.9226367589837992
1539131777214622,-1.739528496223329,2.04470893415737,2.532997634851654
1539131777230625,-1.8005645838102282,1.8616006713969,2.4719615472647547
1539131777246627,-1.8005645838102282,1.6174563210497581,1.9226367589837992
1539131777262630,-1.6174563210497581,1.9226367589837992,1.0681315327688026
1539131777278633,-0.9460593575952316,2.410925459678083,0.8239871824216607
1539131777294635,-0.03051804379333589,2.655069810025225,0.45777065690094787
1539131777310638,0.8850232700083325,2.7161058976118966,-0.09155413138023505
1539131777326641,1.739528496223329,2.9602502479590385,-0.5798428320745188
1539131777342643,2.227817196917613,3.0823224231326094,-1.4343480582895154
1539131777358646,2.532997634851654,3.0212863355459376,-2.3498893720911838
1539131777374694,2.4719615472647547,2.8381780727854675,-3.4485389486533222
1539131777390697,2.105745021744042,2.04470893415737,-4.42511635004189
1539131777406700,1.8616006713969,0.7019150072480898,-4.058899824521177
1539131777422702,1.5564202334630863,0.45777065690094787,-2.5940337224383256
1539131777438705,1.1291676203554744,0.7019150072480898,-0.5798428320745188
1539131777454708,0.7019150072480898,0.5798428320745188,0.213626306553806
1539131777470710,0.03051804379333589,-0.09155413138023505,-0.33569848172737693
1539131777486713,0.3967345693140487,-1.3733119707026162,-0.5798428320745188
1539131777502716,1.3122758831159445,-1.1291676203554744,0.213626306553806
1539131777518718,2.7771419851987957,0.03051804379333589,1.8005645838102282
1539131777534721,3.814755474174035,1.9226367589837992,2.655069810025225
1539131777550724,4.42511635004189,2.410925459678083,1.8005645838102282
1539131777566726,5.279621576256886,1.9226367589837992,-0.15259021896690683
1539131777582729,5.889982452124741,1.5564202334630863,-1.6784924086366573
1539131777598732,5.645838101777599,1.739528496223329,-2.9602502479590385
1539131777614734,4.791332875562603,1.1902037079423735,-4.42511635004189
1539131777630737,3.6316472114137923,1.0681315327688026,-4.9134050507361735
1539131777646740,2.288853284504512,1.5564202334630863,-4.9134050507361735
1539131777662742,1.4953841458761872,-0.8850232700083325,-4.791332875562603
1539131777678745,1.2512397955290453,-3.3875028610666504,-3.814755474174035
1539131777694793,0.6408789196611906,-3.3875028610666504,-1.6174563210497581
1539131777710796,-0.09155413138023505,-2.8992141603723667,-0.09155413138023505
1539131777726800,-0.7629510948347615,-4.058899824521177,-0.8239871824216607
1539131777742803,-1.4953841458761872,-4.974441138323073,-2.04470893415737
1539131777758806,-1.4953841458761872,-3.2043945983061803,-2.166781109330941
1539131777774809,-1.1902037079423735,-1.3733119707026162,-2.227817196917613
1539131777790812,-0.3967345693140487,-0.5188067444876197,-3.4485389486533222
1539131777806815,0.2746623941404778,1.0070954451819034,-4.730296787975931
1539131777822818,1.3122758831159445,2.227817196917613,-5.2185854886702145
1539131777838822,1.983672846570471,4.364080262455218,-4.974441138323073
1539131777854825,2.8992141603723667,5.279621576256886,-3.570611123826893
1539131777870828,2.8992141603723667,6.744487678339738,-3.0823224231326094
1539131777886831,2.227817196917613,6.561379415579495,-3.0212863355459376
1539131777902834,1.1291676203554744,6.256198977645454,-3.692683299000464
1539131777918837,0.09155413138023505,5.096513313496644,-3.692683299000464
1539131777934840,-1.1291676203554744,4.60822461280236,-2.655069810025225
1539131777950843,-1.739528496223329,3.3264667734797513,-1.2512397955290453
1539131777966847,-2.3498893720911838,2.655069810025225,-0.213626306553806
1539131777982850,-2.532997634851654,1.4953841458761872,0.7629510948347615
1539131777998853,-2.227817196917613,0.8239871824216607,1.9226367589837992
1539131778014892,-2.04470893415737,0.33569848172737693,2.410925459678083
1539131778030895,-2.166781109330941,-0.213626306553806,2.3498893720911838
1539131778046898,-1.4953841458761872,0.09155413138023505,3.0823224231326094
1539131778062902,-0.213626306553806,1.1902037079423735,3.7537193865873633
1539131778078905,0.9460593575952316,1.4343480582895154,3.570611123826893
1539131778094908,1.8005645838102282,1.739528496223329,3.2043945983061803
1539131778110911,2.3498893720911838,2.04470893415737,2.8992141603723667
1539131778126914,2.7771419851987957,1.739528496223329,2.532997634851654
1539131778142917,2.4719615472647547,1.5564202334630863,1.8616006713969
1539131778158920,1.1902037079423735,1.6784924086366573,0.9460593575952316
1539131778174924,0.03051804379333589,1.2512397955290453,0.09155413138023505
1539131778190927,-0.45777065690094787,0.8239871824216607,0.213626306553806
1539131778206930,-0.45777065690094787,0.8850232700083325,1.1902037079423735
1539131778222933,-0.7629510948347615,1.9226367589837992,1.8616006713969
1539131778238936,-0.7019150072480898,2.4719615472647547,1.6784924086366573
1539131778254939,0.03051804379333589,2.8992141603723667,0.8239871824216607
1539131778270942,0.8850232700083325,3.875791561760934,-0.03051804379333589
1539131778286945,1.739528496223329,5.3406576638437855,-0.7019150072480898
1539131778302949,2.7161058976118966,6.256198977645454,-1.3122758831159445
1539131778318952,3.6316472114137923,6.134126802471883,-1.9226367589837992
1539131778334991,4.242008087281647,5.828946364538069,-1.4343480582895154
1539131778350994,4.547188525215461,5.76791027695117,0.2746623941404778
1539131778366997,4.303044174868319,6.378271152819025,2.04470893415737
1539131778383000,3.4485389486533222,5.706874189364498,2.655069810025225
1539131778399004,2.288853284504512,3.936827649347606,2.3498893720911838
1539131778415007,1.4953841458761872,3.2043945983061803,2.166781109330941
1539131778431010,1.1902037079423735,3.1433585107195086,2.8381780727854675
1539131778447013,1.1902037079423735,2.5940337224383256,3.6316472114137923
1539131778463016,1.2512397955290453,2.4719615472647547,3.7537193865873633
1539131778479019,1.2512397955290453,2.410925459678083,3.3875028610666504
1539131778495022,1.3733119707026162,2.410925459678083,3.2654306858930795
1539131778511026,1.6174563210497581,3.0823224231326094,3.0212863355459376
1539131778527029,1.739528496223329,2.8992141603723667,2.9602502479590385
1539131778543032,1.8616006713969,2.5940337224383256,2.8381780727854675
1539131778559035,1.983672846570471,2.8992141603723667,3.2654306858930795
1539131778575038,1.983672846570471,3.814755474174035,4.058899824521177
1539131778591041,1.9226367589837992,4.180971999694748,4.303044174868319
1539131778607044,1.8616006713969,4.058899824521177,3.3264667734797513
1539131778623047,1.983672846570471,3.0823224231326094,2.227817196917613
1539131778639051,1.8616006713969,3.0212863355459376,1.6784924086366573
1539131778655090,1.8005645838102282,3.570611123826893,2.04470893415737
1539131778671094,1.5564202334630863,3.997863736934505,2.166781109330941
1539131778687097,1.3122758831159445,3.814755474174035,1.5564202334630863
1539131778703101,1.0070954451819034,4.119935912108076,0.7019150072480898
1539131778719104,0.8850232700083325,3.6316472114137923,0.03051804379333589
1539131778735108,1.0070954451819034,3.0823224231326094,-0.03051804379333589
1539131778751112,0.8239871824216607,3.814755474174035,0.213626306553806
1539131778767115,0.6408789196611906,3.7537193865873633,0.45777065690094787
1539131778783119,0.6408789196611906,3.6316472114137923,0.5798428320745188
1539131778799122,0.7019150072480898,3.692683299000464,0.33569848172737693
1539131778815126,0.9460593575952316,3.0212863355459376,0.5188067444876197
1539131778831130,0.9460593575952316,3.570611123826893,1.1291676203554744
1539131778847133,0.8239871824216607,4.180971999694748,1.8005645838102282
1539131778863137,0.5798428320745188,3.570611123826893,1.4953841458761872
1539131778879140,0.213626306553806,2.227817196917613,0.6408789196611906
1539131778895144,-0.213626306553806,1.5564202334630863,0.6408789196611906
1539131778911148,-0.5798428320745188,1.3122758831159445,1.0070954451819034
1539131778927151,-0.6408789196611906,0.15259021896690683,1.4953841458761872
1539131778943155,-0.8239871824216607,-0.3967345693140487,1.6174563210497581
1539131778959159,-0.7019150072480898,-1.0070954451819034,1.4343480582895154
1539131778975189,-0.45777065690094787,-1.1902037079423735,1.0070954451819034
1539131778991192,-0.09155413138023505,-1.2512397955290453,0.8850232700083325
1539131779007196,0.6408789196611906,-0.213626306553806,1.0681315327688026
1539131779023200,1.6784924086366573,0.8850232700083325,0.8239871824216607
1539131779039203,2.532997634851654,0.8850232700083325,-0.03051804379333589
1539131779055207,3.3264667734797513,1.5564202334630863,-0.2746623941404778
1539131779071210,4.119935912108076,3.0212863355459376,-0.213626306553806
1539131779087214,4.42511635004189,3.3875028610666504,-0.6408789196611906
1539131779103218,3.997863736934505,3.2654306858930795,-1.6174563210497581
1539131779119221,2.7771419851987957,3.692683299000464,-2.04470893415737
1539131779135225,1.1291676203554744,3.7537193865873633,-2.4719615472647547
1539131779151229,-0.09155413138023505,2.8992141603723667,-2.5940337224383256
1539131779167232,-0.7629510948347615,2.288853284504512,-2.105745021744042
1539131779183236,-1.8005645838102282,2.288853284504512,-1.3122758831159445
1539131779199239,-2.4719615472647547,2.04470893415737,-0.7019150072480898
1539131779215243,-2.3498893720911838,1.2512397955290453,0.03051804379333589
1539131779231247,-2.04470893415737,0.8239871824216607,0.03051804379333589
1539131779247250,-2.04470893415737,0.2746623941404778,-0.6408789196611906
1539131779263254,-1.9226367589837992,-0.6408789196611906,-1.5564202334630863
1539131779279257,-1.2512397955290453,-1.4343480582895154,-1.6174563210497581
1539131779295288,-1.1291676203554744,-0.5188067444876197,-1.4953841458761872
1539131779311291,-1.3733119707026162,0.09155413138023505,-1.0070954451819034
1539131779327295,-1.3733119707026162,0.7019150072480898,-0.5798428320745188
1539131779343299,-1.3122758831159445,1.0070954451819034,-0.5798428320745188
1539131779359302,-1.2512397955290453,0.8850232700083325,-0.5798428320745188
1539131779375306,-1.5564202334630863,1.0681315327688026,-0.8239871824216607
1539131779391309,-2.04470893415737,1.0070954451819034,-0.8850232700083325
1539131779407313,-2.5940337224383256,1.3733119707026162,-1.2512397955290453
1539131779423317,-3.2043945983061803,1.2512397955290453,-2.105745021744042
1539131779439320,-3.3875028610666504,-0.03051804379333589,-3.1433585107195086
1539131779455324,-3.570611123826893,-0.213626306553806,-4.058899824521177
1539131779471327,-3.4485389486533222,0.09155413138023505,-4.303044174868319
1539131779487331,-2.7771419851987957,0.33569848172737693,-4.547188525215461
1539131779503335,-1.8616006713969,-0.3967345693140487,-5.95101853971164
1539131779519338,-1.5564202334630863,-0.9460593575952316,-7.4158846417944915
1539131779535342,-1.1902037079423735,0.45777065690094787,-6.9886320286868795
1539131779551345,-0.03051804379333589,1.983672846570471,-5.279621576256886
1539131779567349,1.0681315327688026,2.9602502479590385,-3.5095750362402214
1539131779583353,1.9226367589837992,3.1433585107195086,-2.410925459678083
1539131779599356,2.166781109330941,3.2043945983061803,-1.983672846570471
1539131779615387,2.04470893415737,3.2043945983061803,-1.6174563210497581
1539131779631390,1.5564202334630863,3.0823224231326094,-1.5564202334630863
1539131779647394,0.8239871824216607,2.5940337224383256,-1.9226367589837992
1539131779663397,0.03051804379333589,1.9226367589837992,-1.9226367589837992
1539131779679401,-1.0070954451819034,1.9226367589837992,-1.6784924086366573
1539131779695405,-1.983672846570471,1.983672846570471,-1.4953841458761872
1539131779711408,-2.655069810025225,1.8616006713969,-1.3122758831159445
1539131779727412,-2.8992141603723667,1.4343480582895154,-1.1291676203554744
1539131779743415,-2.8992141603723667,1.739528496223329,-1.1902037079423735
1539131779759419,-2.3498893720911838,1.983672846570471,-0.7629510948347615
1539131779775423,-1.5564202334630863,2.532997634851654,-0.03051804379333589
1539131779791426,-0.5798428320745188,3.0212863355459376,0.09155413138023505
1539131779807430,0.09155413138023505,2.7161058976118966,0.09155413138023505
1539131779823434,0.3967345693140487,2.410925459678083,0.3967345693140487
1539131779839437,0.5188067444876197,2.105745021744042,1.0070954451819034
1539131779855441,0.3967345693140487,1.4953841458761872,0.8850232700083325
1539131779871444,-0.03051804379333589,0.45777065690094787,0.213626306553806
1539131779887448,-0.45777065690094787,-0.5798428320745188,-0.33569848172737693
1539131779903452,-1.1291676203554744,-0.7629510948347615,-0.7629510948347615
1539131779919455,-1.739528496223329,-0.3967345693140487,-0.45777065690094787
1539131779935485,-1.6784924086366573,-0.45777065690094787,-0.3967345693140487
1539131779951489,-1.1902037079423735,-0.8239871824216607,-0.8239871824216607
1539131779967493,-1.2512397955290453,0.33569848172737693,-0.8850232700083325
1539131779983496,-1.6174563210497581,1.8616006713969,-0.8850232700083325
1539131779999500,-1.5564202334630863,1.9226367589837992,-1.8005645838102282
1539131780015504,-1.1291676203554744,1.9226367589837992,-2.4719615472647547
1539131780031507,-0.7019150072480898,2.7161058976118966,-2.04470893415737
1539131780047511,-0.8239871824216607,3.3264667734797513,-1.983672846570471
1539131780063514,-1.1902037079423735,3.3875028610666504,-2.4719615472647547
1539131780079518,-1.3122758831159445,3.570611123826893,-3.1433585107195086
1539131780095522,-1.1902037079423735,3.2043945983061803,-3.5095750362402214
1539131780111525,-0.8850232700083325,2.532997634851654,-3.7537193865873633
1539131780127529,-0.9460593575952316,1.9226367589837992,-3.7537193865873633
1539131780143532,-1.1291676203554744,1.8005645838102282,-2.9602502479590385
1539131780159536,-0.8239871824216607,1.3733119707026162,-1.983672846570471
1539131780175540,-0.3967345693140487,0.5188067444876197,-1.1902037079423735
1539131780191543,-0.2746623941404778,-0.2746623941404778,-0.3967345693140487
1539131780207547,-0.33569848172737693,-0.45777065690094787,0.7629510948347615
1539131780223550,0.2746623941404778,-0.8850232700083325,1.8616006713969
1539131780239554,0.5188067444876197,-0.7019150072480898,2.227817196917613
1539131780255584,0.09155413138023505,-0.3967345693140487,1.8616006713969
1539131780271588,-0.45777065690094787,-0.2746623941404778,0.8239871824216607
1539131780287593,-0.5798428320745188,-0.3967345693140487,-0.213626306553806
1539131780303597,-0.7019150072480898,0.09155413138023505,-1.1291676203554744
1539131780319601,-1.1902037079423735,0.5188067444876197,-1.8005645838102282
1539131780335605,-1.8005645838102282,1.3733119707026162,-1.8005645838102282
1539131780351609,-2.227817196917613,2.410925459678083,-1.2512397955290453
1539131780367613,-1.8005645838102282,2.9602502479590385,-0.5798428320745188
1539131780383617,-1.3122758831159445,3.4485389486533222,-0.15259021896690683
1539131780399621,-0.8850232700083325,3.692683299000464,-0.15259021896690683
1539131780415625,-0.213626306553806,4.119935912108076,-0.213626306553806
1539131780431629,1.1291676203554744,11.749446860456146,-0.8850232700083325
1539131780447633,0.5188067444876197,24.383916990920852,-2.410925459678083
1539131780463637,-2.3498893720911838,22.61387045090396,-4.669260700389032
1539131780479642,-2.5940337224383256,17.181658655680167,-5.096513313496644
1539131780495646,-3.692683299000464,14.251926451514464,-4.669260700389032
1539131780511650,-1.739528496223329,10.650797283894008,-0.9460593575952316
1539131780527654,-1.1902037079423735,9.369039444571627,1.983672846570471
1539131780543658,0.5188067444876197,5.889982452124741,3.936827649347606
1539131780559662,1.3122758831159445,3.936827649347606,4.242008087281647
1539131780575683,2.655069810025225,1.1902037079423735,4.242008087281647
1539131780591687,3.570611123826893,2.105745021744042,4.974441138323073
1539131780607691,4.486152437628789,7.049668116273779,5.462729839017356
1539131780623695,3.814755474174035,10.711833371480907,4.364080262455218
1539131780639700,3.4485389486533222,12.970168612191856,3.0212863355459376
1539131780655704,4.119935912108076,11.810482948043045,2.655069810025225
1539131780671708,4.669260700389032,9.67421988250544,2.532997634851654
1539131780687712,4.242008087281647,6.256198977645454,1.0070954451819034
1539131780703716,3.692683299000464,2.166781109330941,-1.6174563210497581
1539131780719720,2.7771419851987957,-1.3122758831159445,-3.6316472114137923
1539131780735724,1.4953841458761872,-3.692683299000464,-3.5095750362402214
1539131780751728,0.09155413138023505,-4.791332875562603,-1.4953841458761872
1539131780767732,-0.8239871824216607,-5.76791027695117,0.5188067444876197
1539131780783736,-1.8005645838102282,-7.537956816968062,1.6784924086366573
1539131780799740,-1.4343480582895154,-9.369039444571627,2.3498893720911838
1539131780815745,-1.1902037079423735,-9.185931181811156,2.166781109330941
1539131780831749,-0.8239871824216607,-9.002822919050914,1.6174563210497581
1539131780847753,-0.7629510948347615,-7.721065079728305,0.7019150072480898
1539131780863757,-0.45777065690094787,-6.134126802471883,0.15259021896690683
1539131780879761,0.213626306553806,-3.997863736934505,0.7019150072480898
1539131780895782,1.0681315327688026,-2.288853284504512,1.4343480582895154
1539131780911786,1.5564202334630863,-0.6408789196611906,1.1902037079423735
1539131780927790,1.8005645838102282,-0.09155413138023505,0.7629510948347615
1539131780943794,1.4343480582895154,0.6408789196611906,0.213626306553806
1539131780959798,0.7019150072480898,1.4343480582895154,-0.5188067444876197
1539131780975803,-0.15259021896690683,1.2512397955290453,-1.3733119707026162
1539131780991807,-1.2512397955290453,1.4343480582895154,-1.739528496223329
1539131781007811,-1.9226367589837992,1.9226367589837992,-1.3733119707026162
1539131781023815,-2.3498893720911838,2.166781109330941,-0.9460593575952316
1539131781039819,-2.5940337224383256,2.655069810025225,-0.8850232700083325
1539131781055823,-2.410925459678083,3.0212863355459376,-0.7629510948347615
1539131781071827,-1.8005645838102282,3.2043945983061803,-0.9460593575952316
1539131781087831,-0.8239871824216607,3.2043945983061803,-1.3733119707026162
1539131781103835,0.15259021896690683,2.8992141603723667,-1.6784924086366573
1539131781119839,0.7019150072480898,3.3264667734797513,-0.8850232700083325
1539131781135843,1.2512397955290453,3.4485389486533222,0.03051804379333589
1539131781151847,1.6784924086366573,2.7771419851987957,0.33569848172737693
1539131781167852,1.4343480582895154,2.410925459678083,0.45777065690094787
1539131781183856,0.7629510948347615,2.3498893720911838,0.5798428320745188
1539131781199860,0.213626306553806,1.983672846570471,0.15259021896690683
1539131781215881,-0.45777065690094787,1.9226367589837992,-0.15259021896690683
1539131781231885,-1.3122758831159445,2.532997634851654,0.33569848172737693
1539131781247889,-1.6784924086366573,3.1433585107195086,0.7019150072480898
1539131781263893,-1.6174563210497581,3.570611123826893,0.7019150072480898
1539131781279897,-1.4953841458761872,3.997863736934505,0.33569848172737693
1539131781295901,-1.5564202334630863,3.997863736934505,-0.45777065690094787
1539131781311905,-1.1291676203554744,3.4485389486533222,-1.0070954451819034
1539131781327910,-0.45777065690094787,3.5095750362402214,-1.0070954451819034
1539131781343914,-0.213626306553806,3.875791561760934,-0.33569848172737693
1539131781359918,-0.2746623941404778,4.974441138323073,0.45777065690094787
1539131781375922,-0.03051804379333589,5.096513313496644,1.0070954451819034
1539131781391926,0.213626306553806,5.2185854886702145,1.3122758831159445
1539131781407930,0.15259021896690683,5.2185854886702145,1.3122758831159445
1539131781423934,0.09155413138023505,4.791332875562603,0.5798428320745188
1539131781439938,0.3967345693140487,3.7537193865873633,0.5188067444876197
1539131781455942,0.9460593575952316,3.4485389486533222,1.3733119707026162
1539131781471946,1.3733119707026162,3.3264667734797513,2.288853284504512
1539131781487950,1.4343480582895154,2.8992141603723667,2.166781109330941
1539131781503955,1.3122758831159445,2.227817196917613,1.3122758831159445
1539131781519959,0.8850232700083325,2.04470893415737,0.6408789196611906
1539131781535949,0.7019150072480898,1.9226367589837992,0.7019150072480898
1539131781551953,1.0070954451819034,2.166781109330941,1.1291676203554744
1539131781567958,1.739528496223329,2.3498893720911838,1.4953841458761872
1539131781583962,2.532997634851654,2.410925459678083,1.5564202334630863
1539131781599966,3.3264667734797513,2.7161058976118966,1.3122758831159445
1539131781615970,3.692683299000464,3.0823224231326094,1.1902037079423735
1539131781631974,3.6316472114137923,3.570611123826893,1.0681315327688026
1539131781647978,2.9602502479590385,3.570611123826893,0.7019150072480898
1539131781663982,1.983672846570471,4.242008087281647,0.2746623941404778
1539131781679986,1.3122758831159445,4.058899824521177,0.33569848172737693
1539131781695990,0.5798428320745188,3.936827649347606,0.33569848172737693
1539131781711994,-0.09155413138023505,3.692683299000464,0.15259021896690683
1539131781727998,-0.8850232700083325,3.692683299000464,-0.213626306553806
1539131781744002,-1.1291676203554744,3.3875028610666504,-0.3967345693140487
1539131781760007,-0.7629510948347615,2.4719615472647547,-0.33569848172737693
1539131781776011,-0.5798428320745188,2.8381780727854675,0.33569848172737693
1539131781792015,-0.09155413138023505,3.2654306858930795,1.3122758831159445
1539131781808019,0.6408789196611906,3.3264667734797513,1.6174563210497581
1539131781824023,1.3122758831159445,3.2654306858930795,1.4343480582895154
1539131781840027,1.6784924086366573,3.4485389486533222,1.4343480582895154
1539131781856048,1.983672846570471,3.875791561760934,1.5564202334630863
1539131781872052,2.227817196917613,3.875791561760934,1.4953841458761872
1539131781888056,1.983672846570471,3.7537193865873633,0.6408789196611906
1539131781904060,1.6784924086366573,3.0823224231326094,-0.09155413138023505
1539131781920065,1.4953841458761872,3.0823224231326094,-0.2746623941404778
1539131781936069,1.1291676203554744,3.3875028610666504,-0.09155413138023505
1539131781952073,0.6408789196611906,3.5095750362402214,0.03051804379333589
1539131781968077,0.213626306553806,3.2654306858930795,-0.09155413138023505
1539131781984081,0.15259021896690683,3.1433585107195086,-0.03051804379333589
1539131782000085,0.213626306553806,3.0823224231326094,0.15259021896690683
1539131782016089,0.33569848172737693,2.8992141603723667,0.3967345693140487
1539131782032093,0.5798428320745188,3.2654306858930795,0.7629510948347615
1539131782048097,1.0070954451819034,3.3264667734797513,0.9460593575952316
1539131782064101,1.0070954451819034,3.4485389486533222,0.7629510948347615
1539131782080105,1.1291676203554744,3.3875028610666504,0.6408789196611906
1539131782096109,1.2512397955290453,3.5095750362402214,0.5188067444876197
1539131782112114,1.3733119707026162,3.570611123826893,0.3967345693140487
1539131782128118,1.4343480582895154,3.570611123826893,0.33569848172737693
1539131782144122,1.3122758831159445,3.692683299000464,0.15259021896690683
1539131782160126,1.3122758831159445,3.814755474174035,0.15259021896690683
1539131782176178,1.5564202334630863,3.814755474174035,0.2746623941404778
1539131782192182,1.6174563210497581,3.570611123826893,0.09155413138023505
1539131782208187,1.4953841458761872,3.5095750362402214,-0.03051804379333589
1539131782224191,1.3122758831159445,3.3875028610666504,0.15259021896690683
1539131782240196,1.1291676203554744,3.3875028610666504,0.15259021896690683
1539131782256200,1.0681315327688026,3.1433585107195086,0.213626306553806
1539131782272205,1.1291676203554744,2.8381780727854675,0.2746623941404778
1539131782288210,0.8850232700083325,2.7771419851987957,0.3967345693140487
1539131782304214,0.5188067444876197,3.4485389486533222,0.45777065690094787
1539131782320219,0.5188067444876197,3.1433585107195086,0.2746623941404778
1539131782336223,0.7019150072480898,2.8992141603723667,-0.09155413138023505
1539131782352228,0.8850232700083325,3.2654306858930795,-0.2746623941404778
1539131782368232,0.9460593575952316,3.6316472114137923,-0.45777065690094787
1539131782384237,1.2512397955290453,3.7537193865873633,-0.45777065690094787
1539131782400241,1.6784924086366573,3.936827649347606,-0.5798428320745188
1539131782416246,1.983672846570471,3.936827649347606,-0.8850232700083325
1539131782432251,1.983672846570471,3.7537193865873633,-0.9460593575952316
1539131782448255,1.8005645838102282,4.119935912108076,-0.5798428320745188
1539131782464260,1.6174563210497581,3.936827649347606,-0.3967345693140487
1539131782480264,1.1902037079423735,3.3875028610666504,-0.45777065690094787
1539131782496276,0.7629510948347615,2.8992141603723667,-0.5188067444876197
1539131782512281,0.45777065690094787,2.227817196917613,-0.45777065690094787
1539131782528286,0.2746623941404778,1.983672846570471,-0.2746623941404778
1539131782544290,0.03051804379333589,2.410925459678083,0.03051804379333589
1539131782560295,0.2746623941404778,2.655069810025225,0.213626306553806
1539131782576299,0.5798428320745188,2.8992141603723667,0.213626306553806
1539131782592304,1.1902037079423735,2.9602502479590385,0.213626306553806
1539131782608308,1.739528496223329,2.9602502479590385,-0.33569848172737693
1539131782624313,1.6174563210497581,3.3264667734797513,-0.7629510948347615
1539131782640318,1.4343480582895154,3.1433585107195086,-0.6408789196611906
1539131782656322,1.1291676203554744,3.570611123826893,-0.5188067444876197
1539131782672327,0.5188067444876197,3.936827649347606,-0.2746623941404778
1539131782688331,-0.15259021896690683,4.242008087281647,-0.09155413138023505
1539131782704336,-0.33569848172737693,4.119935912108076,-0.2746623941404778
1539131782720340,-0.33569848172737693,3.6316472114137923,-0.7019150072480898
1539131782736345,-0.213626306553806,3.5095750362402214,-0.7629510948347615
1539131782752349,0.03051804379333589,3.7537193865873633,-0.7019150072480898
1539131782768354,0.7019150072480898,3.4485389486533222,-0.5188067444876197
1539131782784359,1.0070954451819034,3.570611123826893,-0.2746623941404778
1539131782800363,1.2512397955290453,3.4485389486533222,-0.03051804379333589
1539131782816375,1.5564202334630863,2.9602502479590385,0.213626306553806
1539131782832380,1.6784924086366573,3.0212863355459376,0.5798428320745188
1539131782848384,1.4953841458761872,3.1433585107195086,0.9460593575952316
1539131782864389,1.1902037079423735,3.3875028610666504,0.5798428320745188
1539131782880394,1.0681315327688026,3.3875028610666504,0.09155413138023505
1539131782896398,0.8850232700083325,3.5095750362402214,-0.213626306553806
1539131782912403,0.8239871824216607,4.119935912108076,-0.5798428320745188
1539131782928407,1.0070954451819034,4.180971999694748,-0.8850232700083325
1539131782944412,1.2512397955290453,4.180971999694748,-1.0681315327688026
1539131782960416,1.4953841458761872,4.180971999694748,-1.1902037079423735
1539131782976421,1.5564202334630863,4.119935912108076,-1.1902037079423735
1539131782992426,1.4343480582895154,3.692683299000464,-0.9460593575952316
1539131783008430,1.4343480582895154,3.6316472114137923,-0.3967345693140487
1539131783024435,1.6174563210497581,3.2043945983061803,0.15259021896690683
1539131783040439,1.3733119707026162,3.5095750362402214,0.7019150072480898
1539131783056444,0.9460593575952316,3.4485389486533222,1.4343480582895154
1539131783072448,0.8239871824216607,3.6316472114137923,1.5564202334630863
1539131783088453,0.7019150072480898,3.1433585107195086,1.1291676203554744
1539131783104457,0.5188067444876197,2.9602502479590385,0.7019150072480898
1539131783120462,0.5798428320745188,2.7161058976118966,0.2746623941404778
1539131783136474,0.5188067444876197,2.410925459678083,-0.09155413138023505
1539131783152479,0.5188067444876197,2.655069810025225,-0.3967345693140487
1539131783168483,0.5798428320745188,3.0212863355459376,-0.3967345693140487
1539131783184488,1.1291676203554744,3.2654306858930795,-0.33569848172737693
1539131783200492,1.9226367589837992,3.2043945983061803,-0.7019150072480898
1539131783216497,2.288853284504512,3.0823224231326094,-1.1902037079423735
1539131783232502,2.410925459678083,2.8381780727854675,-1.2512397955290453
1539131783248506,2.410925459678083,3.1433585107195086,-0.8850232700083325
1539131783264511,2.410925459678083,3.0212863355459376,0.03051804379333589
1539131783280515,1.983672846570471,3.3875028610666504,1.0070954451819034
1539131783296520,1.3122758831159445,2.8992141603723667,1.4343480582895154
1539131783312524,0.7629510948347615,2.04470893415737,1.739528496223329
1539131783328529,0.213626306553806,1.6784924086366573,1.739528496223329
1539131783344534,-0.7019150072480898,1.4953841458761872,1.3733119707026162
1539131783360538,-1.8005645838102282,1.6784924086366573,0.8239871824216607
1539131783376543,-2.166781109330941,1.739528496223329,0.15259021896690683
1539131783392547,-1.5564202334630863,1.3122758831159445,-0.45777065690094787
1539131783408552,-0.8239871824216607,1.0070954451819034,-0.7019150072480898
1539131783424556,-0.213626306553806,1.6784924086366573,-0.5188067444876197
1539131783440561,0.7629510948347615,1.4953841458761872,-0.8239871824216607
1539131783456573,1.6174563210497581,1.1291676203554744,-1.3733119707026162
1539131783472578,2.227817196917613,1.3122758831159445,-1.1291676203554744
1539131783488582,2.8381780727854675,1.0070954451819034,-0.45777065690094787
1539131783504587,2.9602502479590385,1.2512397955290453,0.09155413138023505
1539131783520591,2.8992141603723667,1.1902037079423735,0.3967345693140487
1539131783536596,2.532997634851654,1.2512397955290453,0.3967345693140487
1539131783552600,1.9226367589837992,1.4343480582895154,0.213626306553806
1539131783568605,1.5564202334630863,1.4343480582895154,0.03051804379333589
1539131783584610,1.0681315327688026,1.9226367589837992,-0.2746623941404778
1539131783600614,0.5188067444876197,2.532997634851654,-0.5188067444876197
1539131783616619,0.09155413138023505,3.3875028610666504,-0.5798428320745188
1539131783632623,-0.15259021896690683,3.814755474174035,-0.5188067444876197
1539131783648628,-0.33569848172737693,4.303044174868319,-0.7629510948347615
1539131783664632,-0.2746623941404778,4.730296787975931,-1.0681315327688026
1539131783680637,-0.15259021896690683,5.0354772259097444,-1.2512397955290453
1539131783696642,-0.3967345693140487,5.0354772259097444,-1.1902037079423735
1539131783712646,-0.7629510948347615,4.60822461280236,-1.4953841458761872
1539131783728651,-1.0681315327688026,4.058899824521177,-1.739528496223329
1539131783744655,-1.1291676203554744,3.7537193865873633,-1.8005645838102282
1539131783760660,-1.2512397955290453,3.570611123826893,-1.6174563210497581
1539131783776672,-0.6408789196611906,2.8381780727854675,-1.3122758831159445
1539131783792677,0.09155413138023505,2.7161058976118966,-1.1291676203554744
1539131783808681,1.0070954451819034,2.04470893415737,-0.7629510948347615
1539131783824686,2.105745021744042,2.166781109330941,-0.15259021896690683
1539131783840690,3.1433585107195086,1.9226367589837992,0.45777065690094787
1539131783856695,3.3875028610666504,1.8616006713969,0.9460593575952316
1539131783872699,3.0212863355459376,2.288853284504512,1.1291676203554744
1539131783888704,2.410925459678083,2.3498893720911838,1.1902037079423735
1539131783904708,1.3122758831159445,2.288853284504512,0.9460593575952316
1539131783920713,-0.03051804379333589,2.532997634851654,0.8850232700083325
1539131783936718,-0.9460593575952316,3.0212863355459376,1.0681315327688026
1539131783952722,-1.1902037079423735,3.0212863355459376,1.0681315327688026
1539131783968727,-1.4343480582895154,2.8381780727854675,0.6408789196611906
1539131783984731,-1.6784924086366573,2.8381780727854675,-0.15259021896690683
1539131784000736,-1.4343480582895154,2.655069810025225,-0.7019150072480898
1539131784016740,-0.7019150072480898,2.5940337224383256,-0.7019150072480898
1539131784032745,-0.2746623941404778,2.4719615472647547,-0.9460593575952316
1539131784048750,-0.45777065690094787,2.655069810025225,-1.4343480582895154
1539131784064754,-0.15259021896690683,2.4719615472647547,-1.8616006713969
1539131784080759,0.7019150072480898,2.410925459678083,-1.5564202334630863
1539131784096771,1.1902037079423735,2.5940337224383256,-0.7629510948347615
1539131784112775,1.3122758831159445,2.9602502479590385,0.03051804379333589
1539131784128780,1.739528496223329,2.4719615472647547,0.15259021896690683
1539131784144785,1.6174563210497581,2.410925459678083,-0.15259021896690683
1539131784160789,1.2512397955290453,1.9226367589837992,-0.3967345693140487
1539131784176794,1.0681315327688026,1.3733119707026162,-0.6408789196611906
1539131784192798,0.7019150072480898,1.3122758831159445,-0.5798428320745188
1539131784208803,0.15259021896690683,1.6174563210497581,-0.33569848172737693
1539131784224807,-0.09155413138023505,1.6784924086366573,-0.15259021896690683
1539131784240812,0.15259021896690683,1.3733119707026162,0.03051804379333589
1539131784256816,0.33569848172737693,1.3733119707026162,-0.09155413138023505
1539131784272821,0.33569848172737693,1.4343480582895154,-0.09155413138023505
1539131784288826,0.45777065690094787,1.6784924086366573,-0.03051804379333589
1539131784304830,0.9460593575952316,1.9226367589837992,0.2746623941404778
1539131784320835,1.1291676203554744,2.166781109330941,0.213626306553806
1539131784336839,1.1291676203554744,2.288853284504512,0.09155413138023505
1539131784352844,1.1902037079423735,2.4719615472647547,-0.2746623941404778
1539131784368848,1.0681315327688026,2.655069810025225,-0.5188067444876197
1539131784384853,0.7629510948347615,2.8992141603723667,-0.3967345693140487
1539131784400858,0.8239871824216607,2.7161058976118966,-0.09155413138023505
1539131784416870,1.0070954451819034,2.655069810025225,0.03051804379333589
1539131784432874,0.7629510948347615,2.655069810025225,-0.09155413138023505
1539131784448879,0.33569848172737693,3.0823224231326094,-0.213626306553806
1539131784464883,0.45777065690094787,2.7161058976118966,-0.15259021896690683
1539131784480888,0.33569848172737693,3.0212863355459376,0.03051804379333589
1539131784496893,0.15259021896690683,3.2043945983061803,-0.03051804379333589
1539131784512897,0.2746623941404778,3.3264667734797513,-0.2746623941404778
1539131784528902,0.45777065690094787,3.3264667734797513,-0.2746623941404778
1539131784544906,0.15259021896690683,3.692683299000464,-0.45777065690094787
1539131784560911,0.09155413138023505,3.7537193865873633,-0.5798428320745188
1539131784576915,0.5798428320745188,2.9602502479590385,-0.8239871824216607
1539131784592920,0.7629510948347615,3.1433585107195086,-1.0070954451819034
1539131784608924,0.8239871824216607,3.1433585107195086,-0.8239871824216607
1539131784624929,1.1291676203554744,3.1433585107195086,-0.5798428320745188
1539131784640934,1.4953841458761872,3.3875028610666504,-0.33569848172737693
1539131784656938,1.8616006713969,3.5095750362402214,-0.213626306553806
1539131784672943,1.8616006713969,3.3264667734797513,-0.33569848172737693
1539131784688947,1.8616006713969,3.7537193865873633,0.03051804379333589
1539131784704952,1.6784924086366573,4.242008087281647,1.0070954451819034
1539131784720956,1.3122758831159445,4.364080262455218,1.6784924086366573
1539131784736999,0.3967345693140487,4.486152437628789,1.6174563210497581
1539131784753004,-0.3967345693140487,4.9134050507361735,1.6784924086366573
1539131784769008,-0.7629510948347615,5.889982452124741,2.3498893720911838
1539131784785013,-0.5798428320745188,6.134126802471883,3.1433585107195086
1539131784801017,-0.213626306553806,5.76791027695117,3.0823224231326094
1539131784817022,0.03051804379333589,5.645838101777599,2.7771419851987957
1539131784833027,0.3967345693140487,4.9134050507361735,2.3498893720911838
1539131784849031,0.7019150072480898,3.875791561760934,1.2512397955290453
1539131784865036,0.5188067444876197,3.3264667734797513,0.45777065690094787
1539131784881040,-0.09155413138023505,3.5095750362402214,0.33569848172737693
1539131784897045,-0.213626306553806,3.5095750362402214,0.5188067444876197
1539131784913049,-0.03051804379333589,3.2654306858930795,0.5798428320745188
1539131784929054,0.03051804379333589,3.0212863355459376,0.7019150072480898
1539131784945058,0.2746623941404778,2.9602502479590385,0.7019150072480898
1539131784961063,0.3967345693140487,2.655069810025225,0.45777065690094787
1539131784977068,0.45777065690094787,2.410925459678083,0.09155413138023505
1539131784993072,0.5798428320745188,2.105745021744042,-0.03051804379333589
1539131785009077,0.6408789196611906,1.983672846570471,0.09155413138023505
1539131785025081,0.5798428320745188,1.983672846570471,0.2746623941404778
1539131785041086,0.5798428320745188,1.8616006713969,0.5188067444876197
1539131785057098,0.45777065690094787,2.04470893415737,0.6408789196611906
1539131785073103,0.5188067444876197,2.105745021744042,0.8850232700083325
1539131785089107,0.7019150072480898,2.227817196917613,0.8850232700083325
1539131785105112,0.5798428320745188,2.4719615472647547,0.7019150072480898
1539131785121116,0.33569848172737693,2.4719615472647547,0.33569848172737693
1539131785137121,0.33569848172737693,2.105745021744042,-0.03051804379333589
1539131785153125,0.33569848172737693,1.9226367589837992,-0.2746623941404778
1539131785169130,0.33569848172737693,2.532997634851654,-0.03051804379333589
1539131785185135,0.33569848172737693,2.9602502479590385,0.5188067444876197
1539131785201139,0.45777065690094787,3.3875028610666504,0.7629510948347615
1539131785217144,0.6408789196611906,3.3875028610666504,0.7019150072480898
1539131785233148,0.8239871824216607,3.3875028610666504,0.2746623941404778
1539131785249153,0.7019150072480898,3.3264667734797513,-0.2746623941404778
1539131785265157,0.33569848172737693,3.2043945983061803,-0.45777065690094787
1539131785281162,-0.03051804379333589,3.4485389486533222,-0.33569848172737693
1539131785297166,-0.15259021896690683,3.3264667734797513,0.03051804379333589
1539131785313171,-0.33569848172737693,3.4485389486533222,0.45777065690094787
1539131785329176,-0.3967345693140487,3.4485389486533222,0.6408789196611906
1539131785345180,-0.2746623941404778,3.1433585107195086,0.45777065690094787
1539131785361185,0.03051804379333589,2.8381780727854675,0.213626306553806
1539131785377197,0.09155413138023505,3.0212863355459376,0.2746623941404778
1539131785393201,-0.15259021896690683,3.875791561760934,0.6408789196611906
1539131785409206,-0.2746623941404778,4.486152437628789,1.1902037079423735
1539131785425211,-0.15259021896690683,4.42511635004189,1.1291676203554744
1539131785441215,-0.33569848172737693,4.669260700389032,0.9460593575952316
1539131785457220,-0.5188067444876197,4.60822461280236,0.7019150072480898
1539131785473224,-0.15259021896690683,3.936827649347606,0.2746623941404778
1539131785489229,0.33569848172737693,3.5095750362402214,-0.09155413138023505
1539131785505233,0.33569848172737693,3.5095750362402214,-0.213626306553806
1539131785521238,0.7629510948347615,3.5095750362402214,0.03051804379333589
1539131785537243,1.739528496223329,3.2654306858930795,0.213626306553806
1539131785553247,2.410925459678083,3.2043945983061803,0.15259021896690683
1539131785569252,2.410925459678083,3.570611123826893,0.2746623941404778
1539131785585256,2.410925459678083,3.6316472114137923,0.33569848172737693
1539131785601261,2.655069810025225,3.2043945983061803,0.33569848172737693
1539131785617265,2.5940337224383256,3.2043945983061803,0.33569848172737693
1539131785633270,2.166781109330941,3.570611123826893,0.3967345693140487
1539131785649274,1.739528496223329,3.4485389486533222,0.5798428320745188
1539131785665279,1.5564202334630863,3.2654306858930795,0.7629510948347615
1539131785681284,1.3122758831159445,3.0212863355459376,0.6408789196611906
1539131785697265,0.9460593575952316,3.0212863355459376,0.5188067444876197
1539131785713270,0.5188067444876197,3.1433585107195086,0.33569848172737693
1539131785729274,0.213626306553806,2.8992141603723667,-0.03051804379333589
1539131785745279,0.09155413138023505,2.5940337224383256,-0.45777065690094787
1539131785761283,0.15259021896690683,2.4719615472647547,-0.3967345693140487
1539131785777288,0.213626306553806,2.410925459678083,0.03051804379333589
1539131785793293,0.45777065690094787,2.227817196917613,0.2746623941404778
1539131785809297,0.5798428320745188,2.410925459678083,0.3967345693140487
1539131785825302,0.8850232700083325,2.105745021744042,0.3967345693140487
1539131785841306,1.0681315327688026,1.4953841458761872,0.213626306553806
1539131785857311,0.8850232700083325,1.8616006713969,0.5188067444876197
1539131785873315,0.7019150072480898,2.04470893415737,0.7019150072480898
1539131785889320,0.8850232700083325,1.5564202334630863,0.33569848172737693
1539131785905325,1.0681315327688026,1.4953841458761872,0.2746623941404778
1539131785921329,0.7629510948347615,1.9226367589837992,0.5188067444876197
1539131785937334,0.33569848172737693,2.5940337224383256,0.8850232700083325
1539131785953338,0.2746623941404778,2.8992141603723667,0.7019150072480898
1539131785969343,0.5798428320745188,2.8992141603723667,0.2746623941404778
1539131785985347,0.8850232700083325,2.9602502479590385,-0.03051804379333589
1539131786001352,1.1902037079423735,3.0823224231326094,-0.213626306553806
1539131786017364,1.3733119707026162,2.8992141603723667,-0.3967345693140487
1539131786033369,1.4343480582895154,2.7771419851987957,-0.33569848172737693
1539131786049373,1.1902037079423735,3.1433585107195086,-0.2746623941404778
1539131786065378,1.1291676203554744,2.9602502479590385,-0.3967345693140487
1539131786081382,1.1902037079423735,2.8381780727854675,-0.09155413138023505
1539131786097387,0.9460593575952316,3.2654306858930795,0.2746623941404778
1539131786113392,0.8239871824216607,3.2654306858930795,0.15259021896690683
1539131786129396,0.7629510948347615,3.3875028610666504,-0.5798428320745188
1539131786145401,0.8850232700083325,3.3264667734797513,-1.1902037079423735
1539131786161405,1.3122758831159445,3.3875028610666504,-1.4343480582895154
1539131786177410,1.983672846570471,3.3875028610666504,-1.2512397955290453
1539131786193414,2.655069810025225,3.3875028610666504,-0.7629510948347615
1539131786209419,2.532997634851654,3.570611123826893,-0.15259021896690683
1539131786225423,1.983672846570471,3.997863736934505,-0.03051804379333589
1539131786241428,1.739528496223329,3.3875028610666504,-0.3967345693140487
1539131786257433,1.4343480582895154,2.655069810025225,-0.6408789196611906
1539131786273437,0.9460593575952316,2.655069810025225,-0.03051804379333589
1539131786289442,0.5798428320745188,2.7161058976118966,0.5188067444876197
1539131786305446,0.09155413138023505,2.4719615472647547,0.2746623941404778
1539131786321451,-0.213626306553806,2.04470893415737,0.03051804379333589
1539131786337463,-0.33569848172737693,1.5564202334630863,0.03051804379333589
1539131786353468,-0.33569848172737693,1.8616006713969,0.5798428320745188
1539131786369472,-0.09155413138023505,2.532997634851654,1.0681315327688026
1539131786385477,0.45777065690094787,2.227817196917613,1.2512397955290453
1539131786401481,1.1291676203554744,2.410925459678083,1.1902037079423735
1539131786417486,1.739528496223329,2.7161058976118966,1.1902037079423735
1539131786433490,2.04470893415737,3.2043945983061803,1.1902037079423735
1539131786449495,2.532997634851654,3.3875028610666504,0.5798428320745188
1539131786465500,2.410925459678083,3.4485389486533222,-0.15259021896690683
1539131786481504,3.6316472114137923,2.288853284504512,0.7629510948347615
1539131786497509,4.242008087281647,2.166781109330941,2.105745021744042
1539131786513513,3.0212863355459376,2.8381780727854675,2.532997634851654
1539131786529518,1.8616006713969,2.166781109330941,1.5564202334630863
1539131786545522,0.8239871824216607,1.8616006713969,0.09155413138023505
1539131786561527,-0.15259021896690683,1.983672846570471,-0.6408789196611906
1539131786577531,-0.6408789196611906,2.532997634851654,-0.5188067444876197
1539131786593536,-0.33569848172737693,3.3264667734797513,0.09155413138023505
1539131786609541,0.03051804379333589,3.997863736934505,0.03051804379333589
1539131786625545,0.5798428320745188,3.7537193865873633,-0.7629510948347615
1539131786641550,1.1902037079423735,3.5095750362402214,-1.3122758831159445
1539131786657562,1.8005645838102282,3.1433585107195086,-1.1291676203554744
1539131786673566,2.105745021744042,3.3264667734797513,-0.5188067444876197
1539131786689571,1.983672846570471,3.2043945983061803,0.03051804379333589
1539131786705576,1.5564202334630863,2.8992141603723667,0.3967345693140487
1539131786721580,0.9460593575952316,3.0823224231326094,0.8850232700083325
1539131786737585,0.5188067444876197,2.8992141603723667,1.2512397955290453
1539131786753589,0.33569848172737693,2.7161058976118966,1.2512397955290453
1539131786769594,0.3967345693140487,2.8381780727854675,1.1291676203554744
1539131786785598,0.6408789196611906,2.655069810025225,0.8850232700083325
1539131786801603,0.7629510948347615,2.9602502479590385,0.45777065690094787
1539131786817608,0.8850232700083325,2.9602502479590385,-0.03051804379333589
1539131786833612,0.8239871824216607,3.1433585107195086,-0.33569848172737693
1539131786849617,0.6408789196611906,3.4485389486533222,-0.45777065690094787
1539131786865621,0.5188067444876197,3.875791561760934,-0.3967345693140487
1539131786881626,0.45777065690094787,4.242008087281647,-0.09155413138023505
1539131786897630,0.5188067444876197,7.537956816968062,-0.03051804379333589
1539131786913635,95.3688868543527,-20.660715648126825,1.5564202334630863
1539131786929639,102.51010910200648,-76.08148317692826,96.10131990539412
1539131786945644,-75.04386968795302,91.34050507362508,-37.01838712138556
1539131786961649,-77.54634927901111,28.656443121995835,-46.54001678492409
1539131786977691,115.449759670405,-144.01464866102083,18.219272144655406
1539131786993696,196.99397268635084,-134.7981994354161,37.32356755931937
1539131787009701,151.76623178454247,-2.8381780727854675,37.811856260013656
1539131787025706,73.33485923552325,68.1467917906466,36.591134508277946
1539131787041711,27.86297398336751,47.45555809872576,35.18730449378177
1539131787057716,27.374685282673227,-4.60822461280236,22.49179827573039
1539131787073722,37.2014953841458,-19.378957808804444,8.697642481116873
1539131787089727,28.778515297169406,0.9460593575952316,-1.3122758831159445
1539131787105732,3.875791561760934,7.476920729381163,-0.33569848172737693
1539131787121737,-29.694056610971074,11.993591210803288,0.7019150072480898
1539131787137742,-60.88349736781879,25.05531395437538,-6.8665598535133086
1539131787153747,-79.92675669489586,28.473334859235365,-17.54787518120088
1539131787169752,-83.77203021286323,15.655756466010416,-25.29945830472252
1539131787185757,-77.36324101625087,6.073090714885211,-28.839551384756078
1539131787201762,-67.23125047684448,7.232776379034021,-27.252613107499656
1539131787217767,-57.404440375371905,11.261158159761862,-21.637293049515392
1539131787233772,-48.371099412527656,14.618142977035177,-15.289539940489703
1539131787249777,-39.03257801174959,15.838864728770886,-12.359807736324
1539131787265782,-28.839551384756078,14.618142977035177,-12.4208438239109
1539131787281787,-17.975127794308264,11.993591210803288,-13.153276874952326
1539131787297790,-7.476920729381163,9.369039444571627,-12.115663385976859
1539131787313795,1.6784924086366573,8.087281605249018,-8.758678568703772
1539131787329800,8.087281605249018,7.4158846417944915,-4.364080262455218
1539131787345805,10.528725108720437,5.828946364538069,0.3967345693140487
1539131787361810,9.613183794918768,5.3406576638437855,3.3264667734797513
1539131787377815,6.927595941100208,4.547188525215461,3.814755474174035
1539131787393820,3.875791561760934,1.6784924086366573,3.2654306858930795
1539131787409825,0.8850232700083325,0.09155413138023505,2.4719615472647547
1539131787425830,-2.227817196917613,0.213626306553806,2.105745021744042
1539131787441836,-4.669260700389032,0.5188067444876197,2.166781109330941
1539131787457841,-6.073090714885211,0.8239871824216607,1.6174563210497581
1539131787473846,-6.195162890058782,0.33569848172737693,0.3967345693140487
1539131787489851,-5.645838101777599,0.8239871824216607,-1.1291676203554744
1539131787505856,-4.669260700389032,1.8005645838102282,-1.9226367589837992
1539131787521861,-3.2654306858930795,2.532997634851654,-2.04470893415737
1539131787537866,-1.3733119707026162,2.8992141603723667,-1.8616006713969
1539131787553871,0.3967345693140487,3.3264667734797513,-1.5564202334630863
1539131787569876,1.8005645838102282,3.814755474174035,-1.4953841458761872
1539131787585881,7.049668116273779,2.166781109330941,-1.3733119707026162
1539131787601886,7.904173342488775,-2.532997634851654,1.6784924086366573
1539131787617889,-6.744487678339738,7.17174029144735,0.6408789196611906
1539131787633894,-8.45349813076973,8.941786831464015,-0.8239871824216607
1539131787649899,0.7019150072480898,-0.03051804379333589,-3.2043945983061803
1539131787665904,3.2043945983061803,-5.0354772259097444,-1.739528496223329
1539131787681909,-1.4343480582895154,3.875791561760934,0.5798428320745188
1539131787697914,-1.2512397955290453,5.0354772259097444,2.227817196917613
1539131787713919,0.8850232700083325,1.3733119707026162,1.0070954451819034
1539131787729924,0.2746623941404778,2.04470893415737,-0.6408789196611906
1539131787745929,-0.15259021896690683,2.7161058976118966,-1.1902037079423735
1539131787761934,0.45777065690094787,2.4719615472647547,-1.4343480582895154
1539131787777939,0.6408789196611906,2.4719615472647547,-0.8850232700083325
1539131787793944,0.5798428320745188,3.0823224231326094,-0.15259021896690683
1539131787809949,0.45777065690094787,3.3264667734797513,0.213626306553806
1539131787825955,0.09155413138023505,2.8992141603723667,-0.03051804379333589
1539131787841960,-0.213626306553806,2.532997634851654,-0.213626306553806
1539131787857965,-0.213626306553806,2.5940337224383256,-0.2746623941404778
1539131787873970,-0.33569848172737693,2.7771419851987957,-0.45777065690094787
1539131787889975,-0.3967345693140487,2.655069810025225,-0.5798428320745188
1539131787905980,0.2746623941404778,2.532997634851654,-0.5188067444876197
1539131787921985,0.9460593575952316,2.4719615472647547,-0.2746623941404778
1539131787937988,0.9460593575952316,3.0823224231326094,0.03051804379333589
1539131787953993,1.1291676203554744,3.3264667734797513,0.15259021896690683
1539131787969998,1.3122758831159445,2.8992141603723667,0.09155413138023505
1539131787986003,1.1902037079423735,2.7771419851987957,0.03051804379333589
1539131788002008,1.2512397955290453,2.8992141603723667,0.03051804379333589
1539131788018013,1.3733119707026162,2.8381780727854675,0.45777065690094787
1539131788034018,1.1291676203554744,3.0212863355459376,0.6408789196611906
1539131788050023,0.5798428320745188,2.8381780727854675,0.7019150072480898
1539131788066028,-0.15259021896690683,3.0212863355459376,0.7019150072480898
1539131788082033,-0.03051804379333589,2.7161058976118966,0.5798428320745188
1539131788098038,0.45777065690094787,2.04470893415737,0.5798428320745188
1539131788114043,0.45777065690094787,2.227817196917613,0.7019150072480898
1539131788130048,0.45777065690094787,2.288853284504512,0.7629510948347615
1539131788146053,0.5188067444876197,2.288853284504512,0.5188067444876197
1539131788162058,0.6408789196611906,2.410925459678083,0.33569848172737693
1539131788178063,0.8239871824216607,2.5940337224383256,0.09155413138023505
1539131788194069,1.0070954451819034,2.655069810025225,-0.3967345693140487
1539131788210074,1.1291676203554744,2.7771419851987957,-1.0070954451819034
1539131788226079,1.3122758831159445,2.9602502479590385,-1.2512397955290453
1539131788242084,1.6784924086366573,2.8992141603723667,-0.9460593575952316
1539131788258087,1.6174563210497581,3.570611123826893,-0.3967345693140487
1539131788274092,1.6174563210497581,3.5095750362402214,-0.09155413138023505
1539131788290097,1.4953841458761872,2.7161058976118966,-0.45777065690094787
1539131788306102,1.3733119707026162,2.166781109330941,-0.9460593575952316
1539131788322107,1.1291676203554744,1.739528496223329,-0.8239871824216607
1539131788338112,1.0070954451819034,1.8005645838102282,-0.2746623941404778
1539131788354117,1.0070954451819034,1.9226367589837992,-0.03051804379333589
1539131788370122,0.9460593575952316,1.983672846570471,-0.03051804379333589
1539131788386127,0.7019150072480898,2.105745021744042,-0.5798428320745188
1539131788402132,0.5188067444876197,1.9226367589837992,-1.1902037079423735
1539131788418137,0.5188067444876197,2.166781109330941,-1.1291676203554744
1539131788434142,0.7629510948347615,2.166781109330941,-0.7019150072480898
1539131788450147,0.7019150072480898,2.8381780727854675,-0.5798428320745188
1539131788466152,0.5798428320745188,2.7161058976118966,-0.9460593575952316
1539131788482157,0.15259021896690683,2.532997634851654,-1.4343480582895154
1539131788498162,0.03051804379333589,2.166781109330941,-1.5564202334630863
1539131788514167,0.09155413138023505,2.227817196917613,-1.1291676203554744
1539131788530172,-0.03051804379333589,2.410925459678083,-0.6408789196611906
1539131788546177,-0.33569848172737693,2.410925459678083,-0.3967345693140487
1539131788562183,-0.5188067444876197,2.105745021744042,-0.45777065690094787
1539131788578186,-0.3967345693140487,1.5564202334630863,-0.45777065690094787
1539131788594191,-0.2746623941404778,1.3122758831159445,-0.2746623941404778
1539131788610196,-0.2746623941404778,1.4343480582895154,0.15259021896690683
1539131788626201,-0.15259021896690683,1.3733119707026162,0.3967345693140487
1539131788642206,-0.09155413138023505,1.3733119707026162,0.33569848172737693
1539131788658211,-0.2746623941404778,1.4343480582895154,0.03051804379333589
1539131788674216,-0.2746623941404778,1.1902037079423735,-0.15259021896690683
1539131788690221,-0.09155413138023505,1.3733119707026162,-0.2746623941404778
1539131788706226,0.213626306553806,1.6784924086366573,-0.33569848172737693
1539131788722231,0.2746623941404778,2.288853284504512,-0.33569848172737693
1539131788738236,0.3967345693140487,2.7161058976118966,-0.3967345693140487
1539131788754241,1.0070954451819034,2.8992141603723667,-0.45777065690094787
1539131788770246,1.1902037079423735,3.2043945983061803,-0.5188067444876197
1539131788786251,1.3122758831159445,2.9602502479590385,-0.6408789196611906
1539131788802256,1.2512397955290453,2.8381780727854675,-0.7629510948347615
1539131788818261,0.9460593575952316,2.8992141603723667,-0.6408789196611906
1539131788834266,0.5798428320745188,2.5940337224383256,-0.45777065690094787
1539131788850271,0.09155413138023505,2.7161058976118966,0.03051804379333589
1539131788866276,-0.2746623941404778,2.410925459678083,0.33569848172737693
1539131788882281,-0.8239871824216607,2.227817196917613,0.213626306553806
1539131788898285,-1.1291676203554744,2.227817196917613,0.09155413138023505
1539131788914290,-0.9460593575952316,2.288853284504512,0.03051804379333589
1539131788930295,-0.6408789196611906,2.227817196917613,0.213626306553806
1539131788946300,-0.213626306553806,2.288853284504512,0.33569848172737693
1539131788962305,0.15259021896690683,2.532997634851654,0.2746623941404778
1539131788978310,0.5798428320745188,2.4719615472647547,-0.09155413138023505
1539131788994315,0.7629510948347615,2.655069810025225,-0.33569848172737693
1539131789010320,0.8239871824216607,2.7771419851987957,-0.3967345693140487
1539131789026325,0.7629510948347615,2.9602502479590385,-0.3967345693140487
1539131789042330,0.7629510948347615,3.2043945983061803,-0.2746623941404778
1539131789058335,0.6408789196611906,3.2654306858930795,-0.213626306553806
1539131789074340,0.45777065690094787,3.3264667734797513,-0.09155413138023505
1539131789090345,0.3967345693140487,3.4485389486533222,0.03051804379333589
1539131789106350,0.6408789196611906,3.3875028610666504,0.15259021896690683
1539131789122355,0.5798428320745188,3.3264667734797513,0.15259021896690683
1539131789138360,0.3967345693140487,3.2654306858930795,0.15259021896690683
1539131789154365,0.45777065690094787,2.8381780727854675,0.213626306553806
1539131789170370,0.5188067444876197,3.1433585107195086,0.03051804379333589
1539131789186375,0.33569848172737693,3.3264667734797513,0.09155413138023505
1539131789202380,0.3967345693140487,3.1433585107195086,0.2746623941404778
1539131789218414,0.5798428320745188,3.2654306858930795,0.3967345693140487
1539131789234419,0.6408789196611906,3.3264667734797513,0.6408789196611906
1539131789250424,0.6408789196611906,3.3264667734797513,0.5798428320745188
1539131789266429,0.5798428320745188,3.3264667734797513,0.3967345693140487
1539131789282434,0.6408789196611906,3.1433585107195086,0.213626306553806
1539131789298439,0.8239871824216607,3.0823224231326094,0.213626306553806
1539131789314444,0.9460593575952316,3.2043945983061803,0.33569848172737693
1539131789330449,0.9460593575952316,3.1433585107195086,0.5188067444876197
1539131789346454,1.1291676203554744,2.9602502479590385,0.5798428320745188
1539131789362459,1.3122758831159445,2.7771419851987957,0.5798428320745188
1539131789378464,1.5564202334630863,2.3498893720911838,0.5188067444876197
1539131789394469,1.5564202334630863,2.227817196917613,0.3967345693140487
1539131789410474,1.5564202334630863,2.105745021744042,0.5188067444876197
1539131789426479,1.4953841458761872,2.532997634851654,0.8850232700083325
1539131789442484,1.6174563210497581,2.7161058976118966,1.3122758831159445
1539131789458490,1.6174563210497581,2.7161058976118966,1.4953841458761872
1539131789474495,1.4343480582895154,2.9602502479590385,1.3122758831159445
1539131789490500,1.2512397955290453,2.8992141603723667,1.0070954451819034
1539131789506505,1.0070954451819034,3.1433585107195086,0.5188067444876197
1539131789522510,0.7629510948347615,3.2654306858930795,0.213626306553806
1539131789538513,0.3967345693140487,3.3875028610666504,-0.09155413138023505
1539131789554518,0.2746623941404778,3.5095750362402214,-0.3967345693140487
1539131789570523,0.2746623941404778,3.0823224231326094,-0.7019150072480898
1539131789586528,0.33569848172737693,3.1433585107195086,-1.1291676203554744
1539131789602533,0.5188067444876197,3.1433585107195086,-1.1902037079423735
1539131789618538,0.7019150072480898,2.9602502479590385,-1.0070954451819034
1539131789634543,0.6408789196611906,3.1433585107195086,-0.8239871824216607
1539131789650548,0.7629510948347615,2.9602502479590385,-0.5798428320745188
1539131789666553,0.8239871824216607,2.655069810025225,-0.5188067444876197
1539131789682558,0.6408789196611906,2.5940337224383256,-0.5188067444876197
1539131789698563,0.5188067444876197,2.227817196917613,-0.33569848172737693
1539131789714568,0.2746623941404778,2.3498893720911838,-0.09155413138023505
1539131789730573,0.09155413138023505,2.7161058976118966,0.15259021896690683
1539131789746578,0.03051804379333589,2.7161058976118966,0.213626306553806
1539131789762583,0.2746623941404778,2.3498893720911838,-0.09155413138023505
1539131789778588,0.3967345693140487,1.9226367589837992,-0.33569848172737693
1539131789794593,0.2746623941404778,2.04470893415737,0.03051804379333589
1539131789810598,-0.03051804379333589,2.3498893720911838,0.33569848172737693
1539131789826604,-0.213626306553806,2.288853284504512,0.213626306553806
1539131789842609,-0.213626306553806,2.105745021744042,-0.213626306553806
1539131789858612,-0.15259021896690683,1.8616006713969,-0.09155413138023505
1539131789874617,-0.03051804379333589,2.227817196917613,0.213626306553806
1539131789890622,0.213626306553806,2.410925459678083,0.33569848172737693
1539131789906627,0.5798428320745188,2.8381780727854675,0.2746623941404778
1539131789922632,1.0070954451819034,3.2043945983061803,0.3967345693140487
1539131789938637,1.4343480582895154,3.3875028610666504,0.3967345693140487
1539131789954642,1.3733119707026162,3.570611123826893,-0.03051804379333589
1539131789970647,1.0681315327688026,3.3875028610666504,-0.7629510948347615
1539131789986652,0.8850232700083325,3.2654306858930795,-0.9460593575952316
1539131790002657,0.8850232700083325,3.3875028610666504,-0.33569848172737693
1539131790018662,1.0070954451819034,3.2043945983061803,0.2746623941404778
1539131790034667,0.7019150072480898,3.1433585107195086,0.3967345693140487
1539131790050672,-0.03051804379333589,2.7771419851987957,0.03051804379333589
1539131790066677,-0.5188067444876197,2.5940337224383256,-0.33569848172737693
1539131790082682,-0.7019150072480898,2.166781109330941,-0.45777065690094787
1539131790098687,-0.8239871824216607,2.410925459678083,-0.15259021896690683
1539131790114692,-0.5798428320745188,2.3498893720911838,0.03051804379333589
1539131790130697,-0.33569848172737693,2.410925459678083,0.213626306553806
1539131790146702,0.213626306553806,2.7161058976118966,0.5798428320745188
1539131790162707,0.8239871824216607,3.0823224231326094,0.8850232700083325
1539131790178711,1.3733119707026162,2.7161058976118966,0.7019150072480898
1539131790194716,1.6784924086366573,2.227817196917613,0.15259021896690683
1539131790210721,1.6784924086366573,1.9226367589837992,-0.2746623941404778
1539131790226726,1.3122758831159445,1.8616006713969,-0.33569848172737693
1539131790242731,0.9460593575952316,2.288853284504512,-0.03051804379333589
1539131790258736,0.5188067444876197,2.532997634851654,0.15259021896690683
1539131790274741,0.2746623941404778,2.410925459678083,0.213626306553806
1539131790290746,0.15259021896690683,2.3498893720911838,-0.03051804379333589
1539131790306751,0.2746623941404778,2.166781109330941,-0.03051804379333589
1539131790322756,0.5188067444876197,2.227817196917613,-0.09155413138023505
1539131790338761,0.7629510948347615,2.3498893720911838,-0.09155413138023505
1539131790354766,1.0070954451819034,2.288853284504512,-0.2746623941404778
1539131790370771,1.1291676203554744,2.288853284504512,-0.5188067444876197
1539131790386776,1.2512397955290453,2.105745021744042,-0.2746623941404778
1539131790402781,1.3733119707026162,2.532997634851654,0.2746623941404778
1539131790418786,1.4343480582895154,2.8381780727854675,0.6408789196611906
1539131790434791,1.1902037079423735,3.0212863355459376,0.3967345693140487
1539131790450796,0.8239871824216607,3.0823224231326094,-0.09155413138023505
1539131790466801,0.6408789196611906,3.2654306858930795,-0.5188067444876197
1539131790482806,0.8239871824216607,3.3264667734797513,-0.3967345693140487
1539131790498809,0.7019150072480898,3.3264667734797513,-0.5188067444876197
1539131790514814,0.45777065690094787,3.7537193865873633,-0.7019150072480898
1539131790530820,0.5188067444876197,3.692683299000464,-0.45777065690094787
1539131790546825,0.8239871824216607,3.6316472114137923,0.09155413138023505
1539131790562830,1.1291676203554744,3.4485389486533222,0.33569848172737693
1539131790578835,1.2512397955290453,3.0823224231326094,0.09155413138023505
1539131790594840,1.1902037079423735,2.7771419851987957,-0.213626306553806
1539131790610845,1.2512397955290453,2.8381780727854675,-0.213626306553806
1539131790626850,1.4343480582895154,2.227817196917613,-0.03051804379333589
1539131790642855,1.3122758831159445,2.3498893720911838,0.33569848172737693
1539131790658860,0.8850232700083325,2.3498893720911838,0.5188067444876197
1539131790674865,0.3967345693140487,1.8005645838102282,0.09155413138023505
1539131790690870,-0.213626306553806,1.3122758831159445,-0.6408789196611906
1539131790706875,-0.8850232700083325,1.5564202334630863,-0.7629510948347615
1539131790722880,-1.3122758831159445,2.3498893720911838,-0.15259021896690683
1539131790738885,-1.1291676203554744,2.5940337224383256,0.3967345693140487
1539131790754890,-0.5798428320745188,2.655069810025225,0.3967345693140487
1539131790770895,0.03051804379333589,2.227817196917613,-0.03051804379333589
1539131790786900,0.5188067444876197,2.288853284504512,-0.7629510948347615
1539131790802905,0.9460593575952316,2.4719615472647547,-0.7629510948347615
1539131790818908,1.4343480582895154,2.7771419851987957,-0.213626306553806
1539131790834913,1.8616006713969,2.7161058976118966,-0.03051804379333589
1539131790850918,1.9226367589837992,2.4719615472647547,-0.15259021896690683
1539131790866923,1.739528496223329,2.410925459678083,-0.09155413138023505
1539131790882928,1.4343480582895154,2.4719615472647547,0.45777065690094787
1539131790898934,0.8239871824216607,2.7161058976118966,0.6408789196611906
1539131790914939,-0.03051804379333589,2.5940337224383256,0.2746623941404778
1539131790930944,-0.213626306553806,2.166781109330941,-0.03051804379333589
1539131790946949,-0.03051804379333589,2.105745021744042,0.09155413138023505
1539131790962954,0.03051804379333589,2.227817196917613,0.5188067444876197
1539131790978959,-0.15259021896690683,2.9602502479590385,0.8239871824216607
1539131790994964,-0.213626306553806,3.2654306858930795,0.33569848172737693
1539131791010969,0.33569848172737693,3.0823224231326094,-0.33569848172737693
1539131791026974,1.0681315327688026,2.8992141603723667,-0.2746623941404778
1539131791042979,1.4343480582895154,3.3264667734797513,0.33569848172737693
1539131791058984,1.3122758831159445,3.875791561760934,0.8850232700083325
1539131791074989,1.1902037079423735,4.058899824521177,0.8239871824216607
1539131791090994,1.3733119707026162,3.692683299000464,0.5798428320745188
1539131791106999,1.3733119707026162,3.0823224231326094,0.6408789196611906
1539131791123004,1.0070954451819034,3.2043945983061803,1.0681315327688026
1539131791139007,0.7019150072480898,3.570611123826893,1.6174563210497581
1539131791155012,0.7629510948347615,3.6316472114137923,1.739528496223329
1539131791171017,0.6408789196611906,3.0823224231326094,1.1902037079423735
1539131791187022,0.15259021896690683,3.2043945983061803,0.5188067444876197
1539131791203027,0.15259021896690683,3.570611123826893,0.3967345693140487
1539131791219032,0.5798428320745188,3.7537193865873633,0.33569848172737693
1539131791235037,0.7629510948347615,3.7537193865873633,0.03051804379333589
1539131791251042,0.7019150072480898,3.7537193865873633,-0.3967345693140487
1539131791267048,0.3967345693140487,3.875791561760934,-0.7629510948347615
1539131791283053,0.09155413138023505,4.119935912108076,-0.7019150072480898
1539131791299058,0.33569848172737693,4.180971999694748,-0.3967345693140487
1539131791315063,0.45777065690094787,4.058899824521177,-0.2746623941404778
1539131791331068,0.45777065690094787,3.7537193865873633,-0.2746623941404778
1539131791347073,0.45777065690094787,3.570611123826893,-0.213626306553806
1539131791363078,0.7019150072480898,3.570611123826893,-0.09155413138023505
1539131791379083,1.0681315327688026,3.3875028610666504,0.09155413138023505
1539131791395088,1.1902037079423735,2.9602502479590385,0.15259021896690683
1539131791411093,1.0070954451819034,3.0823224231326094,0.15259021896690683
1539131791427098,1.0070954451819034,2.8992141603723667,0.33569848172737693
1539131791443103,0.8850232700083325,2.532997634851654,0.6408789196611906
1539131791459106,0.7019150072480898,2.7771419851987957,0.8850232700083325
1539131791475111,0.7019150072480898,2.410925459678083,0.8239871824216607
1539131791491116,0.7019150072480898,2.105745021744042,0.6408789196611906
1539131791507121,0.6408789196611906,2.04470893415737,0.8239871824216607
1539131791523126,0.6408789196611906,2.288853284504512,0.9460593575952316
1539131791539131,0.5798428320745188,2.532997634851654,0.6408789196611906
1539131791555136,0.6408789196611906,2.532997634851654,0.15259021896690683
1539131791571141,0.7019150072480898,2.7771419851987957,-0.213626306553806
1539131791587146,0.8239871824216607,3.1433585107195086,-0.2746623941404778
1539131791603151,1.1291676203554744,3.1433585107195086,-0.2746623941404778
1539131791619156,1.2512397955290453,3.2043945983061803,-0.33569848172737693
1539131791635162,1.0681315327688026,3.1433585107195086,-0.5188067444876197
1539131791651167,0.7629510948347615,3.1433585107195086,-0.6408789196611906
1539131791667172,0.6408789196611906,3.2654306858930795,-0.5798428320745188
1539131791683177,0.45777065690094787,3.2043945983061803,-0.3967345693140487
1539131791699182,0.2746623941404778,3.2654306858930795,-0.03051804379333589
1539131791715187,0.5188067444876197,3.2654306858930795,0.2746623941404778
1539131791731192,0.6408789196611906,3.1433585107195086,0.213626306553806
1539131791747197,0.5798428320745188,2.9602502479590385,-0.15259021896690683
1539131791763202,0.3967345693140487,2.7771419851987957,-0.3967345693140487
1539131791779205,0.213626306553806,2.655069810025225,-0.3967345693140487
1539131791795210,0.3967345693140487,2.4719615472647547,-0.2746623941404778
1539131791811215,0.45777065690094787,2.3498893720911838,-0.213626306553806
1539131791827220,0.213626306553806,2.7161058976118966,0.15259021896690683
1539131791843225,0.213626306553806,2.655069810025225,0.5188067444876197
1539131791859230,0.5798428320745188,2.410925459678083,0.3967345693140487
1539131791875235,1.0681315327688026,1.9226367589837992,0.03051804379333589
1539131791891240,1.0070954451819034,1.8616006713969,-0.2746623941404778
1539131791907245,0.6408789196611906,2.105745021744042,-0.2746623941404778
1539131791923250,0.3967345693140487,2.04470893415737,-0.15259021896690683
1539131791939255,0.3967345693140487,2.04470893415737,-0.15259021896690683
1539131791955260,0.213626306553806,1.8616006713969,-0.213626306553806
1539131791971265,-0.03051804379333589,1.983672846570471,0.03051804379333589
1539131791987270,-0.03051804379333589,2.166781109330941,0.213626306553806
1539131792003275,0.213626306553806,2.04470893415737,-0.15259021896690683
1539131792019281,0.33569848172737693,1.983672846570471,-0.7629510948347615
1539131792035286,0.5188067444876197,2.105745021744042,-0.7019150072480898
1539131792051291,0.6408789196611906,2.655069810025225,-0.15259021896690683
1539131792067296,1.0681315327688026,2.9602502479590385,0.3967345693140487
1539131792083301,1.1902037079423735,2.8381780727854675,0.33569848172737693
1539131792099304,1.1291676203554744,2.5940337224383256,0.09155413138023505
1539131792115309,0.7019150072480898,2.532997634851654,-0.213626306553806
1539131792131314,0.15259021896690683,2.7771419851987957,-0.3967345693140487
1539131792147319,-0.09155413138023505,3.1433585107195086,-0.2746623941404778
1539131792163324,0.09155413138023505,3.0212863355459376,-0.03051804379333589
1539131792179329,0.3967345693140487,3.0823224231326094,0.15259021896690683
1539131792195334,0.6408789196611906,3.2654306858930795,0.15259021896690683
1539131792211339,0.8850232700083325,3.1433585107195086,-0.2746623941404778
1539131792227344,0.9460593575952316,3.0823224231326094,-0.5798428320745188
1539131792243349,1.1902037079423735,3.2043945983061803,-0.3967345693140487
1539131792259354,1.3733119707026162,3.570611123826893,-0.03051804379333589
1539131792275359,1.4953841458761872,3.6316472114137923,0.33569848172737693
1539131792291364,1.5564202334630863,3.2043945983061803,0.2746623941404778
1539131792307369,1.3122758831159445,2.8992141603723667,0.09155413138023505
1539131792323374,1.0681315327688026,2.532997634851654,-0.03051804379333589
1539131792339379,0.8850232700083325,2.5940337224383256,0.213626306553806
1539131792355384,0.7019150072480898,2.5940337224383256,0.5798428320745188
1539131792371389,0.7019150072480898,2.655069810025225,0.8239871824216607
1539131792387395,0.5798428320745188,2.7771419851987957,0.7019150072480898
1539131792403400,0.45777065690094787,2.7161058976118966,0.45777065690094787
1539131792419403,0.6408789196611906,2.532997634851654,0.213626306553806
1539131792435408,0.8850232700083325,2.227817196917613,0.15259021896690683
1539131792451413,1.1291676203554744,2.5940337224383256,0.45777065690094787
1539131792467418,1.1291676203554744,2.7771419851987957,0.7019150072480898
1539131792483423,1.1902037079423735,2.5940337224383256,0.7019150072480898
1539131792499428,1.1291676203554744,2.410925459678083,0.7019150072480898
1539131792515433,1.0070954451819034,2.410925459678083,0.7629510948347615
1539131792531438,0.8850232700083325,2.410925459678083,0.8239871824216607
1539131792547443,0.5798428320745188,2.227817196917613,0.7629510948347615
1539131792563448,0.2746623941404778,2.166781109330941,0.6408789196611906
1539131792579453,0.03051804379333589,2.105745021744042,0.6408789196611906
1539131792595458,0.03051804379333589,2.227817196917613,0.33569848172737693
1539131792611463,0.15259021896690683,2.288853284504512,0.09155413138023505
1539131792627468,0.45777065690094787,2.5940337224383256,-0.15259021896690683
1539131792643473,0.6408789196611906,2.5940337224383256,-0.15259021896690683
1539131792659478,0.9460593575952316,3.0212863355459376,-0.213626306553806
1539131792675483,1.2512397955290453,3.2043945983061803,-0.33569848172737693
1539131792691488,1.4343480582895154,3.2654306858930795,-0.5188067444876197
1539131792707493,1.4953841458761872,3.2654306858930795,-0.5188067444876197
1539131792723498,1.3733119707026162,3.1433585107195086,-0.33569848172737693
1539131792739502,0.8850232700083325,3.1433585107195086,-0.3967345693140487
1539131792755507,0.3967345693140487,3.0212863355459376,-0.5188067444876197
1539131792771512,0.03051804379333589,3.0212863355459376,-0.3967345693140487
1539131792787517,0.09155413138023505,3.0212863355459376,0.09155413138023505
1539131792803522,0.15259021896690683,2.9602502479590385,0.3967345693140487
1539131792819527,0.3967345693140487,2.8381780727854675,0.45777065690094787
1539131792835532,0.7629510948347615,2.4719615472647547,0.33569848172737693
1539131792851537,1.0070954451819034,2.410925459678083,0.2746623941404778
1539131792867542,1.2512397955290453,2.166781109330941,0.3967345693140487
1539131792883547,1.1902037079423735,2.288853284504512,0.6408789196611906
1539131792899552,0.8239871824216607,2.4719615472647547,0.7629510948347615
1539131792915557,0.5798428320745188,2.166781109330941,0.6408789196611906
1539131792931562,0.3967345693140487,2.166781109330941,0.5188067444876197
1539131792947567,0.3967345693140487,2.227817196917613,0.6408789196611906
1539131792963572,0.45777065690094787,2.166781109330941,0.6408789196611906
1539131792979577,0.45777065690094787,2.166781109330941,0.45777065690094787
1539131792995582,0.3967345693140487,2.410925459678083,0.2746623941404778
1539131793011587,0.45777065690094787,2.4719615472647547,0.2746623941404778
1539131793027592,0.7019150072480898,2.7771419851987957,0.33569848172737693
1539131793043597,1.1902037079423735,2.9602502479590385,0.45777065690094787
1539131793059600,1.5564202334630863,3.2043945983061803,0.5798428320745188
1539131793075605,1.8616006713969,3.2654306858930795,0.45777065690094787
1539131793091611,1.8616006713969,3.4485389486533222,0.03051804379333589
1539131793107616,1.8616006713969,3.3264667734797513,-0.2746623941404778
1539131793123621,1.6784924086366573,3.3875028610666504,-0.2746623941404778
1539131793139626,1.5564202334630863,3.4485389486533222,-0.09155413138023505
1539131793155631,1.3122758831159445,3.6316472114137923,0.15259021896690683
1539131793171636,1.0681315327688026,3.814755474174035,0.213626306553806
1539131793187641,0.7019150072480898,3.814755474174035,0.03051804379333589
1539131793203646,0.15259021896690683,4.364080262455218,-0.03051804379333589
1539131793219651,-0.03051804379333589,4.791332875562603,-0.2746623941404778
1539131793235656,0.09155413138023505,4.180971999694748,-0.6408789196611906
1539131793251661,0.33569848172737693,3.692683299000464,-0.6408789196611906
1539131793267666,0.7629510948347615,3.2654306858930795,-0.45777065690094787
1539131793283671,0.9460593575952316,2.7771419851987957,-0.15259021896690683
1539131793299676,0.8850232700083325,2.9602502479590385,0.2746623941404778
1539131793315681,0.7019150072480898,3.2654306858930795,1.0070954451819034
1539131793331686,0.5798428320745188,2.9602502479590385,1.3122758831159445
1539131793347691,0.5798428320745188,2.7771419851987957,0.9460593575952316
1539131793363696,1.1291676203554744,2.288853284504512,0.8239871824216607
1539131793379699,1.6784924086366573,2.166781109330941,0.7629510948347615
1539131793395704,1.9226367589837992,2.4719615472647547,0.8239871824216607
1539131793411709,2.105745021744042,2.7161058976118966,1.0681315327688026
1539131793427714,2.105745021744042,2.8381780727854675,0.8850232700083325
1539131793443719,1.8005645838102282,2.9602502479590385,0.7019150072480898
1539131793459725,1.2512397955290453,2.7161058976118966,0.33569848172737693
1539131793475730,0.45777065690094787,2.532997634851654,-0.213626306553806
1539131793491735,-0.15259021896690683,2.7161058976118966,-0.33569848172737693
1539131793507740,-0.3967345693140487,3.3875028610666504,0.15259021896690683
1539131793523745,-0.3967345693140487,3.875791561760934,0.5188067444876197
1539131793539750,-0.213626306553806,3.3875028610666504,0.2746623941404778
1539131793555755,0.09155413138023505,3.0212863355459376,-0.3967345693140487
1539131793571760,0.33569848172737693,2.7771419851987957,-0.8239871824216607
1539131793587765,-0.03051804379333589,3.570611123826893,-0.9460593575952316
1539131793603770,-0.03051804379333589,4.058899824521177,-0.5188067444876197
1539131793619775,0.45777065690094787,3.814755474174035,-0.09155413138023505
1539131793635780,0.8239871824216607,3.692683299000464,0.33569848172737693
1539131793651785,1.0681315327688026,3.1433585107195086,0.5188067444876197
1539131793667790,0.9460593575952316,2.8381780727854675,0.5188067444876197
1539131793683795,0.6408789196611906,2.532997634851654,0.3967345693140487
1539131793699829,0.213626306553806,2.166781109330941,0.33569848172737693
1539131793715834,-0.33569848172737693,1.983672846570471,0.5798428320745188
1539131793731839,-1.0681315327688026,2.105745021744042,0.6408789196611906
1539131793747844,-1.0681315327688026,2.532997634851654,0.8850232700083325
1539131793763849,-1.0070954451819034,2.8381780727854675,0.9460593575952316
1539131793779854,-0.33569848172737693,2.9602502479590385,0.6408789196611906
1539131793795859,0.213626306553806,3.1433585107195086,0.213626306553806
1539131793811864,0.8850232700083325,3.0212863355459376,-0.03051804379333589
1539131793827869,1.739528496223329,3.0212863355459376,-0.45777065690094787
1539131793843874,1.9226367589837992,3.692683299000464,-0.5188067444876197
1539131793859879,1.8616006713969,3.814755474174035,-0.33569848172737693
1539131793875884,1.4953841458761872,4.242008087281647,-0.2746623941404778
1539131793891889,1.5564202334630863,3.875791561760934,0.03051804379333589
1539131793907894,1.3733119707026162,3.692683299000464,0.09155413138023505
1539131793923899,0.8239871824216607,3.6316472114137923,-0.09155413138023505
1539131793939904,0.45777065690094787,3.2043945983061803,-0.15259021896690683
1539131793955909,0.03051804379333589,3.3875028610666504,-0.213626306553806
1539131793971914,0.03051804379333589,3.0823224231326094,-0.213626306553806
1539131793987919,0.15259021896690683,2.7771419851987957,-0.09155413138023505
1539131794003924,0.09155413138023505,3.1433585107195086,0.15259021896690683
1539131794019928,0.213626306553806,3.1433585107195086,0.33569848172737693
1539131794035933,0.5188067444876197,3.1433585107195086,0.2746623941404778
1539131794051938,0.8850232700083325,2.655069810025225,0.2746623941404778
1539131794067943,1.1291676203554744,2.532997634851654,0.2746623941404778
1539131794083948,1.3122758831159445,2.410925459678083,0.15259021896690683
1539131794099953,1.3733119707026162,2.288853284504512,0.15259021896690683
1539131794115958,1.1291676203554744,2.4719615472647547,0.15259021896690683
1539131794131963,0.8239871824216607,2.8381780727854675,0.33569848172737693
1539131794147968,0.7019150072480898,2.5940337224383256,0.5188067444876197
1539131794163973,0.7019150072480898,2.7161058976118966,0.5188067444876197
1539131794179978,0.7629510948347615,2.7771419851987957,0.3967345693140487
1539131794195983,0.7019150072480898,2.7771419851987957,0.213626306553806
1539131794211988,0.6408789196611906,2.8381780727854675,0.15259021896690683
1539131794227993,0.7019150072480898,2.8381780727854675,0.09155413138023505
1539131794243998,0.6408789196611906,3.0212863355459376,-0.03051804379333589
1539131794260003,0.5798428320745188,3.1433585107195086,-0.213626306553806
1539131794276008,0.7629510948347615,2.8992141603723667,-0.45777065690094787
1539131794292013,0.9460593575952316,2.8381780727854675,-0.5188067444876197
1539131794308018,1.0070954451819034,2.9602502479590385,-0.3967345693140487
1539131794324023,1.0681315327688026,2.9602502479590385,-0.213626306553806
1539131794340026,1.1291676203554744,2.9602502479590385,-0.15259021896690683
1539131794356032,1.1291676203554744,2.532997634851654,-0.213626306553806
1539131794372037,0.9460593575952316,2.5940337224383256,-0.213626306553806
1539131794388042,0.7629510948347615,2.655069810025225,0.03051804379333589
1539131794404047,0.3967345693140487,2.5940337224383256,0.03051804379333589
1539131794420052,0.33569848172737693,2.5940337224383256,0.03051804379333589
1539131794436057,0.09155413138023505,2.655069810025225,-0.15259021896690683
1539131794452062,0.03051804379333589,2.655069810025225,-0.3967345693140487
1539131794468067,0.213626306553806,2.288853284504512,-0.7629510948347615
1539131794484072,0.3967345693140487,2.04470893415737,-1.0070954451819034
1539131794500077,0.5188067444876197,1.983672846570471,-0.8239871824216607
1539131794516082,0.45777065690094787,2.3498893720911838,-0.3967345693140487
1539131794532087,0.5188067444876197,2.532997634851654,-0.15259021896690683
1539131794548092,0.33569848172737693,2.7161058976118966,-0.45777065690094787
1539131794564097,0.2746623941404778,2.410925459678083,-0.5798428320745188
1539131794580102,0.3967345693140487,2.655069810025225,-0.3967345693140487
1539131794596107,0.6408789196611906,2.9602502479590385,0.09155413138023505
1539131794612112,0.7629510948347615,3.3875028610666504,0.5798428320745188
1539131794628117,0.7019150072480898,3.7537193865873633,0.7629510948347615
1539131794644122,0.8239871824216607,3.3875028610666504,0.2746623941404778
1539131794660125,1.0070954451819034,2.8992141603723667,-0.213626306553806
1539131794676130,1.1291676203554744,2.8381780727854675,-0.2746623941404778
1539131794692135,0.9460593575952316,3.3264667734797513,0.03051804379333589
1539131794708140,0.5188067444876197,3.570611123826893,0.03051804379333589
1539131794724146,0.2746623941404778,3.3264667734797513,-0.2746623941404778
1539131794740151,0.09155413138023505,2.9602502479590385,-0.7629510948347615
1539131794756156,-0.03051804379333589,3.0212863355459376,-0.8239871824216607
1539131794772161,-0.03051804379333589,3.3875028610666504,-0.45777065690094787
1539131794788166,0.213626306553806,3.3264667734797513,-0.33569848172737693
1539131794804171,0.3967345693140487,2.9602502479590385,-0.2746623941404778
1539131794820176,0.5798428320745188,2.9602502479590385,-0.2746623941404778
1539131794836181,0.5798428320745188,3.0212863355459376,-0.213626306553806
1539131794852186,0.6408789196611906,3.0823224231326094,-0.09155413138023505
1539131794868191,0.9460593575952316,2.8381780727854675,0.03051804379333589
1539131794884196,1.0070954451819034,2.7771419851987957,0.09155413138023505
1539131794900201,0.8850232700083325,2.9602502479590385,0.2746623941404778
1539131794916206,0.7629510948347615,2.655069810025225,0.45777065690094787
1539131794932211,0.6408789196611906,2.5940337224383256,0.15259021896690683
1539131794948216,0.45777065690094787,2.3498893720911838,-0.15259021896690683
1539131794964221,0.3967345693140487,2.3498893720911838,-0.213626306553806
1539131794980224,0.2746623941404778,2.410925459678083,-0.15259021896690683
1539131794996229,-0.33569848172737693,2.655069810025225,-0.213626306553806
1539131795012234,-0.8239871824216607,3.2654306858930795,-0.03051804379333589
1539131795028239,-0.6408789196611906,3.4485389486533222,-0.09155413138023505
1539131795044244,0.3967345693140487,3.4485389486533222,-0.3967345693140487
1539131795060249,2.04470893415737,3.997863736934505,0.09155413138023505
1539131795076254,1.6784924086366573,4.486152437628789,-0.15259021896690683
1539131795092260,2.4719615472647547,2.166781109330941,-0.45777065690094787
1539131795108265,1.983672846570471,2.5940337224383256,-0.8850232700083325
1539131795124270,0.3967345693140487,2.8381780727854675,-0.5798428320745188
1539131795140275,-0.6408789196611906,2.9602502479590385,-0.5188067444876197
1539131795156280,-1.1291676203554744,2.8381780727854675,-0.33569848172737693
1539131795172285,-1.0681315327688026,2.655069810025225,0.09155413138023505
1539131795188290,-0.5798428320745188,2.5940337224383256,0.33569848172737693
1539131795204295,-0.09155413138023505,2.5940337224383256,0.45777065690094787
1539131795220300,0.33569848172737693,2.5940337224383256,0.09155413138023505
1539131795236305,0.7019150072480898,2.655069810025225,-0.213626306553806
1539131795252310,1.1902037079423735,2.8381780727854675,-0.09155413138023505
1539131795268315,1.8616006713969,2.9602502479590385,0.3967345693140487
1539131795284320,2.3498893720911838,2.8992141603723667,0.7629510948347615
1539131795300323,2.532997634851654,2.7771419851987957,0.7019150072480898
1539131795316328,2.410925459678083,2.5940337224383256,0.45777065690094787
1539131795332333,1.8616006713969,2.532997634851654,0.09155413138023505
1539131795348338,1.4343480582895154,2.5940337224383256,0.2746623941404778
1539131795364343,1.2512397955290453,2.655069810025225,0.7019150072480898
1539131795380348,0.8850232700083325,2.7771419851987957,0.9460593575952316
1539131795396353,0.3967345693140487,2.7771419851987957,0.6408789196611906
1539131795412358,0.15259021896690683,2.7161058976118966,0.03051804379333589
1539131795428363,0.03051804379333589,2.655069810025225,-0.5188067444876197
1539131795444368,0.09155413138023505,2.8381780727854675,-0.6408789196611906
1539131795460374,0.2746623941404778,3.2043945983061803,-0.5188067444876197
1539131795476379,0.7019150072480898,3.3875028610666504,-0.213626306553806
1539131795492384,4.730296787975931,25.23842221713585,-2.105745021744042
1539131795508389,107.57610437170979,-77.91256580453182,48.371099412527656
1539131795524394,11.566338597695903,-5.523765926604028,47.82177462424647
1539131795540399,-105.0125886930648,115.69390402075214,-67.47539482719162
1539131795556404,-20.538643472953254,-30.54856183718607,-36.591134508278174
1539131795572409,130.76981765468827,-136.99549858854039,3.0212863355459376
1539131795588414,154.3297474631877,-76.75288014038301,26.7032883192187
1539131795604419,103.30357824063503,19.684138246738257,35.248340581368666
1539131795620422,46.11276417181648,59.296559090561914,34.02761882963296
1539131795636427,26.276035706111088,26.39810788128466,32.99000534065749
1539131795652432,33.05104142824439,-7.2938124666209205,22.369726100556818
1539131795668437,33.905546654459386,-9.185931181811156,6.805523765926637
1539131795684442,20.538643472953254,-0.2746623941404778,-0.8850232700083325
1539131795700447,-1.4953841458761872,1.0070954451819034,-0.2746623941404778
1539131795716452,-26.276035706111088,7.354848554207592,-0.3967345693140487
1539131795732457,-48.79835202563527,22.247653925383247,-6.683451590753066
1539131795748462,-64.1184100099183,23.83459220263967,-14.862287327382319
1539131795764467,-70.40512703135732,12.970168612191856,-21.759365224688963
1539131795780472,-68.39093614099329,6.927595941100208,-25.726710917830133
1539131795796477,-61.188677805752604,9.491111619745197,-24.322880903333953
1539131795812482,-52.216372930495254,12.787060349431613,-18.646524757763018
1539131795828487,-42.63370717936982,16.26611734187827,-13.214312962538997
1539131795844493,-32.37964446478986,15.838864728770886,-10.101472495613052
1539131795860498,-21.33211261158158,13.031204699778755,-9.613183794918768
1539131795876503,-11.01701380941472,10.711833371480907,-9.979400320439481
1539131795892508,-2.3498893720911838,7.537956816968062,-8.392462043183059
1539131795908513,4.119935912108076,5.645838101777599,-5.2185854886702145
1539131795924518,7.476920729381163,5.523765926604028,-1.1902037079423735
1539131795940551,8.148317692835917,5.645838101777599,2.410925459678083
1539131795956556,6.805523765926637,4.852368963149502,3.997863736934505
1539131795972561,4.242008087281647,3.3875028610666504,3.3875028610666504
1539131795988567,1.1291676203554744,1.983672846570471,2.105745021744042
1539131796004572,-1.4343480582895154,1.2512397955290453,1.1902037079423735
1539131796020577,-3.3875028610666504,1.6784924086366573,1.0681315327688026
1539131796036582,-4.42511635004189,1.983672846570471,1.0681315327688026
1539131796052587,-4.547188525215461,1.983672846570471,0.33569848172737693
1539131796068592,-3.997863736934505,2.04470893415737,-0.8239871824216607
1539131796084597,-3.2043945983061803,2.227817196917613,-1.5564202334630863
1539131796100602,-2.166781109330941,3.0212863355459376,-1.6784924086366573
1539131796116607,-0.5798428320745188,3.3264667734797513,-1.1902037079423735
1539131796132612,1.1291676203554744,3.3264667734797513,-0.6408789196611906
1539131796148617,2.227817196917613,2.9602502479590385,-0.3967345693140487
1539131796164622,2.410925459678083,2.7771419851987957,-0.5188067444876197
1539131796180627,1.983672846570471,2.5940337224383256,-0.5188067444876197
1539131796196632,1.4953841458761872,2.4719615472647547,-0.15259021896690683
1539131796212637,0.8239871824216607,2.8992141603723667,0.15259021896690683
1539131796228642,0.15259021896690683,2.8381780727854675,0.213626306553806
1539131796244647,-0.45777065690094787,2.9602502479590385,-0.09155413138023505
1539131796260650,-0.7629510948347615,3.0823224231326094,-0.6408789196611906
1539131796276655,-0.7629510948347615,3.2043945983061803,-0.8850232700083325
1539131796292660,-0.5798428320745188,3.5095750362402214,-1.1291676203554744
1539131796308665,-0.15259021896690683,3.3875028610666504,-1.3122758831159445
1539131796324670,0.15259021896690683,3.3264667734797513,-1.3733119707026162
1539131796340675,0.45777065690094787,3.1433585107195086,-1.1902037079423735
1539131796356680,0.7629510948347615,2.7771419851987957,-0.7629510948347615
1539131796372686,0.8850232700083325,2.8381780727854675,-0.213626306553806
1539131796388691,0.8239871824216607,3.2654306858930795,0.45777065690094787
1539131796404696,0.8239871824216607,3.0212863355459376,0.7019150072480898
1539131796420701,0.8239871824216607,2.4719615472647547,0.45777065690094787
1539131796436706,0.5798428320745188,2.166781109330941,0.33569848172737693
1539131796452711,0.6408789196611906,2.288853284504512,0.3967345693140487
1539131796468716,1.8616006713969,1.1902037079423735,1.1291676203554744
1539131796484721,-0.5798428320745188,3.3875028610666504,1.1291676203554744
1539131796500726,-1.8005645838102282,3.997863736934505,-0.2746623941404778
1539131796516731,0.5798428320745188,1.8005645838102282,-0.9460593575952316
1539131796532736,1.4953841458761872,2.3498893720911838,-0.33569848172737693
1539131796548741,1.3122758831159445,3.0823224231326094,0.2746623941404778
1539131796564746,1.6174563210497581,3.3875028610666504,0.15259021896690683
1539131796580749,1.6784924086366573,3.2043945983061803,-0.213626306553806
1539131796596754,0.7019150072480898,3.1433585107195086,-0.5798428320745188
1539131796612759,-0.03051804379333589,3.0823224231326094,-0.7629510948347615
1539131796628764,0.2746623941404778,2.655069810025225,-0.7019150072480898
1539131796644769,0.6408789196611906,2.410925459678083,-0.213626306553806
1539131796660774,0.7629510948347615,2.5940337224383256,0.33569848172737693
1539131796676779,0.3967345693140487,2.4719615472647547,0.5798428320745188
1539131796692784,-0.213626306553806,2.7161058976118966,0.6408789196611906
1539131796708789,-0.213626306553806,3.2654306858930795,0.6408789196611906
1539131796724794,0.7629510948347615,2.7771419851987957,0.33569848172737693
1539131796740800,1.4953841458761872,2.5940337224383256,0.09155413138023505
1539131796756805,1.4953841458761872,2.8381780727854675,0.09155413138023505
1539131796772810,1.0681315327688026,3.3264667734797513,0.09155413138023505
1539131796788815,1.0681315327688026,3.3264667734797513,-0.03051804379333589
1539131796804820,1.3733119707026162,2.8992141603723667,-0.213626306553806
1539131796820825,1.2512397955290453,2.7161058976118966,-0.33569848172737693
1539131796836830,0.7019150072480898,2.5940337224383256,-0.213626306553806
1539131796852835,0.213626306553806,2.7771419851987957,0.09155413138023505
1539131796868840,-0.03051804379333589,2.7771419851987957,0.5188067444876197
1539131796884845,-0.03051804379333589,2.9602502479590385,0.5188067444876197
1539131796900848,-0.03051804379333589,2.9602502479590385,0.15259021896690683
1539131796916853,0.09155413138023505,2.8381780727854675,-0.2746623941404778
1539131796932858,0.15259021896690683,3.0212863355459376,-0.5798428320745188
1539131796948863,0.45777065690094787,3.1433585107195086,-0.5188067444876197
1539131796964868,0.7019150072480898,3.2043945983061803,-0.5188067444876197
1539131796980873,0.7629510948347615,3.2654306858930795,-0.6408789196611906
1539131796996878,0.7019150072480898,3.0823224231326094,-0.45777065690094787
1539131797012883,0.7019150072480898,3.1433585107195086,-0.09155413138023505
1539131797028888,0.8239871824216607,2.8381780727854675,0.2746623941404778
1539131797044893,0.7629510948347615,2.7161058976118966,0.33569848172737693
1539131797060898,0.33569848172737693,2.655069810025225,0.213626306553806
1539131797076903,-0.03051804379333589,2.5940337224383256,0.09155413138023505
1539131797092908,-0.213626306553806,2.532997634851654,-0.15259021896690683
1539131797108914,-0.213626306553806,2.532997634851654,-0.2746623941404778
1539131797124919,0.03051804379333589,2.5940337224383256,-0.15259021896690683
1539131797140924,0.213626306553806,2.655069810025225,-0.15259021896690683
1539131797156929,0.45777065690094787,2.8381780727854675,-0.15259021896690683
1539131797172934,0.6408789196611906,2.5940337224383256,-0.2746623941404778
1539131797188939,0.8239871824216607,2.410925459678083,-0.2746623941404778
1539131797204944,0.7019150072480898,2.5940337224383256,-0.15259021896690683
1539131797220947,0.45777065690094787,2.7771419851987957,-0.03051804379333589
1539131797236952,0.33569848172737693,2.8381780727854675,0.09155413138023505
1539131797252957,0.2746623941404778,2.8381780727854675,0.15259021896690683
1539131797268962,0.213626306553806,2.7161058976118966,-0.15259021896690683
1539131797284967,0.09155413138023505,2.655069810025225,-0.3967345693140487
1539131797300972,0.15259021896690683,2.7771419851987957,-0.2746623941404778
1539131797316977,0.33569848172737693,2.8992141603723667,0.09155413138023505
1539131797332982,0.5188067444876197,2.8992141603723667,-0.03051804379333589
1539131797348987,0.5798428320745188,2.8381780727854675,-0.45777065690094787
1539131797364992,0.5798428320745188,2.8381780727854675,-0.3967345693140487
1539131797380997,0.7019150072480898,2.8381780727854675,-0.03051804379333589
1539131797397002,0.7019150072480898,3.0212863355459376,0.03051804379333589
1539131797413007,0.5798428320745188,2.8381780727854675,-0.03051804379333589
1539131797429012,0.45777065690094787,2.8381780727854675,-0.09155413138023505
1539131797445017,0.45777065690094787,2.7161058976118966,-0.03051804379333589
1539131797461022,0.3967345693140487,2.7161058976118966,0.09155413138023505
1539131797477028,0.5188067444876197,2.7771419851987957,0.03051804379333589
1539131797493033,0.6408789196611906,2.7161058976118966,-0.03051804379333589
1539131797509038,0.8850232700083325,2.7771419851987957,0.213626306553806
1539131797525043,1.0681315327688026,2.7771419851987957,0.2746623941404778
1539131797541046,1.0681315327688026,2.8381780727854675,0.213626306553806
1539131797557051,0.9460593575952316,2.9602502479590385,0.213626306553806
1539131797573056,0.9460593575952316,3.0823224231326094,0.15259021896690683
1539131797589061,1.1291676203554744,2.8381780727854675,0.213626306553806
1539131797605066,1.1291676203554744,2.655069810025225,0.09155413138023505
1539131797621071,0.7019150072480898,2.7771419851987957,0.09155413138023505
1539131797637076,0.33569848172737693,2.8992141603723667,0.33569848172737693
1539131797653081,0.3967345693140487,3.0823224231326094,0.7019150072480898
1539131797669086,0.5188067444876197,3.0823224231326094,0.8850232700083325
1539131797685091,0.6408789196611906,3.0212863355459376,0.7019150072480898
1539131797701096,0.7629510948347615,2.8992141603723667,0.33569848172737693
1539131797717101,0.7019150072480898,2.655069810025225,-0.09155413138023505
1539131797733106,0.5798428320745188,2.8381780727854675,-0.213626306553806
1539131797749111,0.5798428320745188,3.0212863355459376,-0.15259021896690683
1539131797765116,0.5798428320745188,2.9602502479590385,-0.09155413138023505
1539131797781121,0.7019150072480898,3.0212863355459376,0.09155413138023505
1539131797797126,0.9460593575952316,2.8381780727854675,0.15259021896690683
1539131797813131,0.9460593575952316,2.7771419851987957,0.09155413138023505
1539131797829136,0.8850232700083325,2.8381780727854675,0.213626306553806
1539131797845142,1.0681315327688026,2.8992141603723667,0.3967345693140487
1539131797861114,1.3733119707026162,2.7771419851987957,0.45777065690094787
1539131797877119,1.3733119707026162,2.8381780727854675,0.3967345693140487
1539131797893124,1.0681315327688026,3.0212863355459376,0.3967345693140487
1539131797909129,1.0070954451819034,3.2043945983061803,0.33569848172737693
1539131797925134,1.2512397955290453,3.0823224231326094,0.3967345693140487
1539131797941139,1.1291676203554744,3.2654306858930795,0.3967345693140487
1539131797957144,1.0681315327688026,3.3264667734797513,0.2746623941404778
1539131797973149,1.0681315327688026,3.2043945983061803,0.15259021896690683
1539131797989154,0.9460593575952316,3.3264667734797513,0.03051804379333589
1539131798005159,1.0681315327688026,3.2654306858930795,-0.15259021896690683
1539131798021165,1.0681315327688026,3.4485389486533222,-0.15259021896690683
1539131798037170,0.8850232700083325,3.570611123826893,0.09155413138023505
1539131798053175,0.9460593575952316,3.692683299000464,0.09155413138023505
1539131798069180,1.0070954451819034,3.570611123826893,0.09155413138023505
1539131798085185,0.8850232700083325,3.5095750362402214,-0.213626306553806
1539131798101190,0.5798428320745188,3.3264667734797513,-0.6408789196611906
1539131798117195,0.33569848172737693,3.0823224231326094,-0.7629510948347615
1539131798133200,0.213626306553806,3.1433585107195086,-0.6408789196611906
1539131798149205,0.213626306553806,3.0212863355459376,-0.213626306553806
1539131798165210,0.213626306553806,2.9602502479590385,0.03051804379333589
1539131798181244,0.213626306553806,2.7161058976118966,-0.03051804379333589
1539131798197249,0.3967345693140487,2.4719615472647547,-0.213626306553806
1539131798213254,0.7019150072480898,2.04470893415737,-0.33569848172737693
1539131798229259,0.9460593575952316,1.6174563210497581,-0.33569848172737693
1539131798245264,0.9460593575952316,1.6784924086366573,-0.213626306553806
1539131798261269,1.1291676203554744,1.8005645838102282,0.03051804379333589
1539131798277274,1.4343480582895154,1.9226367589837992,0.33569848172737693
1539131798293279,1.5564202334630863,1.739528496223329,0.5798428320745188
1539131798309284,1.6174563210497581,1.3122758831159445,0.3967345693140487
1539131798325289,1.4343480582895154,1.0681315327688026,0.09155413138023505
1539131798341294,0.9460593575952316,1.1291676203554744,-0.09155413138023505
1539131798357299,0.2746623941404778,1.2512397955290453,-0.15259021896690683
1539131798373304,-0.15259021896690683,1.1902037079423735,-0.2746623941404778
1539131798389309,-0.15259021896690683,1.1902037079423735,0.03051804379333589
1539131798405314,-0.09155413138023505,1.6784924086366573,0.15259021896690683
1539131798421319,0.09155413138023505,1.983672846570471,-0.03051804379333589
1539131798437324,0.33569848172737693,2.3498893720911838,-0.2746623941404778
1539131798453329,0.7019150072480898,2.5940337224383256,-0.5188067444876197
1539131798469334,1.0681315327688026,2.7771419851987957,-0.5798428320745188
1539131798485339,1.3122758831159445,3.570611123826893,-0.33569848172737693
1539131798501342,1.4953841458761872,3.4485389486533222,-0.2746623941404778
1539131798517347,1.3733119707026162,3.2043945983061803,-0.5798428320745188
1539131798533352,1.1902037079423735,3.0823224231326094,-0.6408789196611906
1539131798549358,1.0681315327688026,3.1433585107195086,-0.5188067444876197
1539131798565363,1.0070954451819034,3.1433585107195086,-0.33569848172737693
1539131798581368,0.8239871824216607,3.2043945983061803,-0.33569848172737693
1539131798597373,0.5798428320745188,3.1433585107195086,-0.3967345693140487
1539131798613378,0.5188067444876197,3.0212863355459376,-0.45777065690094787
1539131798629383,0.5798428320745188,2.7161058976118966,-0.33569848172737693
1539131798645388,0.5798428320745188,2.8992141603723667,-0.09155413138023505
1539131798661393,0.6408789196611906,2.9602502479590385,0.15259021896690683
1539131798677398,0.8850232700083325,2.7161058976118966,0.09155413138023505
1539131798693403,0.9460593575952316,2.4719615472647547,-0.15259021896690683
1539131798709408,1.0070954451819034,2.288853284504512,-0.09155413138023505
1539131798725413,1.0681315327688026,2.227817196917613,0.2746623941404778
1539131798741418,0.9460593575952316,2.4719615472647547,0.6408789196611906
1539131798757423,0.8239871824216607,2.4719615472647547,0.6408789196611906
1539131798773428,0.8239871824216607,2.288853284504512,0.2746623941404778
1539131798789433,0.7629510948347615,2.227817196917613,-0.09155413138023505
1539131798805438,0.5188067444876197,2.4719615472647547,-0.33569848172737693
1539131798821441,0.2746623941404778,2.7161058976118966,-0.3967345693140487
1539131798837446,0.213626306553806,2.7771419851987957,-0.45777065690094787
1539131798853451,-0.03051804379333589,2.7771419851987957,-0.6408789196611906
1539131798869456,-0.15259021896690683,2.8381780727854675,-0.7629510948347615
1539131798885461,-0.2746623941404778,2.8381780727854675,-1.0070954451819034
1539131798901466,-0.5188067444876197,3.0212863355459376,-1.1291676203554744
1539131798917472,-0.7019150072480898,3.2654306858930795,-0.8850232700083325
1539131798933477,-0.5798428320745188,2.7771419851987957,-0.9460593575952316
1539131798949482,-0.5188067444876197,3.2043945983061803,-0.7629510948347615
1539131798965487,-0.33569848172737693,2.7161058976118966,-0.6408789196611906
1539131798981492,-0.5798428320745188,2.8381780727854675,-0.8850232700083325
1539131798997497,-0.6408789196611906,2.5940337224383256,-1.3733119707026162
1539131799013502,-0.45777065690094787,2.410925459678083,-1.3733119707026162
1539131799029507,-0.3967345693140487,2.166781109330941,-1.3122758831159445
1539131799045512,-0.15259021896690683,2.166781109330941,-0.8850232700083325
1539131799061517,0.213626306553806,2.166781109330941,-0.45777065690094787
1539131799077522,0.5798428320745188,2.105745021744042,-0.03051804379333589
1539131799093527,0.6408789196611906,2.105745021744042,0.09155413138023505
1539131799109532,0.6408789196611906,1.9226367589837992,0.33569848172737693
1539131799125537,0.7629510948347615,1.8616006713969,0.7629510948347615
1539131799141540,0.8239871824216607,1.8005645838102282,0.9460593575952316
1539131799157545,0.7629510948347615,1.983672846570471,0.9460593575952316
1539131799173550,0.45777065690094787,1.983672846570471,0.7629510948347615
1539131799189555,0.213626306553806,2.227817196917613,0.33569848172737693
1539131799205560,0.15259021896690683,2.4719615472647547,0.03051804379333589
1539131799221565,0.3967345693140487,2.4719615472647547,-0.15259021896690683
1539131799237570,0.5188067444876197,2.655069810025225,-0.3967345693140487
1539131799253575,0.7019150072480898,2.7161058976118966,-0.5798428320745188
1539131799269580,0.9460593575952316,3.1433585107195086,-0.7019150072480898
1539131799285586,1.0681315327688026,3.5095750362402214,-0.7629510948347615
1539131799301591,1.0070954451819034,3.875791561760934,-0.8850232700083325
1539131799317596,1.0681315327688026,3.997863736934505,-1.3122758831159445
1539131799333601,1.1902037079423735,3.7537193865873633,-1.3733119707026162
1539131799349606,1.3122758831159445,3.692683299000464,-1.3733119707026162
1539131799365611,1.3733119707026162,3.5095750362402214,-1.3122758831159445
1539131799381616,1.3733119707026162,3.2654306858930795,-1.0681315327688026
1539131799397621,1.2512397955290453,3.1433585107195086,-0.7629510948347615
1539131799413626,1.1291676203554744,2.7161058976118966,-0.213626306553806
1539131799429631,0.9460593575952316,2.5940337224383256,0.45777065690094787
1539131799445636,0.5798428320745188,2.3498893720911838,1.0681315327688026
1539131799461639,0.15259021896690683,1.983672846570471,1.1291676203554744
1539131799477644,-0.45777065690094787,1.8616006713969,0.9460593575952316
1539131799493649,-0.8239871824216607,1.739528496223329,0.6408789196611906
1539131799509654,-0.8239871824216607,1.8616006713969,0.33569848172737693
1539131799525659,-0.6408789196611906,2.04470893415737,0.15259021896690683
1539131799541664,-0.213626306553806,2.288853284504512,-0.03051804379333589
1539131799557669,0.2746623941404778,2.3498893720911838,-0.2746623941404778
1539131799573674,0.5798428320745188,2.655069810025225,-0.5188067444876197
1539131799589679,0.6408789196611906,2.655069810025225,-0.7629510948347615
1539131799605684,0.7629510948347615,2.655069810025225,-0.8239871824216607
1539131799621689,0.5798428320745188,2.4719615472647547,-0.7629510948347615
1539131799637694,0.33569848172737693,2.7161058976118966,-0.45777065690094787
1539131799653699,0.03051804379333589,2.8381780727854675,-0.03051804379333589
1539131799669705,-0.213626306553806,2.8381780727854675,0.3967345693140487
1539131799685710,-0.2746623941404778,2.9602502479590385,0.45777065690094787
1539131799701715,-0.2746623941404778,2.7161058976118966,0.2746623941404778
1539131799717720,-0.15259021896690683,2.7161058976118966,-0.09155413138023505
1539131799733725,0.09155413138023505,2.532997634851654,-0.2746623941404778
1539131799749730,0.45777065690094787,2.5940337224383256,0.03051804379333589
1539131799765735,0.7629510948347615,2.8381780727854675,0.45777065690094787
1539131799781738,1.1291676203554744,2.8381780727854675,0.6408789196611906
1539131799797743,1.0681315327688026,3.0212863355459376,0.5188067444876197
1539131799813748,0.8850232700083325,2.9602502479590385,0.2746623941404778
1539131799829753,0.8850232700083325,2.8992141603723667,0.09155413138023505
1539131799845758,0.8850232700083325,2.8381780727854675,0.09155413138023505
1539131799861763,0.6408789196611906,3.0212863355459376,0.2746623941404778
1539131799877768,0.45777065690094787,3.0212863355459376,0.2746623941404778
1539131799893773,0.33569848172737693,2.8992141603723667,-0.03051804379333589
