Timestamp (microseconds),Accel X (g),Accel Y (g),Accel Z (g)
1539732246284637,0.08685435263599572,-0.41449607080186146,-0.8948500801098649
1539732246300638,0.12738231479362216,-0.4252384222171357,-0.8910658426794842
1539732246316640,0.09478904402227784,-0.4310978866254671,-0.8643320363164722
1539732246332641,0.11407644769970204,-0.3958190280003051,-0.87348744945449
1539732246348642,0.11541924162661132,-0.4104676890211336,-0.8810559243152514
1539732246364643,0.10357824063477494,-0.41889066910811,-0.8845960173952849
1539732246380644,0.03997863736934448,-0.4018005645838101,-0.9945830472266728
1539732246396646,0.06012054627298369,-0.4348821240558478,-0.8980239566643777
1539732246412647,-0.03704890516517878,-0.4712596322575724,-0.9219501029983976
1539732246428648,-0.040100709544518054,-0.4556343938353553,-0.8974135957885099
1539732246444649,-0.02398718242160669,-0.51972228580148,-0.8865491721980621
1539732246460651,-0.003356984817273201,-0.497261005569543,-0.8834973678187228
1539732246476652,-0.00836194399938961,-0.44965285725185034,-0.8885023270008392
1539732246492653,0.024841687647821686,-0.41840238040741573,-0.8233157854581523
1539732246508654,0.017029068436713146,-0.4026550698100251,-0.8235599298084995
1539732246524655,0.028259708552681673,-0.3942320897230487,-0.8600595101853972
1539732246540657,0.07672236209658934,-0.4422064545662625,-0.874341954680705
1539732246556658,0.11017013809414777,-0.47602044708934166,-0.8419928282597087
1539732246572659,0.13250934615091214,-0.48017090104524307,-0.8051270313572898
1539732246588660,0.10553139543755208,-0.49164568551155874,-0.8031738765545127
1539732246604675,0.10199130235751852,-0.5181353475242236,-0.8130617227435724
1539732246620676,0.11493095292591704,-0.5198443579766536,-0.7849851224536506
1539732246636677,0.12298771648737272,-0.5244831006332493,-0.747875181200885
1539732246652679,0.12164492256046344,-0.532539864194705,-0.75214770733196
1539732246668680,0.10431067368581637,-0.5375448233768214,-0.7770504310673685
1539732246684681,0.11224536507209848,-0.5203326466773479,-0.7785152971694513
1539732246700682,0.11602960250247918,-0.5088578622110322,-0.7548332951857786
1539732246716683,0.11712825207904132,-0.5230182345311665,-0.7622796978713664
1539732246732685,0.11163500419623062,-0.5701380941481653,-0.8035400930800334
1539732246748686,0.10638590066376707,-0.6002899214160373,-0.8473640039673458
1539732246764687,0.07806515602349862,-0.612619211108568,-0.8643320363164722
1539732246780688,0.059754329747462975,-0.6148165102616923,-0.869214923323415
1539732246796690,0.07635614557106862,-0.5957732509346152,-0.8603036545357443
1539732246812691,0.11151293202105705,-0.582467383840696,-0.8395513847562373
1539732246828692,0.13080033569848215,-0.5949187457084002,-0.8388189517051958
1539732246844693,0.13849088273441712,-0.6344701304646372,-0.8552986953536279
1539732246860695,0.15020981155107993,-0.6631570916304264,-0.8445563439383537
1539732246876696,0.15472648203250206,-0.6646219577325092,-0.7906004425116349
1539732246892697,0.1456931410696578,-0.6432593270771343,-0.7439688715953308
1539732246908698,0.124330510414282,-0.6190890363927672,-0.729686427100023
1539732246924682,0.09710841535057568,-0.5890592813000688,-0.7448233768215458
1539732246940683,0.07733272297245719,-0.5723353933012896,-0.7637445639734493
1539732246956685,0.07037460898756365,-0.5596398870832378,-0.7575188830395971
1539732246972686,0.07708857862211005,-0.5509727626459142,-0.7294422827496758
1539732246988687,0.07782101167315147,-0.5593957427328906,-0.7058823529411766
1539732247004688,0.08172732127870574,-0.5779507133592738,-0.7133287556267645
1539732247020690,0.08880750743877286,-0.6028534370946823,-0.7583733882658121
1539732247036691,0.09515526054779855,-0.619455252918288,-0.7975585564965284
1539732247052692,0.1062638284885935,-0.6182345311665522,-0.7990234225986113
1539732247068693,0.1205462729839013,-0.6105439841306173,-0.7786373693446249
1539732247084694,0.13922331578545855,-0.6232394903486687,-0.7759517814908063
1539732247100696,0.1549706263828492,-0.6450904097047379,-0.7870603494316013
1539732247116697,0.16107423514152774,-0.6522926680399785,-0.7862058442053863
1539732247132698,0.16119630731670131,-0.6421606775005722,-0.7750972762645914
1539732247148699,0.1537499046311135,-0.6326390478370336,-0.7700923170824749
1539732247164701,0.14898908979934422,-0.6311741817349508,-0.786572060730907
1539732247180702,0.1381246662088964,-0.6264133669031815,-0.8139162279697874
1539732247196703,0.12542915999084503,-0.6115205615320058,-0.8076905470359348
1539732247212704,0.11395437552452847,-0.5973601892118716,-0.7914549477378499
1539732247228706,0.09796292057679068,-0.5912565804531931,-0.7852292668039977
1539732247244781,0.08502327000839216,-0.5872281986724652,-0.7923094529640649
1539732247260783,0.07635614557106862,-0.5869840543221181,-0.7938963912413213
1539732247276785,0.08050659952697004,-0.579903868162051,-0.785717555504692
1539732247292786,0.08123903257801146,-0.5780727855344474,-0.7739986266880292
1539732247308788,0.09295796139467427,-0.5862516212710767,-0.7685053788052185
1539732247324790,0.10370031280994851,-0.5999237048905166,-0.7678950179293507
1539732247340791,0.11285572594796633,-0.603219653620203,-0.7549553673609521
1539732247356793,0.11712825207904132,-0.606637674525063,-0.7432364385442893
1539732247372795,0.12689402609292788,-0.6131074998092623,-0.7457999542229343
1539732247388796,0.13592736705577213,-0.6228732738231479,-0.7587396047913328
1539732247404798,0.13238727397573857,-0.6221408407721065,-0.7523918516823072
1539732247420800,0.13287556267643286,-0.6200656137941558,-0.7451895933470665
1539732247436802,0.12982375829709358,-0.6196993972686351,-0.7493400473029679
1539732247452803,0.12494087129014986,-0.6159151598382544,-0.7603265430685893
1539732247468805,0.11895933470664488,-0.6073701075761044,-0.7699702449073014
1539732247484807,0.12005798428320702,-0.604074158846418,-0.7732661936369878
1539732247500808,0.11981383993285988,-0.598947127489128,-0.7754634927901121
1539732247516810,0.11786068513008274,-0.5935759517814909,-0.7764400701915006
1539732247532812,0.11590753032730561,-0.5899137865262838,-0.7755855649652856
1539732247548813,0.11346608682383419,-0.5856412603952088,-0.7725337605859464
1539732247564941,0.10821698329137064,-0.5808804455634395,-0.7765621423666742
1539732247580943,0.10809491111619707,-0.5838101777676052,-0.7771725032425421
1539732247596945,0.10638590066376707,-0.5828336003662167,-0.7659418631265735
1539732247612948,0.09857328145265853,-0.5934538796063173,-0.7616693369954985
1539732247628950,0.0986953536278321,-0.6048065918974594,-0.7674067292286564
1539732247644952,0.09857328145265853,-0.616891737239643,-0.7774166475928892
1539732247660954,0.09991607537956781,-0.6188448920424201,-0.7650873579003585
1539732247676956,0.10394445716029566,-0.6247043564507515,-0.7536125734340429
1539732247692958,0.11371023117418133,-0.636789501792935,-0.7619134813458457
1539732247708961,0.1184710460059506,-0.6391088731212329,-0.7733882658121614
1539732247724963,0.11541924162661132,-0.6239719233997101,-0.7748531319142442
1539732247740965,0.10650797283894065,-0.6030975814450295,-0.7804684519722285
1539732247756967,0.09906157015335282,-0.5852750438696881,-0.788281071183337
1539732247772969,0.08905165178912,-0.574776836804761,-0.7875486381322956
1539732247788972,0.08221560997940003,-0.5703822384985124,-0.7842526894026092
1539732247804974,0.07782101167315147,-0.5772182803082324,-0.7711909666590371
1539732247820976,0.07501335164415934,-0.586739909971771,-0.7577630273899443
1539732247836978,0.0756237125200272,-0.5976043335622188,-0.7508049134050507
1539732247852980,0.0709849698634315,-0.6076142519264516,-0.7528801403830014
1539732247868982,0.0709849698634315,-0.6077363241016251,-0.7473868925001907
1539732247885070,0.07367055771725006,-0.595529106584268,-0.7440909437705043
1539732247901073,0.08722056916151644,-0.6027313649195087,-0.7401846341649501
1539732247917075,0.1024795910582128,-0.6214084077210651,-0.7328603036545358
1539732247933077,0.11456473640039633,-0.640207522697795,-0.7184557869840544
1539732247949079,0.12738231479362216,-0.6569314106965742,-0.7101548790722516
1539732247965081,0.1318989852750443,-0.6586404211490042,-0.7276112001220723
1539732247981083,0.12469672693980272,-0.64789806973373,-0.7659418631265735
1539732247997086,0.10284580758373352,-0.6242160677500572,-0.8129396505683988
1539732248013088,0.08636606393530144,-0.5803921568627453,-0.8483405813687344
1539732248029090,0.07525749599450648,-0.557564660105287,-0.8460212100404365
1539732248045092,0.055970092317082276,-0.5673304341191732,-0.8303959716182194
1539732248061094,0.055848020141908705,-0.5873502708476388,-0.8192874036774245
1539732248077097,0.06524757763027367,-0.5995574883649959,-0.8007324330510412
1539732248093099,0.07135118638895221,-0.6002899214160373,-0.7827878233005263
1539732248109101,0.07122911421377864,-0.6012664988174259,-0.7826657511253527
1539732248125103,0.07159533073929936,-0.5987029831387809,-0.7958495460440984
1539732248141105,0.07354848554207649,-0.5961394674601359,-0.797680628671702
1539732248157107,0.08038452735179646,-0.5974822613870452,-0.7906004425116349
1539732248173110,0.08722056916151644,-0.6000457770656902,-0.7813229571984435
1539732248189112,0.09259174486915356,-0.610910200656138,-0.7813229571984435
1539732248205169,0.08966201266498786,-0.6303196765087358,-0.7764400701915006
1539732248221172,0.08648813611047501,-0.6392309452964064,-0.7638666361486228
1539732248237175,0.08416876478217716,-0.6400854505226214,-0.759838254367895
1539732248253177,0.07806515602349862,-0.6312962539101243,-0.7616693369954985
1539732248269180,0.0709849698634315,-0.6138399328603037,-0.7678950179293507
1539732248285183,0.07135118638895221,-0.6059052414740216,-0.7718013275349049
1539732248301185,0.07232776379034078,-0.6068818188754102,-0.7748531319142442
1539732248317188,0.0672007324330508,-0.6070038910505837,-0.7755855649652856
1539732248333191,0.07147325856412579,-0.6116426337071794,-0.7725337605859464
1539732248349193,0.07586785687037434,-0.6122529945830473,-0.7742427710383764
1539732248365196,0.07891966124971361,-0.6081025406271459,-0.7738765545128556
1539732248381199,0.08563363088426001,-0.6079804684519723,-0.7793698023956663
1539732248397201,0.08685435263599572,-0.6076142519264516,-0.7921873807888913
1539732248413204,0.08722056916151644,-0.6043183031967652,-0.7962157625696191
1539732248429206,0.08563363088426001,-0.5933318074311438,-0.7890135042343784
1539732248445209,0.08563363088426001,-0.5960173952849623,-0.7930418860151063
1539732248461212,0.08648813611047501,-0.6082246128023194,-0.8026855878538184
1539732248477214,0.08331425955596217,-0.6096894789044023,-0.8064698252841991
1539732248493217,0.08477912565804502,-0.6009002822919052,-0.8047608148317691
1539732248509220,0.08514534218356573,-0.5839322499427788,-0.8034180209048598
1539732248525329,0.08648813611047501,-0.5846646829938202,-0.8014648661020827
1539732248541332,0.09051651789120285,-0.5928435187304495,-0.7962157625696191
1539732248557335,0.09137102311741785,-0.601510643167773,-0.7793698023956663
1539732248573339,0.09161516746776499,-0.614328221560998,-0.7625238422217135
1539732248589342,0.09320210574502141,-0.6192111085679408,-0.7617914091706721
1539732248605345,0.0936903944457157,-0.606637674525063,-0.7645990691996642
1539732248621348,0.09478904402227784,-0.5835660334172581,-0.7652094300755321
1539732248637351,0.09295796139467427,-0.5748989089799346,-0.7719233997100785
1539732248653354,0.08905165178912,-0.5779507133592738,-0.7749752040894178
1539732248669357,0.08795300221255786,-0.5810025177386131,-0.7720454718852521
1539732248685361,0.08551155870908644,-0.5812466620889603,-0.7671625848783092
1539732248701364,0.0823376821545736,-0.5842984664682995,-0.7687495231555657
1539732248717367,0.0802624551766229,-0.5897917143511102,-0.7796139467460135
1539732248733370,0.07891966124971361,-0.5872281986724652,-0.7815671015487906
1539732248749373,0.0764782177462422,-0.579049362935836,-0.7824216067750056
1539732248765376,0.07074082551308436,-0.5716029602502481,-0.7871824216067749
1539732248781379,0.0747692072938122,-0.5718471046005953,-0.795117112993057
1539732248797382,0.07574578469520077,-0.5811245899137867,-0.7929198138399327
1539732248813386,0.08184939345387932,-0.5891813534752424,-0.7836423285267413
1539732248829389,0.08184939345387932,-0.5897917143511102,-0.7770504310673685
1539732248845489,0.08331425955596217,-0.5957732509346152,-0.7766842145418478
1539732248861493,0.08245975432974717,-0.5941863126573588,-0.7859616998550392
1539732248877496,0.07696650644693648,-0.5945525291828795,-0.789135576409552
1539732248893500,0.07818722819867219,-0.6041962310215916,-0.7893797207598992
1539732248909504,0.08673228046082215,-0.6065156023498894,-0.7816891737239642
1539732248925507,0.08563363088426001,-0.6021210040436409,-0.7801022354467078
1539732248941511,0.08587777523460716,-0.603219653620203,-0.7768062867170213
1539732248957514,0.0814831769283586,-0.5896696421759366,-0.7852292668039977
1539732248973518,0.07244983596551435,-0.5723353933012896,-0.7982909895475698
1539732248989522,0.07110704203860507,-0.5633020523384453,-0.8068360418097198
1539732249005525,0.0814831769283586,-0.5684290836957353,-0.804516670481422
1539732249021529,0.09332417792019498,-0.579049362935836,-0.7897459372854199
1539732249037532,0.10223544670786566,-0.5801480125123981,-0.7719233997100785
1539732249053536,0.10370031280994851,-0.5983367666132602,-0.7678950179293507
1539732249069540,0.09539940489814569,-0.610055695429923,-0.7755855649652856
1539732249085543,0.08746471351186358,-0.6065156023498894,-0.7853513389791713
1539732249101547,0.07525749599450648,-0.6029755092698559,-0.7886472877088577
1539732249117550,0.06585793850614152,-0.5927214465552759,-0.7975585564965284
1539732249133554,0.0659800106813151,-0.5828336003662167,-0.7980468451972227
1539732249149558,0.06939803158617508,-0.579903868162051,-0.7931639581902798
1539732249165619,0.07049668116273722,-0.5802700846875717,-0.7837644007019149
1539732249181622,0.06817730983443937,-0.5802700846875717,-0.789135576409552
1539732249197626,0.06439307240405867,-0.5786831464103153,-0.7918211642633706
1539732249213629,0.062195773250934394,-0.5736781872281989,-0.7926756694895856
1539732249229633,0.06573586633096795,-0.5664759288929582,-0.7936522468909741
1539732249245637,0.06768902113374509,-0.570504310673686,-0.7962157625696191
1539732249261640,0.0701304646372165,-0.5733119707026781,-0.803662165255207
1539732249277644,0.07440299076829149,-0.578194857709621,-0.804516670481422
1539732249293647,0.0739147020675972,-0.5860074769207295,-0.8013427939269091
1539732249309651,0.07489127946898577,-0.5916227969787138,-0.7935301747158006
1539732249325655,0.0785534447241929,-0.5987029831387809,-0.7897459372854199
1539732249341658,0.08258182650492074,-0.5934538796063173,-0.7924315251392384
1539732249357662,0.08331425955596217,-0.5836881055924317,-0.7927977416647591
1539732249373665,0.08099488822766432,-0.5818570229648281,-0.7978027008468755
1539732249389669,0.08099488822766432,-0.5777065690089267,-0.7982909895475698
1539732249405673,0.08123903257801146,-0.5758754863813231,-0.7973144121461813
1539732249421676,0.0831921873807886,-0.583321889066911,-0.7964599069199663
1539732249437680,0.0869764248111693,-0.5880827038986802,-0.8014648661020827
1539732249453683,0.08978408484016143,-0.578194857709621,-0.803662165255207
1539732249469687,0.08575570305943359,-0.5624475471122299,-0.8006103608758677
1539732249485748,0.08868543526359929,-0.5591515983825435,-0.798535133897917
1539732249501752,0.08941786831464071,-0.5619592584115356,-0.799389639124132
1539732249517756,0.08587777523460716,-0.5658655680170903,-0.8013427939269091
1539732249533760,0.08307011520561502,-0.5692835889219503,-0.8031738765545127
1539732249549764,0.08111696040283789,-0.5694056610971239,-0.8117189288166626
1539732249565768,0.07916380560006075,-0.561837186236362,-0.8079346913862819
1539732249581772,0.07891966124971361,-0.5520714122224764,-0.8095216296635384
1539732249597777,0.08563363088426001,-0.5506065461203935,-0.8085450522621498
1539732249613781,0.11029221026932134,-0.5457236591134507,-0.8053711757076369
1539732249629785,0.07977416647592861,-0.5629358358129246,-0.8095216296635384
1539732249645789,0.09051651789120285,-0.5573205157549399,-0.8091554131380176
1539732249661793,0.09784084840161711,-0.5626916914625775,-0.8052491035324634
1539732249677797,0.08587777523460716,-0.578194857709621,-0.8069581139848934
1539732249693801,0.08551155870908644,-0.5741664759288931,-0.8032959487296862
1539732249709805,0.06939803158617508,-0.5924773022049288,-0.7999999999999998
1539732249725809,0.07891966124971361,-0.6159151598382544,-0.7958495460440984
1539732249741813,0.10357824063477494,-0.6253147173266194,-0.7785152971694513
1539732249757817,0.11322194247348705,-0.6245822842755779,-0.7541008621347371
1539732249773821,0.11773861295490917,-0.6146944380865187,-0.7433585107194629
1539732249789826,0.10894941634241206,-0.6045624475471123,-0.7548332951857786
1539732249805877,0.08807507438773143,-0.6034637979705502,-0.7752193484397649
1539732249821881,0.0831921873807886,-0.6010223544670787,-0.7849851224536506
1539732249837885,0.036194399938963784,-0.6062714579995423,-0.782299534599832
1539732249853890,0.09320210574502141,-0.6172579537651637,-0.7721675440604256
1539732249869894,0.09735255970092282,-0.6198214694438087,-0.751293202105745
1539732249885898,0.062439917601281536,-0.618600747692073,-0.7693598840314335
1539732249901902,0.07122911421377864,-0.6361791409170672,-0.7746089875638971
1539732249917906,0.11749446860456203,-0.6238498512245365,-0.7487296864271
1539732249933910,0.08453498130769788,-0.64789806973373,-0.7146715495536737
1539732249949914,0.08001831082627575,-0.6288548104066529,-0.7399404898146029
1539732249965918,0.11993591210803345,-0.6201876859693294,-0.7614251926451514
1539732249981922,0.09564354924849283,-0.618600747692073,-0.7648432135500114
1539732249997926,0.08429083695735073,-0.6082246128023194,-0.7551995117112993
1539732250013930,0.08844129091325215,-0.6093232623788816,-0.7609369039444571
1539732250029935,0.07916380560006075,-0.6135957885099566,-0.7678950179293507
1539732250045939,0.08197146562905289,-0.6292210269321736,-0.7655756466010528
1539732250061943,0.08868543526359929,-0.6450904097047379,-0.7511711299305714
1539732250077947,0.08575570305943359,-0.6499732967116807,-0.7384756237125201
1539732250093951,0.10101472495612995,-0.6577859159227892,-0.7312733653772794
1539732250109955,0.10724040588998207,-0.6570534828717478,-0.7426260776684215
1539732250125976,0.10687418936446136,-0.6586404211490042,-0.7454337376974136
1539732250141980,0.10992599374380063,-0.6718242160677499,-0.7350576028076601
1539732250157984,0.10479896238651065,-0.6668192568856335,-0.7318837262531472
1539732250173988,0.10601968413824636,-0.6537575341420614,-0.7320057984283208
1539732250189993,0.09832913710231139,-0.6454566262302586,-0.7321278706034944
1539732250205997,0.09246967269397999,-0.6382543678950179,-0.7349355306324865
1539732250222001,0.09124895094224428,-0.652170595864805,-0.728831921873808
1539732250238005,0.09234760051880642,-0.6535133897917142,-0.7260242618448158
1539732250254009,0.09295796139467427,-0.6580300602731364,-0.710887312123293
1539732250270013,0.10101472495612995,-0.676340886549172,-0.7055161364156559
1539732250286017,0.08343633173113574,-0.6767071030746927,-0.7149156939040209
1539732250302021,0.08599984740978073,-0.6596169985503928,-0.7379873350118258
1539732250318025,0.08844129091325215,-0.6405737392233157,-0.7541008621347371
1539732250334029,0.09027237354085571,-0.6182345311665522,-0.7653315022507057
1539732250350033,0.08404669260700359,-0.6200656137941558,-0.7816891737239642
1539732250366037,0.08978408484016143,-0.6250705729762722,-0.7841306172274356
1539732250382042,0.08734264133669001,-0.6298313878080415,-0.7685053788052185
1539732250398046,0.07818722819867219,-0.6449683375295643,-0.7459220263981079
1539732250414050,0.06817730983443937,-0.6586404211490042,-0.7345693141069658
1539732250430054,0.07049668116273722,-0.6605935759517814,-0.7304188601510644
1539732250446136,0.06756694895857152,-0.6635233081559471,-0.7229724574654766
1539732250462141,0.054383154039825854,-0.6515602349889371,-0.723704890516518
1539732250478145,0.040222781719691625,-0.647043564507515,-0.7337148088807508
1539732250494150,0.0319218738078888,-0.6500953688868543,-0.7434805828946365
1539732250510154,0.03472953383688093,-0.6540016784924085,-0.7350576028076601
1539732250526159,0.048157473105973736,-0.653879606317235,-0.7110093842984666
1539732250542163,0.052063782711528006,-0.6493629358358128,-0.696116578927291
1539732250558168,0.049134050507362304,-0.6531471732661935,-0.715159838254368
1539732250574173,0.040344853894865196,-0.6613260090028228,-0.7549553673609521
1539732250590177,0.040344853894865196,-0.6653543907835506,-0.7782711528191042
1539732250606182,0.03826962691691449,-0.6662088960097656,-0.7669184405279621
1539732250622186,0.03814755474174092,-0.6636453803311206,-0.7394522011139086
1539732250638191,0.04132143129625376,-0.6665751125352863,-0.7107652399481195
1539732250654195,0.053406576638437286,-0.6709697108415349,-0.7035629816128788
1539732250670200,0.062439917601281536,-0.688426031891356,-0.6922102693217367
1539732250686205,0.04205386434729519,-0.6776836804760813,-0.7239490348668651
1539732250702209,0.050598916609445155,-0.6878156710154881,-0.7266346227206837
1539732250718214,0.05804531929503298,-0.6873273823147934,-0.7106431677729459
1539732250734218,0.05877775234607441,-0.6796368352788584,-0.7014877546349281
1539732250750223,0.04864576180666802,-0.678904402227817,-0.7107652399481195
1539732250766265,0.044251163500419466,-0.6878156710154881,-0.7287098496986344
1539732250782270,0.045349813076981604,-0.7007553215838866,-0.7278553444724194
1539732250798275,0.04315251392385733,-0.6930647745479517,-0.7197985809109637
1539732250814279,0.0327763790341038,-0.675486381322957,-0.7034409094377052
1539732250830284,0.04962233920805659,-0.6575417715724421,-0.7027084763866638
1539732250846288,0.07318226901655578,-0.6842755779354541,-0.7106431677729459
1539732250862293,0.060975051499198685,-0.7370107576104372,-0.696116578927291
1539732250878297,0.0319218738078888,-0.7283436331731137,-0.6984359502555888
1539732250894302,0.02410925459678026,-0.713450827801938,-0.7027084763866638
1539732250910307,0.050476844434271584,-0.6968490119783324,-0.6891584649423974
1539732250926311,0.06158541237506654,-0.6826886396581977,-0.6757305256733042
1539732250942316,0.043030441748683756,-0.6786602578774699,-0.6890363927672238
1539732250958320,0.044007019150072324,-0.6809796292057677,-0.7068589303425652
1539732250974325,0.04132143129625376,-0.6674296177615013,-0.7329823758297094
1539732250990329,0.04437323567559304,-0.6596169985503928,-0.7477531090257115
1539732251006334,0.038757915617608774,-0.6630350194552528,-0.7353017471580072
1539732251022338,0.031067368581673804,-0.6489967193102921,-0.7302967879758908
1539732251038343,0.03802548256656735,-0.6609597924773021,-0.7230945296406501
1539732251054348,0.039002059967955915,-0.6955062180514231,-0.7234607461661708
1539732251070352,0.03143358510719452,-0.7188220035095751,-0.7259021896696423
1539732251086395,0.02801556420233453,-0.7299305714503701,-0.7155260547798887
1539732251102400,0.04180971999694805,-0.7335927367055772,-0.6979476615548945
1539732251118405,0.054627298390172996,-0.7290760662241551,-0.679758907454032
1539732251134410,0.0604867627985044,-0.7218738078889144,-0.668650339513237
1539732251150415,0.059754329747462975,-0.7265125505455101,-0.6671854734111542
1539732251166420,0.04095521477073305,-0.7367666132600901,-0.6795147631036849
1539732251182425,0.034851606012054503,-0.7294422827496758,-0.7029526207370109
1539732251198430,0.04107728694590662,-0.6989242389562831,-0.7152819104295416
1539732251214435,0.04180971999694805,-0.6623025864042114,-0.7226062409399558
1539732251230440,0.04437323567559304,-0.6586404211490042,-0.7409170672159915
1539732251246445,0.04449530785076661,-0.6627908751049056,-0.7487296864271
1539732251262450,0.0432745860990309,-0.6592507820248721,-0.7383535515373465
1539732251278455,0.05645838101777656,-0.6585183489738307,-0.7283436331731137
1539732251294460,0.06463721675440581,-0.6634012359807735,-0.7364003967345694
1539732251310465,0.06463721675440581,-0.6594949263752192,-0.7449454489967193
1539732251326470,0.06182955672541368,-0.6542458228427557,-0.7359121080338751
1539732251342476,0.05804531929503298,-0.6616922255283435,-0.7333485923552301
1539732251358481,0.052063782711528006,-0.6673075455863278,-0.7364003967345694
1539732251374486,0.045471885252155175,-0.6709697108415349,-0.7300526436255437
1539732251390491,0.04351873044937804,-0.6644998855573356,-0.716868848706798
1539732251406524,0.03045700770580595,-0.6542458228427557,-0.7039291981383995
1539732251422529,0.019714656290531707,-0.6541237506675821,-0.7064927138170445
1539732251438534,0.03802548256656735,-0.6687724116884106,-0.7114976729991609
1539732251454539,0.05938811322194226,-0.6764629587243456,-0.7033188372625316
1539732251470544,0.06366063935301725,-0.6878156710154881,-0.6905012588693067
1539732251486549,0.07074082551308436,-0.6997787441824981,-0.7069810025177388
1539732251502555,0.053772793163958,-0.6939192797741667,-0.7301747158007172
1539732251518560,0.045593957427328746,-0.6659647516594185,-0.7448233768215458
1539732251534565,0.049378194857709445,-0.6278782330052644,-0.7635004196231021
1539732251550570,0.043030441748683756,-0.6115205615320058,-0.7782711528191042
1539732251566575,0.04852368963149445,-0.5995574883649959,-0.7901121538109406
1539732251582580,0.05145342183566015,-0.6226291294728008,-0.7761959258411535
1539732251598585,0.05682459754329727,-0.6347142748149843,-0.75898374914168
1539732251614590,0.0432745860990309,-0.6447241931792171,-0.7425040054932479
1539732251630595,0.0470588235294116,-0.6441138323033493,-0.7388418402380408
1539732251646600,0.046814679179064456,-0.6366674296177615,-0.7454337376974136
1539732251662605,0.04437323567559304,-0.6348363469901579,-0.7445792324711986
1539732251678610,0.04083314259555948,-0.6424048218509193,-0.7438467994201572
1539732251694615,0.043030441748683756,-0.65644312199588,-0.7467765316243229
1539732251710620,0.040100709544518054,-0.6593728542000457,-0.7467765316243229
1539732251726715,0.04473945220111375,-0.6565651941710535,-0.7399404898146029
1539732251742720,0.0432745860990309,-0.657297627222095,-0.7278553444724194
1539732251758726,0.05120927748531301,-0.6590066376745249,-0.7221179522392616
1539732251774731,0.05914396887159512,-0.670359349965667,-0.7184557869840544
1539732251790737,0.06195162890058725,-0.6830548561837184,-0.7171129930571452
1539732251806742,0.06988632028686936,-0.6836652170595863,-0.7128404669260702
1539732251822748,0.06829938200961294,-0.6793926909285113,-0.7133287556267645
1539732251838753,0.06256198977645511,-0.6812237735561149,-0.7062485694666973
1539732251854759,0.0508430609597923,-0.6925764858472574,-0.716014343480583
1539732251870764,0.04852368963149445,-0.7025864042114902,-0.7246814679179066
1539732251886770,0.04852368963149445,-0.7034409094377052,-0.7257801174944687
1539732251902775,0.04193179217212162,-0.6981918059052417,-0.7263904783703365
1539732251918781,0.04461738002594018,-0.6853742275120163,-0.7238269626916916
1539732251934786,0.04180971999694805,-0.6825665674830241,-0.7157701991302359
1539732251950792,0.036316472114137355,-0.692698558022431,-0.7180895704585337
1539732251966797,0.04071107042038591,-0.6889143205920503,-0.731395437552453
1539732251982803,0.04498359655146089,-0.6713359273670556,-0.7306630045014115
1539732251998808,0.051819638361180864,-0.6543678950179292,-0.7128404669260702
1539732252014814,0.059754329747462975,-0.6510719462882428,-0.7046616311894409
1539732252030820,0.06378271152819082,-0.6662088960097656,-0.7099107347219045
1539732252046844,0.06964217593652222,-0.6847638666361484,-0.7121080338750287
1539732252062850,0.06842145418478651,-0.6843976501106277,-0.7138170443274587
1539732252078855,0.07171740291447293,-0.6646219577325092,-0.7089341573205159
1539732252094861,0.06842145418478651,-0.6522926680399785,-0.7077134355687802
1539732252110866,0.06451514457923224,-0.64960708018616,-0.7064927138170445
1539732252126872,0.0604867627985044,-0.6561989776455328,-0.7082017242694745
1539732252142877,0.05889982452124798,-0.6759746700236513,-0.7102769512474252
1539732252158883,0.051819638361180864,-0.6942854962996874,-0.7099107347219045
1539732252174888,0.04132143129625376,-0.7063706416418709,-0.7118638895246816
1539732252190894,0.0365606164644845,-0.6997787441824981,-0.7127183947508966
1539732252206899,0.030945296406500233,-0.6914778362706953,-0.7183337148088809
1539732252222905,0.033630884260318794,-0.6912336919203481,-0.7082017242694745
1539732252238910,0.026916914625772392,-0.6928206301976045,-0.7018539711604488
1539732252254916,0.03265430685893023,-0.6939192797741667,-0.7039291981383995
1539732252270921,0.031067368581673804,-0.6964827954528117,-0.7079575799191273
1539732252286927,0.037781338216220206,-0.6914778362706953,-0.7096665903715573
1539732252302932,0.04046692607003877,-0.6791485465781641,-0.7058823529411766
1539732252318938,0.04449530785076661,-0.6752422369726099,-0.7013656824597545
1539732252334943,0.04498359655146089,-0.6819562066071563,-0.6970931563286795
1539732252350949,0.04193179217212162,-0.6885481040665296,-0.6990463111314567
1539732252366974,0.04193179217212162,-0.6939192797741667,-0.6988021667811095
1539732252382979,0.03961242084382377,-0.6953841458762495,-0.7067368581673916
1539732252398985,0.04107728694590662,-0.6937972075989931,-0.7146715495536737
1539732252414990,0.0386358434424352,-0.6852521553368427,-0.7172350652323187
1539732252430996,0.03924620431830306,-0.6858625162127105,-0.7075913633936066
1539732252447001,0.047913328755626594,-0.6941634241245138,-0.6842755779354541
1539732252463007,0.0642710002288851,-0.7136949721522852,-0.6714579995422292
1539732252479012,0.07220569161516721,-0.7284657053482873,-0.6881818875410088
1539732252495018,0.06646829938200938,-0.7311512932021058,-0.7110093842984666
1539732252511023,0.11419851987487561,-0.7017318989852752,-0.7348134584573129
1539732252527029,0.0016479743648432077,-0.7251697566186008,-0.6867170214389255
1539732252543034,0.03717097734035235,-0.6784161135271227,-0.6593728542000457
1539732252559040,0.06817730983443937,-0.6934309910734724,-0.6707255664911878
1539732252575045,0.07049668116273722,-0.7257801174944687,-0.7122301060502023
1539732252591051,0.057190814068817986,-0.7201647974364844,-0.7230945296406501
1539732252607056,0.044129091325245895,-0.6997787441824981,-0.6974593728542002
1539732252623062,0.03790341039139378,-0.6828107118333713,-0.6864728770885784
1539732252639067,0.03839169909208806,-0.6958724345769438,-0.6988021667811095
1539732252655073,0.04132143129625376,-0.7082017242694745,-0.7055161364156559
1539732252671078,0.026916914625772392,-0.7061264972915238,-0.7102769512474252
1539732252687103,0.029602502479590953,-0.6906233310444803,-0.7114976729991609
1539732252703108,0.027527275501640247,-0.6808575570305941,-0.7090562294956895
1539732252719114,0.02789349202716096,-0.672068360418097,-0.7155260547798887
1539732252735119,0.031189440756847375,-0.6697489890897992,-0.7178454261081866
1539732252751125,0.031189440756847375,-0.6835431448844127,-0.7200427252613109
1539732252767130,0.0327763790341038,-0.6920881971465631,-0.7193102922102694
1539732252783136,0.03167772945754166,-0.6972152285038531,-0.7179674982833602
1539732252799142,0.035095750362401645,-0.690989547570001,-0.7206530861371787
1539732252815147,0.029846646829938095,-0.6832990005340656,-0.7324940871290151
1539732252831153,0.028870069428549527,-0.678904402227817,-0.7400625619897765
1539732252847158,0.030090791180285237,-0.6731670099946592,-0.7400625619897765
1539732252863164,0.031067368581673804,-0.6801251239795527,-0.729686427100023
1539732252879169,0.02935835812924381,-0.6819562066071563,-0.7212634470130466
1539732252895175,0.03472953383688093,-0.6782940413519492,-0.7158922713054094
1539732252911180,0.03558403906309593,-0.6724345769436177,-0.711741817349508
1539732252927186,0.03704890516517878,-0.6658426794842449,-0.721995880064088
1539732252943191,0.04095521477073305,-0.6674296177615013,-0.730540932326238
1539732252959197,0.04217593652246876,-0.6728007934691385,-0.7299305714503701
1539732252975202,0.04644846265354374,-0.6724345769436177,-0.7251697566186008
1539732252991208,0.045349813076981604,-0.6619363698786906,-0.7173571374074923
1539732253007232,0.04180971999694805,-0.6560769054703592,-0.7135728999771116
1539732253023238,0.045349813076981604,-0.6492408636606393,-0.7246814679179066
1539732253039243,0.04644846265354374,-0.6443579766536964,-0.7365224689097429
1539732253055249,0.038757915617608774,-0.6463111314564736,-0.7462882429236286
1539732253071254,0.040100709544518054,-0.648752574959945,-0.7364003967345694
1539732253087260,0.0365606164644845,-0.6485084306095978,-0.7266346227206837
1539732253103265,0.0357061112382695,-0.6559548332951857,-0.7179674982833602
1539732253119271,0.0357061112382695,-0.6654764629587242,-0.7229724574654766
1539732253135276,0.03448538948653379,-0.6684061951628899,-0.7323720149538415
1539732253151282,0.032288090333409514,-0.6730449378194856,-0.7392080567635615
1539732253167287,0.028747997253375956,-0.6623025864042114,-0.7433585107194629
1539732253183293,0.029724574654764524,-0.6587624933241778,-0.7372549019607844
1539732253199298,0.03155565728236809,-0.6615701533531699,-0.7302967879758908
1539732253215304,0.03265430685893023,-0.6663309681849392,-0.7302967879758908
1539732253231310,0.033630884260318794,-0.6630350194552528,-0.7346913862821394
1539732253247315,0.03167772945754166,-0.6618142977035171,-0.7382314793621729
1539732253263321,0.03289845120927737,-0.6526588845654993,-0.7421377889677272
1539732253279326,0.028747997253375956,-0.6460669871061264,-0.7384756237125201
1539732253295332,0.030823224231326662,-0.6388647287708857,-0.7302967879758908
1539732253311337,0.03533989471274879,-0.6450904097047379,-0.7302967879758908
1539732253327362,0.03936827649347663,-0.6576638437476157,-0.7326161593041887
1539732253343368,0.03741512169069949,-0.6593728542000457,-0.7366445410849165
1539732253359374,0.03961242084382377,-0.65815213244831,-0.7423819333180743
1539732253375380,0.04107728694590662,-0.6529030289158464,-0.7417715724422065
1539732253391386,0.039124132143129486,-0.6522926680399785,-0.747875181200885
1539732253407392,0.04193179217212162,-0.6566872663462271,-0.74531166552224
1539732253423398,0.03851377126726163,-0.6575417715724421,-0.7482413977264057
1539732253439404,0.036194399938963784,-0.6632791638055999,-0.7440909437705043
1539732253455410,0.03814755474174092,-0.6535133897917142,-0.742748149843595
1539732253471416,0.036194399938963784,-0.6458228427557793,-0.7454337376974136
1539732253487422,0.03692683299000521,-0.6442359044785229,-0.7514152742809186
1539732253503428,0.0357061112382695,-0.6466773479819943,-0.7476310368505379
1539732253519434,0.03533989471274879,-0.6460669871061264,-0.7455558098725872
1539732253535440,0.03472953383688093,-0.648752574959945,-0.7451895933470665
1539732253551446,0.0386358434424352,-0.652170595864805,-0.7426260776684215
1539732253567452,0.034973678187228074,-0.6503395132372014,-0.7448233768215458
1539732253583458,0.033752956435492365,-0.6464332036316471,-0.7484855420767529
1539732253599464,0.03460746166170736,-0.6405737392233157,-0.75043869687953
1539732253615470,0.03582818341344307,-0.6373998626688029,-0.7489738307774472
1539732253631476,0.035095750362401645,-0.6382543678950179,-0.7466544594491493
1539732253647491,0.03595025558861664,-0.6433813992523079,-0.7459220263981079
1539732253663497,0.03668268863965807,-0.643625543602655,-0.7482413977264057
1539732253679503,0.037537193865873064,-0.6482642862592507,-0.7477531090257115
1539732253695509,0.03924620431830306,-0.6474097810330357,-0.7493400473029679
1539732253711515,0.03924620431830306,-0.6467994201571678,-0.7492179751277943
1539732253727521,0.03973449301899734,-0.6476539253833828,-0.7499504081788357
1539732253743527,0.04083314259555948,-0.6435034714274814,-0.7526359960326543
1539732253759533,0.038879987792782345,-0.6455786984054321,-0.7523918516823072
1539732253775539,0.03729304951552592,-0.6475318532082093,-0.7558098725871671
1539732253791545,0.037659266041046635,-0.6369115739681086,-0.7588616769665064
1539732253807551,0.024475471122300974,-0.6283665217059586,-0.7609369039444571
1539732253823557,0.032410162508583085,-0.6161593041886015,-0.7638666361486228
1539732253839563,0.030212863355458808,-0.6206759746700237,-0.7670405127031357
1539732253855569,0.040344853894865196,-0.6458228427557793,-0.7663080796520942
1539732253871575,0.04632639047837017,-0.6525368123903257,-0.7652094300755321
1539732253887581,0.04962233920805659,-0.6579079880979628,-0.7539787899595636
1539732253903587,0.05365072098878443,-0.6363012130922407,-0.7459220263981079
1539732253919593,0.04876783398184159,-0.6095674067292287,-0.7556878004119936
1539732253935599,0.037781338216220206,-0.6102998397802701,-0.7748531319142442
1539732253951605,0.03668268863965807,-0.6207980468451972,-0.7919432364385441
1539732253967620,0.03961242084382377,-0.6170138094148165,-0.790844586861982
1539732253983626,0.03033493553063238,-0.5971160448615245,-0.7790035858701456
1539732253999632,0.023376821545738835,-0.5691615167467767,-0.7774166475928892
1539732254015638,0.015808346684977437,-0.5635461966887925,-0.787426565957122
1539732254031644,0.018005645838101714,-0.5750209811551081,-0.7980468451972227
1539732254047650,0.01104753185320817,-0.5895475700007631,-0.8075684748607612
1539732254063656,0.013122758831158876,-0.6016327153429466,-0.8122072175173569
1539732254079662,0.02032501716639956,-0.604074158846418,-0.8107423514152741
1539732254095668,0.02655069810025168,-0.6000457770656902,-0.8041504539559012
1539732254111674,0.030945296406500233,-0.597238117036698,-0.7938963912413213
1539732254127680,0.035217822537575216,-0.5919890135042345,-0.7903562981612877
1539732254143686,0.039124132143129486,-0.5891813534752424,-0.7863279163805599
1539732254159692,0.03607232776379021,-0.5866178377965974,-0.7781490806439306
1539732254175698,0.03155565728236809,-0.5795376516365303,-0.7772945754177156
1539732254191704,0.030090791180285237,-0.5784390020599681,-0.7758297093156328
1539732254207710,0.02935835812924381,-0.5818570229648281,-0.7821774624246585
1539732254223716,0.027649347676813818,-0.5852750438696881,-0.7853513389791713
1539732254239722,0.023254749370565264,-0.582467383840696,-0.7888914320592049
1539732254255728,0.02264438849469741,-0.5814908064393074,-0.7896238651102463
1539732254271734,0.02252231631952384,-0.5874723430228124,-0.7941405355916684
1539732254287780,0.01886015106431671,-0.5966277561608302,-0.7995117112993055
1539732254303786,0.020447089341573133,-0.5983367666132602,-0.795117112993057
1539732254319792,0.017761501487754572,-0.6004119935912109,-0.7835202563515677
1539732254335798,0.019226367589837423,-0.5939421683070116,-0.7748531319142442
1539732254351804,0.023376821545738835,-0.5922331578545816,-0.7760738536659799
1539732254367810,0.02398718242160669,-0.5893034256504159,-0.7798580910963606
1539732254383816,0.024719615472648115,-0.5918669413290609,-0.7833981841763942
1539732254399822,0.02655069810025168,-0.5954070344090945,-0.7871824216067749
1539732254415828,0.02679484245059882,-0.600656137941558,-0.789135576409552
1539732254431834,0.028870069428549527,-0.5956511787594416,-0.7873044937819484
1539732254447840,0.026184481574730967,-0.5962615396353095,-0.7816891737239642
1539732254463846,0.027038986800945963,-0.5976043335622188,-0.7770504310673685
1539732254479852,0.028625925078202386,-0.597238117036698,-0.7768062867170213
1539732254495858,0.029480430304417382,-0.6041962310215916,-0.7876707103074692
1539732254511864,0.023010605020218122,-0.6094453345540551,-0.8012207217517355
1539732254527870,0.017639429312581,-0.6072480354009309,-0.8013427939269091
1539732254543876,0.01483176928358887,-0.604928664072633,-0.7953612573434041
1539732254559882,0.014221408407721015,-0.6044403753719387,-0.7935301747158006
1539732254575888,0.02008087281605242,-0.6132295719844358,-0.7992675669489584
1539732254591894,0.024841687647821686,-0.6200656137941558,-0.8030518043793391
1539732254607910,0.02410925459678026,-0.6232394903486687,-0.7938963912413213
1539732254623916,0.033875028610665936,-0.6259250782024872,-0.8169680323491266
1539732254639922,0.03546196688792236,-0.6387426565957122,-0.8611581597619593
1539732254655928,0.041687647821774476,-0.648752574959945,-0.8871595330739299
1539732254671934,0.047913328755626594,-0.650461585412375,-0.898512245365072
1539732254687940,0.04364080262455161,-0.6372777904936293,-0.9057145037003127
1539732254703946,0.05352864881361086,-0.5991912718394752,-0.9800564583810178
1539732254719952,0.036316472114137355,-0.6723125047684442,-1.0849164568551157
1539732254735958,0.029480430304417382,-0.6889143205920503,-1.2055237659266043
1539732254751964,0.01886015106431671,-0.7295643549248494,-1.2654612039368276
1539732254767970,0.007019150072480329,-0.7553215838864729,-1.3034256504158082
1539732254783976,0.00579842832074462,-0.7979247730220491,-1.280720225833524
1539732254799982,0.005188067444876765,-0.8346684977492944,-1.2165102616922256
1539732254815988,0.006530861371786045,-0.8544441901274129,-1.1238574807354849
1539732254831994,-0.007873655298695326,-0.8535896849011979,-1.0564736400396733
1539732254848000,0.02032501716639956,-0.8234378576333259,-1.0092317082475013
1539732254864006,-0.03314259555962451,-0.7846189059281299,-0.9917753871976807
1539732254880012,-0.05145342183566015,-0.7217517357137408,-0.9502708476386665
1539732254896018,-0.0972304875257497,-0.6658426794842449,-0.9127946898603798
1539732254912024,-0.09686427100022899,-0.5510948348210878,-0.8067139696345462
1539732254928070,-0.09906157015335326,-0.4682078278782331,-0.6533913176165407
1539732254944076,-0.12848096437018386,-0.3892271305409323,-0.48444342717631805
1539732254960082,-0.17169451438162797,-0.33173113603418036,-0.29840543221179505
1539732254976088,-0.22101167315175108,-0.3098802166781107,-0.13177691309987027
1539732254992094,-0.2638590066376745,-0.2919356069275958,-0.010437170977340315
1539732255008100,-0.27740901808194085,-0.26825360494392303,0.0776989394979779
1539732255024106,-0.27411306935225443,-0.2516517891203174,0.13580529488059856
1539732255040112,-0.2599526970321202,-0.25140764476997024,0.18402380407415908
1539732255056118,-0.237247272449836,-0.25970855268177306,0.22357518883039607
1539732255072124,-0.19647516594186332,-0.2666666666666666,0.2582436865796902
1539732255088130,-0.15912108033875016,-0.2843671320668344,0.2594644083314259
1539732255104136,-0.1228656443121996,-0.3119554436560614,0.27032883192187374
1539732255120142,-0.06890974288548124,-0.3516289005874724,0.30609597924773
1539732255136148,-0.02911421377889667,-0.34699015793087673,0.3770199130235756
1539732255152154,0.06952010376134865,-0.31122301060502,0.5449912260624092
1539732255168160,0.23590447852292673,-0.27399099717708086,0.7492179751277943
1539732255184166,0.4414740215152211,-0.2305333028152896,0.8880140383001454
1539732255200172,0.5255817502098115,0.06842145418478651,0.52143129625391
1539732255216178,0.7539787899595636,0.13788052185854927,-0.1850003814755472
1539732255232184,1.0865033951323717,0.23993286030365457,-1.4698100251773862
1539732255248199,-1.2102845807583735,-3.9998779278248264,-4.0
1539732255264205,0.7970702677958341,0.3125658045319293,-1.872526131074998
1539732255280211,-0.31012436102845786,-0.4994583047226673,-0.45807583733882673
1539732255296217,0.04888990615701516,-0.6244602121004044,-0.4037537193865872
1539732255312223,-0.01373311970702673,-0.7132066834515909,-0.6413061722743572
1539732255328229,0.08368047608148288,-0.7660639353017471,-0.828809033340963
1539732255344235,0.07794308384832505,-0.7029526207370109,-0.9822537575341421
1539732255360241,0.09649805447470783,-0.6718242160677499,-1.0194857709620813
1539732255376247,0.07843137254901933,-0.602365148393988,-0.9763942931258107
1539732255392253,0.031311512932020946,-0.5497520408941785,-0.87177843900206
1539732255408259,-0.013244831006332447,-0.498115510795758,-0.7655756466010528
1539732255424265,-0.06683451590753053,-0.4682078278782331,-0.6764629587243456
1539732255440271,-0.09893949797817969,-0.42584878309300356,-0.6059052414740216
1539732255456277,-0.11480888075074391,-0.38983749141680013,-0.5751430533302817
1539732255472283,-0.11883726253147175,-0.38800640878919657,-0.5800259403372245
1539732255488289,-0.10797283894102394,-0.3991149767299915,-0.6054169527733273
1539732255504295,-0.10638590066376752,-0.4026550698100251,-0.6404516670481422
1539732255520301,-0.08905165178912045,-0.4268253604943921,-0.667795834287022
1539732255536307,-0.08392462043183047,-0.44867627985046177,-0.7123521782253759
1539732255552313,-0.05914396887159512,-0.48664072632944233,-0.753002212558175
1539732255568359,-0.052918287937743,-0.5077592126344701,-0.7884031433585106
1539732255584365,-0.042908369573510186,-0.5293659876401922,-0.8203860532539866
1539732255600372,-0.03179980163271523,-0.5456015869382771,-0.8361333638513773
1539732255616378,-0.03546196688792236,-0.5602502479591056,-0.8477302204928665
1539732255632385,-0.027527275501640247,-0.5783169298847946,-0.8540779736018922
1539732255648391,-0.018127718013275285,-0.5792935072861831,-0.8710460059510186
1539732255664398,-0.022034027618829555,-0.5828336003662167,-0.8727550164034485
1539732255680404,-0.026062409399557396,-0.5840543221179524,-0.8631113145647364
1539732255696411,-0.023132677195391693,-0.5877164873731595,-0.85297932402533
1539732255712417,-0.02386511024643312,-0.598092622262913,-0.8489509422446022
1539732255728424,-0.013122758831158876,-0.6016327153429466,-0.8507820248722058
1539732255744430,-0.008606088349736751,-0.5908903639276724,-0.8484626535439079
1539732255760437,-0.012512397955291021,-0.5811245899137867,-0.8328374151216908
1539732255776443,-0.011413748378728883,-0.5789272907606624,-0.8156252384222173
1539732255792450,-0.015808346684977437,-0.5808804455634395,-0.8172121766994738
1539732255808456,-0.007995727473868897,-0.5877164873731595,-0.8179446097505152
1539732255824463,-0.016662851911192433,-0.578194857709621,-0.8257572289616237
1539732255840469,-0.01873807888914314,-0.5673304341191732,-0.8227054245822845
1539732255856475,-0.025574120698863112,-0.5676966506446939,-0.8222171358815902
1539732255872482,-0.03350881208514522,-0.5805142290379188,-0.8285648889906159
1539732255888488,-0.0319218738078888,-0.5875944151979859,-0.8261234454871444
1539732255904495,-0.02130159456778813,-0.5814908064393074,-0.824536507209888
1539732255920501,-0.01861600671396957,-0.5817349507896545,-0.8175783932249945
1539732255936508,-0.02020294499122599,-0.5902800030518045,-0.8142824444953081
1539732255952514,-0.013855191882200302,-0.5951628900587473,-0.8076905470359348
1539732255968521,-0.01226825360494388,-0.5842984664682995,-0.7981689173723963
1539732255984527,-0.002868696116578917,-0.5657434958419167,-0.784863050278477
1539732256000534,-0.0042114900434881974,-0.5559777218280306,-0.7818112458991378
1539732256016540,-0.004699778744182481,-0.5330281528953993,-0.782299534599832
1539732256032547,-0.009216449225604606,-0.5181353475242236,-0.7782711528191042
1539732256048553,-0.006530861371786045,-0.5017776760509651,-0.7616693369954985
1539732256064560,-0.003356984817273201,-0.4702830548561838,-0.7442130159456779
1539732256080566,-0.005188067444876765,-0.44782177462424677,-0.7284657053482873
1539732256096573,-4.272526131074983E-4,-0.42426184481574714,-0.716868848706798
1539732256112579,0.01629663538567172,-0.4066834515907529,-0.7165026321812773
1539732256128585,0.024597543297474544,-0.4236514839398793,-0.7405508506904708
1539732256144592,0.03143358510719452,-0.5886930647745481,-0.9654077973601893
1539732256160598,0.032410162508583085,-0.7996337834744791,-1.249103532463569
1539732256176605,0.03472953383688093,-0.7964599069199663,-1.1227588311589227
1539732256192611,0.01629663538567172,-0.6336156252384222,-0.7877927824826427
1539732256208618,-0.015442130159456724,-0.5005569542992294,-0.6021210040436409
1539732256224624,-0.04217593652246876,-0.41205462729839004,-0.619455252918288
1539732256240631,-0.05621423666742942,-0.4058289463645379,-0.8212405584802016
1539732256256637,-0.06195162890058725,-0.5009231708247501,-1.0722209506370644
1539732256272644,-0.04437323567559304,-0.5698939497978182,-1.0669718471046008
1539732256288650,-0.019470511940184565,-0.5598840314335849,-0.8626230258640422
1539732256304657,0.005920500495918191,-0.5456015869382771,-0.732249942778668
1539732256320663,0.020569161516746703,-0.5540245670252535,-0.7462882429236286
1539732256336670,0.0319218738078888,-0.5814908064393074,-0.8255130846112766
1539732256352676,0.02655069810025168,-0.5759975585564967,-0.8639658197909514
1539732256368682,0.018493934538795997,-0.5396200503547721,-0.8297856107423516
1539732256384689,0.0038452735179674846,-0.5001907377737087,-0.7998779278248263
1539732256400695,-0.011169604028381741,-0.4690623331044481,-0.8240482185091937
1539732256416702,-0.02008087281605242,-0.48017090104524307,-0.8830090791180285
1539732256432708,-0.024597543297474544,-0.5106889448386358,-0.9081559472037841
1539732256448715,-0.011291676203555312,-0.520576791027695,-0.8903334096284428
1539732256464721,0.002746623941405346,-0.5279011215381093,-0.8565194171053636
1539732256480728,0.007751583123521755,-0.5236285954070343,-0.8340581368734266
1539732256496734,0.005065995269703194,-0.48773937590600447,-0.8491950865949494
1539732256512741,0.00836194399938961,-0.456000610360876,-0.858960860608835
1539732256528747,0.023010605020218122,-0.4273136491950864,-0.8183108262760359
1539732256544754,0.02801556420233453,-0.4121766994735636,-0.8052491035324634
1539732256560760,0.01751735713740743,-0.4303654535744257,-0.8152590218966966
1539732256576767,0.0026245517662317752,-0.4616159304188603,-0.8596932936598765
1539732256592773,-0.020813305867093845,-0.48029297322041664,-0.9103532463569084
1539732256608780,-0.03424124513618665,-0.49616235599298086,-0.9119401846341648
1539732256624786,-0.0508430609597923,-0.4661326009002824,-0.8883802548256656
1539732256640792,-0.07647821774624264,-0.42755779354543355,-0.8705577172503243
1539732256656799,-0.10528725108720538,-0.37628747997253376,-0.9145037003128098
1539732256672805,-0.132143129625391,-0.3651789120317388,-0.9719996948195622
1539732256688812,-0.13739223315785454,-0.3493095292591746,-0.9833524071107043
1539732256704818,-0.11261158159761964,-0.3562676432440681,-0.9324483100633247
1539732256720825,-0.09918364232852683,-0.3591973754482338,-0.8927748531319142
1539732256736831,-0.08563363088426046,-0.37006179903868164,-0.9054703593499656
1539732256752838,-0.07757686732280478,-0.33221942473487465,-0.9604028381780729
1539732256768844,-0.06500343327992697,-0.2964522774090179,-0.9928740367742428
1539732256784851,-0.05157549401083372,-0.27570000762951086,-0.9762722209506371
1539732256800857,-0.04718089570458517,-0.273380636301213,-0.9396505683985659
1539732256816864,-0.043030441748683756,-0.2850995651178758,-0.9173113603418019
1539732256832870,-0.03802548256656735,-0.2826581216144044,-0.9307392996108947
1539732256848907,-0.038879987792782345,-0.2831464103150987,-0.9605249103532465
1539732256864914,-0.033875028610665936,-0.2869306477454794,-0.968337529564355
1539732256880920,-0.028137636377508102,-0.27203784237430373,-0.9497825589379723
1539732256896927,-0.01641870756084529,-0.279362172884718,-0.907057297627222
1539732256912933,-0.010559243152513886,-0.2780193789578087,-0.8909437705043106
1539732256928939,-0.02264438849469741,-0.2931563286793315,-0.899366750591287
1539732256944946,-0.036438544289310926,-0.3037766079194322,-0.9373311970702676
1539732256960952,-0.03350881208514522,-0.2938887617303729,-0.9497825589379723
1539732256976959,-0.03814755474174092,-0.28632028686961153,-0.9364766918440526
1539732256992965,-0.04486152437628732,-0.2860761425192644,-0.9300068665598533
1539732257008972,-0.04827954528114731,-0.2965743495841915,-0.9434348058289466
1539732257024978,-0.053162432288090145,-0.31219958800640857,-0.939040207522698
1539732257040985,-0.05499351491569371,-0.3037766079194322,-0.9270771343556876
1539732257056991,-0.06207370107576082,-0.2893720912489508,-0.9352559700923169
1539732257072998,-0.05426108186465228,-0.27911802853437084,-0.9488059815365837
1539732257089004,-0.05023270008392444,-0.27496757457846943,-0.9445334554055087
1539732257105011,-0.0424200808728159,-0.2788738841840237,-0.9317158770122833
1539732257121017,-0.03167772945754166,-0.2814373998626687,-0.9279316395819026
1539732257137024,-0.03045700770580595,-0.27948424505989156,-0.9379415579461359
1539732257153030,-0.03424124513618665,-0.2692301823453116,-0.9497825589379723
1539732257169036,-0.0394903486686502,-0.239810788128481,-0.9505149919890137
1539732257185043,-0.05816739147020655,-0.22076752880140393,-0.9530785076676587
1539732257201049,-0.06341649500267055,-0.22565041580834677,-0.9530785076676587
1539732257217056,-0.07733272297245763,-0.23382925154497602,-0.9563744563973451
1539732257233062,-0.08136110475318548,-0.2485999847409781,-0.9567406729228658
1539732257249069,-0.09942778667887398,-0.24884412909132525,-0.9619897764553293
1539732257265075,-0.10968184939345393,-0.24347295338368813,-0.9662623025864043
1539732257281082,-0.1152971694514382,-0.22211032272831321,-0.9771267261768521
1539732257297088,-0.1123674372472725,-0.1957427328908219,-0.9735866330968186
1539732257313095,-0.10650797283894109,-0.18536659800106792,-0.9638208590829329
1539732257329101,-0.10174715800717182,-0.19513237201495404,-0.9602807660028994
1539732257345108,-0.08429083695735118,-0.22992294193942175,-0.9613794155794615
1539732257361114,-0.07269398031586194,-0.2456702525368124,-0.9610131990539408
1539732257377121,-0.06903181506065481,-0.24896620126649882,-0.9539330128938737
1539732257393127,-0.06646829938200982,-0.24872205691615168,-0.9497825589379723
1539732257409134,-0.06524757763027411,-0.23993286030365457,-0.9589379720759901
1539732257425140,-0.07037460898756409,-0.23504997329671173,-0.9590600442511636
1539732257441146,-0.06878767071030767,-0.2444495307850767,-0.9533226520180058
1539732257457153,-0.06890974288548124,-0.24054322117952243,-0.9538109407187001
1539732257473159,-0.07501335164415979,-0.23932249942778672,-0.9508812085145344
1539732257489166,-0.07354848554207694,-0.2296787975890746,-0.9532005798428322
1539732257505172,-0.08538948653391332,-0.23321889066910817,-0.9466086823834594
1539732257521179,-0.0867322804608226,-0.24896620126649882,-0.944167238879988
1539732257537185,-0.08856336308842616,-0.2587319752803845,-0.9491721980621044
1539732257553192,-0.09088273441672401,-0.2558022430762188,-0.9499046311131458
1539732257569198,-0.0972304875257497,-0.23736934462500958,-0.9567406729228658
1539732257585205,-0.09405661097123685,-0.22076752880140393,-0.9669947356374458
1539732257601211,-0.09613183794918756,-0.21271076523994825,-0.9641870756084536
1539732257617218,-0.09539940489814613,-0.22772564278629748,-0.9556420233463037
1539732257633224,-0.08172732127870619,-0.24469367513542384,-0.9546654459449151
1539732257649231,-0.07574578469520121,-0.2537270160982681,-0.9472190432593273
1539732257665237,-0.0762340733958955,-0.2330968184939346,-0.9529564354924851
1539732257681244,-0.07977416647592905,-0.22125581750209822,-0.9602807660028994
1539732257697250,-0.08148317692835905,-0.21783779659723823,-0.9602807660028994
1539732257713256,-0.08184939345387976,-0.2175936522468911,-0.9549095902952622
1539732257729263,-0.08062867170214405,-0.2238193331807432,-0.9566186007476922
1539732257745269,-0.07782101167315192,-0.2322423132677196,-0.9599145494773786
1539732257761276,-0.08148317692835905,-0.24078736552986957,-0.9578393224994279
1539732257777282,-0.0888075074387733,-0.2401770046540017,-0.9558861676966508
1539732257793289,-0.0972304875257497,-0.24505989166094455,-0.9530785076676587
1539732257809326,-0.10894941634241251,-0.24054322117952243,-0.9495384145876251
1539732257825332,-0.10785076676585037,-0.23492790112153816,-0.9595483329518579
1539732257841339,-0.09979400320439469,-0.22662699320973534,-0.9547875181200887
1539732257857345,-0.10138094148165111,-0.21808194094758537,-0.951003280689708
1539732257873352,-0.10797283894102394,-0.2167391470206761,-0.9555199511711301
1539732257889358,-0.10431067368581681,-0.20123598077363258,-0.9610131990539408
1539732257905365,-0.10113679713130397,-0.19342336156252404,-0.9561303120469979
1539732257921371,-0.0905165178912033,-0.19269092851148262,-0.9523460746166172
1539732257937378,-0.08746471351186402,-0.20379949645227757,-0.9529564354924851
1539732257953384,-0.0829480430304419,-0.22015716792553608,-0.9572289616235601
1539732257969390,-0.07928587777523477,-0.2255283436331732,-0.9546654459449151
1539732257985397,-0.08038452735179691,-0.21734950789654395,-0.9546654459449151
1539732258001403,-0.08661020828564903,-0.206240939955749,-0.9618677042801558
1539732258017410,-0.08953994048981473,-0.1995269703212026,-0.9663843747615779
1539732258033416,-0.09381246662088971,-0.20526436255436042,-0.9672388799877929
1539732258049423,-0.094300755321584,-0.21490806439307253,-0.9630884260318915
1539732258065429,-0.09710841535057613,-0.2263828488593882,-0.9650415808346686
1539732258081436,-0.09466697184710471,-0.22687113756008248,-0.9593041886015108
1539732258097442,-0.09686427100022899,-0.2276035706111239,-0.9539330128938737
1539732258113449,-0.09649805447470827,-0.2196688792248418,-0.952712291142138
1539732258129486,-0.09893949797817969,-0.21075761043717112,-0.9530785076676587
1539732258145493,-0.09625391012436113,-0.20440985732814543,-0.9508812085145344
1539732258161500,-0.09747463187609684,-0.21283283741512182,-0.9517357137407494
1539732258177507,-0.10150301365682468,-0.2238193331807432,-0.9627222095063708
1539732258193513,-0.11688410772869462,-0.2348058289463646,-0.9655298695353629
1539732258209520,-0.12359807736324102,-0.2024567025253683,-0.9738307774471657
1539732258225527,-0.11627374685282676,-0.1602197299153123,-0.9594262607766844
1539732258241534,-0.10467689021133753,-0.1350728618295567,-0.9423361562523844
1539732258257541,-0.10003814755474183,-0.15533684290836947,-0.9525902189669644
1539732258273548,-0.09832913710231184,-0.19000534065766406,-0.9749294270237279
1539732258289555,-0.0888075074387733,-0.21173418783855968,-0.9755397878995957
1539732258305562,-0.08319218738078904,-0.21368734264133682,-0.966628519111925
1539732258321569,-0.08368047608148332,-0.21112382696269183,-0.9647974364843215
1539732258337576,-0.08258182650492119,-0.20563057907988114,-0.9629663538567179
1539732258353583,-0.08355840390630975,-0.19977111467154973,-0.9562523842221715
1539732258369590,-0.07891966124971406,-0.20636301213092256,-0.945876249332418
1539732258385597,-0.08014038300144977,-0.2162508583199818,-0.9533226520180058
1539732258401604,-0.07989623865110262,-0.21649500267032895,-0.9556420233463037
1539732258417611,-0.07879758907454049,-0.2158846417944611,-0.9567406729228658
1539732258433618,-0.0812390325780119,-0.2146639200427254,-0.9613794155794615
1539732258449615,-0.08062867170214405,-0.21356527046616325,-0.9621118486305029
1539732258465622,-0.08392462043183047,-0.2138094148165104,-0.9610131990539408
1539732258481628,-0.08563363088426046,-0.2138094148165104,-0.9638208590829329
1539732258497635,-0.0858777752346076,-0.21454184786755182,-0.9673609521629665
1539732258513641,-0.0875867856870376,-0.21844815747310609,-0.9630884260318915
1539732258529647,-0.0896620126649883,-0.21857022964827966,-0.9619897764553293
1539732258545654,-0.09332417792019543,-0.2179598687724118,-0.9667505912870986
1539732258561660,-0.08770885786221116,-0.21869230182345323,-0.9655298695353629
1539732258577667,-0.0888075074387733,-0.21271076523994825,-0.9602807660028994
1539732258593673,-0.08807507438773188,-0.20697337300679042,-0.9582055390249486
1539732258609680,-0.08819714656290545,-0.2124666208896011,-0.9564965285725187
1539732258625686,-0.08746471351186402,-0.21734950789654395,-0.9560082398718244
1539732258641693,-0.08465705348287189,-0.2162508583199818,-0.9583276112001222
1539732258657699,-0.08307011520561547,-0.21258869306477468,-0.9645532921339743
1539732258673706,-0.08099488822766476,-0.21600671396963467,-0.9599145494773786
1539732258689712,-0.07843137254901977,-0.21527428091859324,-0.9557640955214772
1539732258705719,-0.07806515602349906,-0.21429770351720467,-0.9541771572442208
1539732258721725,-0.07647821774624264,-0.2158846417944611,-0.9521019302662701
1539732258737732,-0.0762340733958955,-0.21832608529793252,-0.9589379720759901
1539732258753738,-0.0812390325780119,-0.21869230182345323,-0.9687037460898758
1539732258769744,-0.07977416647592905,-0.21991302357518894,-0.97431906614786
1539732258785751,-0.0858777752346076,-0.21722743572137038,-0.97261005569543
1539732258801757,-0.08746471351186402,-0.2234531166552225,-0.9739528496223393
1539732258817764,-0.08819714656290545,-0.2213778896772718,-0.9728542000457772
1539732258833770,-0.09600976577401399,-0.2108796826123447,-0.9582055390249486
1539732258849777,-0.1030899519340811,-0.1911039902342262,-0.9430685893034259
1539732258865783,-0.1030899519340811,-0.18280308232242293,-0.9374532692454411
1539732258881790,-0.10504310673685824,-0.18841840238040763,-0.937209124895094
1539732258897796,-0.1001602197299154,-0.20184634164950044,-0.9395284962233923
1539732258913803,-0.09735255970092327,-0.20929274433508827,-0.947585259784848
1539732258929809,-0.09405661097123685,-0.21014724956130326,-0.9523460746166172
1539732258945816,-0.09100480659189758,-0.20892652780956755,-0.9584496833752958
1539732258961822,-0.08831921873807902,-0.2129549095902954,-0.9627222095063708
1539732258977829,-0.08648813611047546,-0.22125581750209822,-0.9713893339436943
1539732258993835,-0.08429083695735118,-0.22577248798352034,-0.9767605096513314
1539732259009842,-0.08929579613946759,-0.21832608529793252,-0.9770046540016786
1539732259025848,-0.09369039444571614,-0.20782787823300541,-0.9749294270237279
1539732259041854,-0.10199130235751896,-0.20270084687571543,-0.971755550469215
1539732259057861,-0.10064850843060968,-0.2074616617074847,-0.9738307774471657
1539732259073867,-0.10138094148165111,-0.2066071564812697,-0.9746852826733807
1539732259089874,-0.09857328145265898,-0.1969634546425576,-0.9671168078126193
1539732259105880,-0.09417868314641042,-0.1890287632562755,-0.9563744563973451
1539732259121887,-0.08697642481116974,-0.1876859693293662,-0.9438010223544673
1539732259137893,-0.08429083695735118,-0.19000534065766406,-0.9368429083695733
1539732259153900,-0.08087281605249119,-0.20050354772259116,-0.935500114442664
1539732259169906,-0.07879758907454049,-0.20123598077363258,-0.9397726405737394
1539732259185913,-0.08014038300144977,-0.2033112077515833,-0.9488059815365837
1539732259201919,-0.08160524910353262,-0.20428778515297186,-0.9553978789959565
1539732259217926,-0.08368047608148332,-0.20294499122606258,-0.9591821164263372
1539732259233932,-0.08416876478217761,-0.2086823834592204,-0.970046540016785
1539732259249939,-0.08599984740978117,-0.2138094148165104,-0.9822537575341421
1539732259265945,-0.09185931181811258,-0.21075761043717112,-0.98286411841001
1539732259281952,-0.09686427100022899,-0.20636301213092256,-0.9792019531548029
1539732259297958,-0.09881742580300612,-0.20514229037918685,-0.9729762722209507
1539732259313964,-0.10150301365682468,-0.20306706340123615,-0.96748302433814
1539732259329971,-0.10272373540856039,-0.19916075379568188,-0.9635767147325858
1539732259345977,-0.1001602197299154,-0.19623102159151617,-0.9604028381780729
1539732259361984,-0.09710841535057613,-0.18927290760662263,-0.9577172503242544
1539732259377990,-0.09600976577401399,-0.18878461890592835,-0.9556420233463037
1539732259393997,-0.09454489967193114,-0.18878461890592835,-0.9545433737697415
1539732259410034,-0.08892957961394687,-0.1952544441901276,-0.9534447241931794
1539732259426041,-0.08844129091325259,-0.19916075379568188,-0.9497825589379723
1539732259442048,-0.0896620126649883,-0.20294499122606258,-0.9508812085145344
1539732259458055,-0.09002822919050901,-0.2007476920729383,-0.9547875181200887
1539732259474062,-0.0905165178912033,-0.2007476920729383,-0.9574731059739072
1539732259490069,-0.09161516746776543,-0.20062561989776473,-0.9574731059739072
1539732259506075,-0.09369039444571614,-0.19562066071564832,-0.9590600442511636
1539732259522082,-0.094300755321584,-0.19916075379568188,-0.9593041886015108
1539732259538089,-0.093446250095369,-0.20550850690470757,-0.9651636530098422
1539732259554096,-0.09600976577401399,-0.20880445563439398,-0.9647974364843215
1539732259570103,-0.10284580758373396,-0.20563057907988114,-0.9588158999008165
1539732259586110,-0.09991607537956826,-0.20013733119707044,-0.9651636530098422
1539732259602117,-0.1018692301823454,-0.20428778515297186,-0.9628442816815443
1539732259618124,-0.10626382848859395,-0.21136797131303897,-0.9665064469367515
1539732259634131,-0.10247959105821325,-0.1973296711680783,-0.9668726634622722
1539732259650138,-0.09600976577401399,-0.1890287632562755,-0.9539330128938737
1539732259666145,-0.09564354924849328,-0.19049362935835834,-0.9556420233463037
1539732259682152,-0.09588769359884042,-0.2007476920729383,-0.952712291142138
1539732259698159,-0.09674219882505541,-0.20428778515297186,-0.9551537346456094
1539732259714166,-0.09686427100022899,-0.19855039291981402,-0.9556420233463037
1539732259730163,-0.10052643625543611,-0.19635309376668975,-0.9599145494773786
1539732259746170,-0.10028229190508897,-0.201113908598459,-0.9646753643091479
1539732259762177,-0.09820706492713827,-0.20978103303578255,-0.9721217669947357
1539732259778184,-0.09991607537956826,-0.2146639200427254,-0.9682154573891815
1539732259794191,-0.10052643625543611,-0.21234454871442754,-0.9672388799877929
1539732259810198,-0.09906157015335326,-0.20636301213092256,-0.96406500343328
1539732259826205,-0.0993057145037004,-0.20477607385366614,-0.9635767147325858
1539732259842212,-0.09881742580300612,-0.20514229037918685,-0.9667505912870986
1539732259858219,-0.10028229190508897,-0.20294499122606258,-0.9599145494773786
1539732259874226,-0.09967193102922112,-0.1990386816205083,-0.9571068894483865
1539732259890233,-0.10284580758373396,-0.19745174334325188,-0.9594262607766844
1539732259906240,-0.09881742580300612,-0.20318913557640972,-0.9563744563973451
1539732259922247,-0.10113679713130397,-0.20807202258335256,-0.9590600442511636
1539732259938254,-0.10064850843060968,-0.20587472343022828,-0.9584496833752958
1539732259954260,-0.10577553978789966,-0.20001525902189687,-0.9575951781490808
1539732259970267,-0.10443274586099038,-0.20172426947432687,-0.9602807660028994
1539732259986274,-0.10443274586099038,-0.20428778515297186,-0.9600366216525522
1539732260002281,-0.10211337453269254,-0.20587472343022828,-0.9615014877546351
1539732260018288,-0.10321202410925467,-0.20514229037918685,-0.9589379720759901
1539732260034295,-0.09967193102922112,-0.2057526512550547,-0.9586938277256429
1539732260050293,-0.10150301365682468,-0.21222247653925397,-0.9604028381780729
1539732260066300,-0.10345616845960182,-0.21686121919584966,-0.9595483329518579
1539732260082306,-0.10272373540856039,-0.21783779659723823,-0.9553978789959565
1539732260098313,-0.1010147249561304,-0.20965896086060898,-0.9534447241931794
1539732260114320,-0.10272373540856039,-0.20648508430609613,-0.9582055390249486
1539732260130327,-0.09942778667887398,-0.21063553826199755,-0.9583276112001222
1539732260146334,-0.09820706492713827,-0.21637293049515538,-0.9529564354924851
1539732260162341,-0.1022354467078661,-0.2146639200427254,-0.9489280537117573
1539732260178348,-0.10418860151064324,-0.20978103303578255,-0.9445334554055087
1539732260194355,-0.10846112764171822,-0.206240939955749,-0.942458228427558
1539732260210362,-0.1068741893644618,-0.2074616617074847,-0.9436789501792937
1539732260226369,-0.10736247806515609,-0.21149004348821254,-0.9485618371862365
1539732260242376,-0.10199130235751896,-0.2191805905241475,-0.9463645380331123
1539732260258383,-0.10418860151064324,-0.22406347753109035,-0.9481956206607158
1539732260274390,-0.10235751888303968,-0.22662699320973534,-0.9578393224994279
1539732260290397,-0.1039444571602961,-0.22662699320973534,-0.9696803234912643
1539732260306404,-0.10211337453269254,-0.22149996185244536,-0.9730983443961243
1539732260322411,-0.1018692301823454,-0.21979095140001537,-0.9721217669947357
1539732260338418,-0.09869535362783255,-0.2213778896772718,-0.9710231174181736
1539732260354425,-0.09857328145265898,-0.2200350957503625,-0.9677271686884872
1539732260370422,-0.09918364232852683,-0.21686121919584966,-0.9604028381780729
1539732260386428,-0.09588769359884042,-0.2141756313420311,-0.9478294041351951
1539732260402435,-0.09881742580300612,-0.20843823910887327,-0.9514915693904022
1539732260418441,-0.09881742580300612,-0.20880445563439398,-0.951003280689708
1539732260434448,-0.0993057145037004,-0.21393148699168396,-0.9524681467917908
1539732260450454,-0.09698634317540256,-0.22040131227588322,-0.9532005798428322
1539732260466461,-0.09796292057679112,-0.22540627145799963,-0.9503929198138401
1539732260482467,-0.09796292057679112,-0.2225986114290075,-0.9578393224994279
1539732260498474,-0.10113679713130397,-0.21844815747310609,-0.96577401388571
1539732260514480,-0.09869535362783255,-0.22308690012970178,-0.9718776226443886
1539732260530487,-0.10162508583199825,-0.2229648279545282,-0.9696803234912643
1539732260546493,-0.10003814755474183,-0.21771572442206466,-0.9573510337987337
1539732260562500,-0.09991607537956826,-0.2175936522468911,-0.9536888685435265
1539732260578506,-0.09881742580300612,-0.21991302357518894,-0.9633325703822386
1539732260594513,-0.10211337453269254,-0.21979095140001537,-0.9610131990539408
1539732260610519,-0.10614175631342038,-0.21319905394064254,-0.9604028381780729
1539732260626526,-0.10699626153963537,-0.20880445563439398,-0.9575951781490808
1539732260642532,-0.10919356069275965,-0.2083161669336997,-0.9530785076676587
1539732260658538,-0.10675211718928823,-0.21649500267032895,-0.9583276112001222
1539732260674545,-0.1085831998168918,-0.22735942626077676,-0.9586938277256429
1539732260690582,-0.11017013809414822,-0.2267490653849089,-0.948439765011063
1539732260706589,-0.11163500419623107,-0.2200350957503625,-0.9384298466468302
1539732260722596,-0.11041428244449536,-0.21649500267032895,-0.9357442587930112
1539732260738603,-0.10589761196307323,-0.22528419928282606,-0.9451438162813766
1539732260754610,-0.09942778667887398,-0.23382925154497602,-0.9557640955214772
1539732260770617,-0.09454489967193114,-0.2334630350194553,-0.9600366216525522
1539732260786624,-0.09222552834363329,-0.22601663233386748,-0.9618677042801558
1539732260802631,-0.09185931181811258,-0.22076752880140393,-0.9619897764553293
1539732260818637,-0.09442282749675757,-0.22418554970626392,-0.9638208590829329
1539732260834644,-0.09564354924849328,-0.2334630350194553,-0.968337529564355
1539732260850651,-0.09967193102922112,-0.23089951934081032,-0.9622339208056765
1539732260866658,-0.10492103456168467,-0.22162203402761893,-0.9499046311131458
1539732260882665,-0.10809491111619751,-0.2066071564812697,-0.9479514763103687
1539732260898672,-0.11114671549553679,-0.20599679560540185,-0.9439230945296408
1539732260914679,-0.10992599374380108,-0.21307698176546896,-0.9507591363393608
1539732260930686,-0.10650797283894109,-0.22650492103456177,-0.9540550850690472
1539732260946693,-0.10443274586099038,-0.22613870450904106,-0.9545433737697415
1539732260962700,-0.10296787975890753,-0.22284275577935464,-0.9480735484855423
1539732260978707,-0.10272373540856039,-0.2217441062027925,-0.9495384145876251
1539732260994714,-0.09979400320439469,-0.23358510719462888,-0.9628442816815443
1539732261010742,-0.09759670405127041,-0.23736934462500958,-0.96406500343328
1539732261026749,-0.09625391012436113,-0.23651483939879459,-0.9624780651560236
1539732261042756,-0.09625391012436113,-0.22980086976424818,-0.9629663538567179
1539732261058763,-0.09771877622644398,-0.22906843671320676,-0.9595483329518579
1539732261074770,-0.10040436408026254,-0.23212024109254603,-0.9588158999008165
1539732261090777,-0.10418860151064324,-0.2276035706111239,-0.949294270237278
1539732261106783,-0.10711833371480894,-0.21686121919584966,-0.950148775463493
1539732261122790,-0.10540932326237895,-0.21051346608682397,-0.9456321049820708
1539732261138797,-0.11407644769970249,-0.207095445181964,-0.9497825589379723
1539732261154804,-0.1135881589990082,-0.20611886778057542,-0.9505149919890137
1539732261170811,-0.10284580758373396,-0.2116121156633861,-0.9464866102082858
1539732261186818,-0.09735255970092327,-0.21857022964827966,-0.9464866102082858
1539732261202825,-0.09198138399328615,-0.22662699320973534,-0.9558861676966508
1539732261218832,-0.0888075074387733,-0.23273060196841389,-0.9583276112001222
1539732261234839,-0.09271381704432757,-0.22870222018768604,-0.9564965285725187
1539732261250846,-0.09832913710231184,-0.21979095140001537,-0.9505149919890137
1539732261266853,-0.10028229190508897,-0.22113374532692465,-0.9557640955214772
1539732261282860,-0.10284580758373396,-0.22650492103456177,-0.9656519417105365
1539732261298867,-0.10162508583199825,-0.22577248798352034,-0.9741969939726864
1539732261314874,-0.1018692301823454,-0.2167391470206761,-0.9641870756084536
1539732261330871,-0.10345616845960182,-0.20611886778057542,-0.9577172503242544
1539732261346878,-0.10089265278095683,-0.20929274433508827,-0.9571068894483865
1539732261362885,-0.09881742580300612,-0.2153963530937668,-0.9557640955214772
1539732261378892,-0.09942778667887398,-0.21905851834897394,-0.955275806820783
1539732261394899,-0.1018692301823454,-0.2150301365682461,-0.9617456321049822
1539732261410906,-0.10199130235751896,-0.21185626001373326,-0.9573510337987337
1539732261426913,-0.09845120927748541,-0.21149004348821254,-0.9533226520180058
1539732261442920,-0.09845120927748541,-0.21942473487449465,-0.9596704051270315
1539732261458927,-0.09393453879606328,-0.22943465323872747,-0.9630884260318915
1539732261474934,-0.09320210574502186,-0.23419546807049674,-0.9665064469367515
1539732261490941,-0.09185931181811258,-0.22662699320973534,-0.9646753643091479
1539732261506948,-0.09393453879606328,-0.21991302357518894,-0.9626001373311972
1539732261522955,-0.09405661097123685,-0.21686121919584966,-0.9584496833752958
1539732261538962,-0.09515526054779899,-0.21490806439307253,-0.9557640955214772
1539732261554968,-0.0980849927519647,-0.21771572442206466,-0.9579613946746015
1539732261570975,-0.09991607537956826,-0.21783779659723823,-0.952712291142138
1539732261586982,-0.10235751888303968,-0.21075761043717112,-0.946730754558633
1539732261602989,-0.10138094148165111,-0.20172426947432687,-0.9500267032883194
1539732261618996,-0.10174715800717182,-0.1990386816205083,-0.9505149919890137
1539732261635003,-0.10052643625543611,-0.20502021820401328,-0.9485618371862365
1539732261651001,-0.09662012664988184,-0.20770580605783184,-0.9469748989089801
1539732261667008,-0.09454489967193114,-0.21368734264133682,-0.948439765011063
1539732261683014,-0.09478904402227828,-0.21991302357518894,-0.9588158999008165
1539732261699021,-0.09283588921950114,-0.22882429236285962,-0.9638208590829329
1539732261715028,-0.09185931181811258,-0.23358510719462888,-0.9677271686884872
1539732261731035,-0.09466697184710471,-0.22308690012970178,-0.9647974364843215
1539732261747042,-0.09759670405127041,-0.2213778896772718,-0.9687037460898758
1539732261763049,-0.09857328145265898,-0.22455176623178463,-0.9778591592278936
1539732261779056,-0.10052643625543611,-0.22284275577935464,-0.9660181582360572
1539732261795063,-0.10699626153963537,-0.20819409475852613,-0.9575951781490808
1539732261811070,-0.11248950942244607,-0.19635309376668975,-0.9500267032883194
1539732261827077,-0.11187914854657821,-0.20135805294880615,-0.9419699397268637
1539732261843084,-0.11004806591897465,-0.21283283741512182,-0.9470969710841537
1539732261859091,-0.10370031280994896,-0.2246738384069582,-0.949294270237278
1539732261875098,-0.1010147249561304,-0.22211032272831321,-0.9455100328068973
1539732261891105,-0.09613183794918756,-0.20794995040817899,-0.9403830014496073
1539732261907112,-0.09466697184710471,-0.20721751735713756,-0.9435568780041201
1539732261923119,-0.09527733272297256,-0.2208896009765775,-0.9593041886015108
1539732261939126,-0.09478904402227828,-0.23456168459601745,-0.9698023956664379
1539732261955133,-0.09478904402227828,-0.23797970550087744,-0.9757839322499429
1539732261971161,-0.09308003356984829,-0.22149996185244536,-0.9746852826733807
1539732261987167,-0.09564354924849328,-0.2116121156633861,-0.9707789730678265
1539732262003174,-0.09332417792019543,-0.21319905394064254,-0.9722438391699093
1539732262019181,-0.08831921873807902,-0.21930266269932108,-0.9600366216525522
1539732262035188,-0.08307011520561547,-0.22125581750209822,-0.9511253528648815
1539732262051195,-0.0800183108262762,-0.2200350957503625,-0.9512474250400551
1539732262067202,-0.08270389868009476,-0.21698329137102323,-0.9461203936827651
1539732262083209,-0.0879530022125583,-0.2121004043640804,-0.9466086823834594
1539732262099216,-0.09161516746776543,-0.20465400167849257,-0.9519798580910965
1539732262115223,-0.09393453879606328,-0.19513237201495404,-0.9397726405737394
1539732262131230,-0.09613183794918756,-0.1911039902342262,-0.9319600213626305
1539732262147237,-0.09845120927748541,-0.20550850690470757,-0.9418478675516901
1539732262163244,-0.09942778667887398,-0.2234531166552225,-0.9525902189669644
1539732262179251,-0.10284580758373396,-0.23212024109254603,-0.9647974364843215
1539732262195258,-0.10663004501411466,-0.22711528191042962,-0.9693141069657436
1539732262211265,-0.11248950942244607,-0.22528419928282606,-0.9713893339436943
1539732262227272,-0.11676203555352105,-0.2267490653849089,-0.9807888914320593
1539732262243279,-0.11663996337834748,-0.22149996185244536,-0.9741969939726864
1539732262259286,-0.11175707637140464,-0.20929274433508827,-0.9626001373311972
1539732262275292,-0.10467689021133753,-0.20062561989776473,-0.9596704051270315
1539732262291290,-0.09857328145265898,-0.21075761043717112,-0.9567406729228658
1539732262307297,-0.09796292057679112,-0.22442969405661106,-0.9573510337987337
1539732262323304,-0.0963759822995347,-0.22772564278629748,-0.9571068894483865
1539732262339311,-0.09564354924849328,-0.21722743572137038,-0.9541771572442208
1539732262355318,-0.09600976577401399,-0.20233463035019472,-0.9479514763103687
1539732262371325,-0.09515526054779899,-0.20221255817502115,-0.951857785915923
1539732262387332,-0.09308003356984829,-0.2091706721599147,-0.9594262607766844
1539732262403339,-0.09076066224155044,-0.2129549095902954,-0.9607690547035936
1539732262419345,-0.08722056916151688,-0.21393148699168396,-0.9604028381780729
1539732262435352,-0.08990615701533544,-0.2112458991378654,-0.9617456321049822
1539732262451359,-0.09210345616845972,-0.21271076523994825,-0.9621118486305029
1539732262467366,-0.0963759822995347,-0.2146639200427254,-0.9618677042801558
1539732262483373,-0.10028229190508897,-0.21661707484550252,-0.9611352712291144
1539732262499380,-0.10638590066376752,-0.2158846417944611,-0.9663843747615779
1539732262515387,-0.10785076676585037,-0.21222247653925397,-0.9621118486305029
1539732262531394,-0.11273365377279321,-0.20672922865644328,-0.9602807660028994
1539732262547401,-0.11407644769970249,-0.2086823834592204,-0.9600366216525522
1539732262563408,-0.1123674372472725,-0.21075761043717112,-0.9624780651560236
1539732262579415,-0.10699626153963537,-0.21112382696269183,-0.9584496833752958
1539732262595422,-0.10809491111619751,-0.20843823910887327,-0.9571068894483865
1539732262611419,-0.10638590066376752,-0.20392156862745114,-0.9560082398718244
1539732262627426,-0.10296787975890753,-0.20599679560540185,-0.9529564354924851
1539732262643433,-0.1022354467078661,-0.2150301365682461,-0.9522240024414437
1539732262659440,-0.1010147249561304,-0.22186617837796607,-0.9605249103532465
1539732262675447,-0.09710841535057613,-0.22479591058213177,-0.9632104982070651
1539732262691454,-0.09918364232852683,-0.21734950789654395,-0.9611352712291144
1539732262707461,-0.09857328145265898,-0.2108796826123447,-0.9629663538567179
1539732262723468,-0.09991607537956826,-0.20685130083161685,-0.9595483329518579
1539732262739475,-0.10370031280994896,-0.21063553826199755,-0.9591821164263372
1539732262755482,-0.10357824063477539,-0.21600671396963467,-0.9604028381780729
1539732262771489,-0.09893949797817969,-0.21307698176546896,-0.9557640955214772
1539732262787496,-0.09625391012436113,-0.20819409475852613,-0.9497825589379723
1539732262803503,-0.09759670405127041,-0.2057526512550547,-0.9521019302662701
1539732262819510,-0.09588769359884042,-0.2095368886854354,-0.9538109407187001
1539732262835517,-0.09869535362783255,-0.2150301365682461,-0.9563744563973451
1539732262851524,-0.09662012664988184,-0.2208896009765775,-0.9595483329518579
1539732262867530,-0.09710841535057613,-0.2258945601586939,-0.9617456321049822
1539732262883537,-0.10040436408026254,-0.22162203402761893,-0.9597924773022051
1539732262899544,-0.09454489967193114,-0.21893644617380037,-0.9634546425574122
1539732262915551,-0.09234760051880686,-0.21576256961928753,-0.9621118486305029
1539732262931579,-0.09405661097123685,-0.23077744716563675,-0.9679713130388343
1539732262947586,-0.08612191958495474,-0.2343175402456703,-0.9748073548485543
1539732262963593,-0.08783093003738474,-0.2348058289463646,-0.9706569008926529
1539732262979600,-0.08014038300144977,-0.22015716792553608,-0.9506370641641873
1539732262995607,-0.09039444571602973,-0.20306706340123615,-0.9379415579461359
1539732263011614,-0.08892957961394687,-0.20050354772259116,-0.9395284962233923
1539732263027621,-0.093446250095369,-0.21722743572137038,-0.9538109407187001
1539732263043628,-0.09222552834363329,-0.23065537499046318,-0.9572289616235601
1539732263059635,-0.09503318837262542,-0.22943465323872747,-0.9462424658579387
1539732263075642,-0.0993057145037004,-0.21979095140001537,-0.9447775997558558
1539732263091649,-0.09771877622644398,-0.20587472343022828,-0.9506370641641873
1539732263107656,-0.10370031280994896,-0.20416571297779829,-0.9611352712291144
1539732263123663,-0.1030899519340811,-0.20770580605783184,-0.9658960860608836
1539732263139670,-0.09967193102922112,-0.2167391470206761,-0.9613794155794615
1539732263155676,-0.092591744869154,-0.22687113756008248,-0.9572289616235601
1539732263171683,-0.09369039444571614,-0.22955672541390104,-0.9567406729228658
1539732263187690,-0.09442282749675757,-0.22748149843595034,-0.9621118486305029
1539732263203697,-0.09747463187609684,-0.2238193331807432,-0.9685816739147022
1539732263219704,-0.09686427100022899,-0.21075761043717112,-0.9770046540016786
1539732263235711,-0.09662012664988184,-0.2146639200427254,-0.9740749217975129
1539732263251709,-0.08770885786221116,-0.21344319829098968,-0.9728542000457772
1539732263267716,-0.08307011520561547,-0.22149996185244536,-0.9563744563973451
1539732263283723,-0.08233768215457404,-0.2330968184939346,-0.9447775997558558
1539732263299729,-0.07940794995040834,-0.2394445716029603,-0.9429465171282523
1539732263315736,-0.08111696040283833,-0.2385900663767453,-0.9567406729228658
1539732263331743,-0.08355840390630975,-0.21844815747310609,-0.9665064469367515
1539732263347750,-0.094300755321584,-0.1846341649500265,-0.9566186007476922
1539732263363757,-0.11041428244449536,-0.16473640039673443,-0.9496604867627987
1539732263379764,-0.11200122072175178,-0.18597695887693577,-0.9525902189669644
1539732263395771,-0.10553139543755252,-0.22906843671320676,-0.9580834668497751
1539732263411778,-0.09100480659189758,-0.25470359349965666,-0.955275806820783
1539732263427785,-0.08160524910353262,-0.25177386129549095,-0.9470969710841537
1539732263443792,-0.07660028992141621,-0.23114366369115746,-0.9530785076676587
1539732263459799,-0.08172732127870619,-0.2141756313420311,-0.9636987869077593
1539732263475806,-0.07415884641794479,-0.20733958953231113,-0.9710231174181736
1539732263491813,-0.08636606393530188,-0.20599679560540185,-0.9629663538567179
1539732263507820,-0.08343633173113618,-0.21454184786755182,-0.9479514763103687
1539732263523827,-0.09027237354085615,-0.21930266269932108,-0.9451438162813766
1539732263539834,-0.09515526054779899,-0.2208896009765775,-0.9654077973601893
1539732263555841,-0.09576562142366685,-0.21698329137102323,-0.9900663767452507
1539732263571838,-0.09857328145265898,-0.20184634164950044,-1.0021515220874342
1539732263587845,-0.09979400320439469,-0.1998931868467233,-1.0071564812695506
1539732263603852,-0.09283588921950114,-0.21026932173647683,-1.0242465857938505
1539732263619859,-0.09369039444571614,-0.21258869306477468,-1.0304722667277026
1539732263635866,-0.09662012664988184,-0.23163195239185175,-1.0293736171511405
1539732263651873,-0.10675211718928823,-0.2688639658197909,-1.0420691233691919
1539732263667880,-0.10577553978789966,-0.269962615396353,-1.0745403219653622
1539732263683887,-0.11212329289692535,-0.25091935606927596,-1.1322804608224613
1539732263699894,-0.13482871747920955,-0.21429770351720467,-1.204180971999695
1539732263715901,-0.14142061493858238,-0.16961928740367727,-1.2780346379797054
1539732263731907,-0.164003967345693,-0.12213321126115817,-1.3404135194934006
1539732263747914,-0.18805218585488692,-0.10907148851758608,-1.368734264133669
1539732263763921,-0.21026932173647683,-0.09845120927748541,-1.3769130998702983
1539732263779928,-0.2348058289463646,-0.08282597085526833,-1.375570305943389
1539732263795935,-0.25812161440451664,-0.060975051499198685,-1.378988326848249
1539732263811942,-0.2650797283894102,-0.04205386434729519,-1.3577477683680477
1539732263827949,-0.2947432669565879,-0.019836728465705278,-1.3120927748531317
1539732263843956,-0.3024338139925229,-0.007751583123521755,-1.2427557793545434
1539732263859963,-0.28912794689860366,-0.01739528496223386,-1.1481498435950255
1539732263875970,-0.314763103685054,-0.053284504463263715,-1.0170443274586098
1539732263891998,-0.2936446173800258,-0.10797283894102394,-0.8689707789730678
1539732263908005,-0.29034866865033937,-0.17596704051270295,-0.7139391165026323
1539732263924012,-0.3057297627222093,-0.2251621271076525,-0.5779507133592738
1539732263940019,-0.319890135042344,-0.2561684596017395,-0.4846875715266652
1539732263956026,-0.3172045471885254,-0.30389868009460574,-0.3958190280003051
1539732263972033,-0.3374685282673382,-0.3312428473334861,-0.36041809719996953
1539732263988040,-0.3588311589227131,-0.3331960021362632,-0.35077439536125743
1539732264004047,-0.3710383764400702,-0.3065842679484243,-0.35492484931715884
1539732264020053,-0.3748226138704509,-0.2726482032501716,-0.3790951400015259
1539732264036060,-0.3463797970550089,-0.27228198672465087,-0.3875181200885023
1539732264052067,-0.3240405889982454,-0.3024338139925229,-0.3613946746013581
1539732264068074,-0.3151293202105747,-0.3302662699320975,-0.2935225452048522
1539732264084081,-0.2623941405355916,-0.33099870298313894,-0.16412603952086657
1539732264100088,-0.2016021972991533,-0.34015411612115676,-0.0040894178683146265
1539732264116095,-0.12921339742122528,-0.36627756160830094,0.19684138246738403
1539732264132102,-0.04046692607003877,-0.38971541924162656,0.4354924849317161
1539732264148109,0.05145342183566015,-0.4114442664225222,0.6934309910734724
1539732264164116,0.22955672541390104,-0.459418631265736,0.978591592278935
1539732264180123,0.34845502403295914,-0.3663996337834745,1.1938048371099415
1539732264196130,0.5939421683070112,-0.37836270695048446,1.1546196688792252
1539732264212158,0.8391851682307161,0.07403677424277078,0.5133745326924544
1539732264228165,1.170611123826963,0.6687724116884111,-0.5270466163118943
1539732264244172,-1.0148470283054856,-4.0,-4.0
1539732264260179,-0.32709239337758467,3.0090180819409476,-4.0
1539732264276186,-0.504951552605478,1.1855039291981386,-1.7746242465857938
1539732264292193,-0.22333104448004892,-0.1030899519340811,-0.8190432593270773
1539732264308200,-0.32220950637064183,-0.09405661097123685,-0.9936064698252842
1539732264324206,-0.24591439688715955,-0.2818036163881894,-0.9767605096513314
1539732264340213,-0.16156252384222158,-0.27240405889982444,-1.0204623483634698
1539732264356220,-0.07818722819867263,-0.3206225680933854,-0.9174334325169755
1539732264372227,-0.04608224612802303,-0.3651789120317388,-0.7620355535210193
1539732264388234,-0.06280613412680269,-0.44574654764629607,-0.5523155565728235
1539732264404241,-0.11602960250247962,-0.4276798657206071,-0.4473334859235525
1539732264420248,-0.12506294346532387,-0.3806820782787823,-0.4314641031509878
1539732264436255,-0.15497062638284875,-0.30463111314564717,-0.48615243762874805
1539732264452262,-0.14984359502555877,-0.2255283436331732,-0.5818570229648281
1539732264468269,-0.1459372854200045,-0.15887693598840302,-0.7053940642404823
1539732264484276,-0.1488670176241702,-0.09027237354085615,-0.8395513847562373
1539732264500283,-0.12970168612191957,-0.10455481803616395,-0.9367208361943997
1539732264516290,-0.16083009079118016,-0.1581445029373616,-0.9724879835202564
1539732264532287,-0.18060578316929865,-0.21197833218890683,-0.9604028381780729
1539732264548294,-0.17206073090714868,-0.2771648737315937,-0.942458228427558
1539732264564301,-0.165712977798123,-0.2986495765621422,-0.9507591363393608
1539732264580308,-0.16083009079118016,-0.2847333485923551,-0.9718776226443886
1539732264596315,-0.15069810025177377,-0.2647135118638895,-0.98115510795758
1539732264612322,-0.14959945067521163,-0.25555809872587165,-1.00337224383917
1539732264628329,-0.1392233157854581,-0.277653162432288,-1.0160677500572213
1539732264644336,-0.12970168612191957,-0.28998245212481866,-1.0296177615014876
1539732264660343,-0.13177691309987027,-0.29010452429999223,-1.0193636987869077
1539732264676350,-0.13275349050125884,-0.28705271992065295,-0.9981231403067063
1539732264692357,-0.13849088273441668,-0.28998245212481866,-0.9712672617685207
1539732264708364,-0.13727016098268097,-0.30780498970016,-0.9479514763103687
1539732264724371,-0.1359273670557717,-0.3125658045319297,-0.9275654230563819
1539732264740378,-0.14117647058823524,-0.3014572365911343,-0.9149919890135041
1539732264756384,-0.1388570992599374,-0.2822919050888837,-0.9109636072327763
1539732264772391,-0.13763637750820168,-0.2649576562142366,-0.9081559472037841
1539732264788398,-0.14544899671931022,-0.2571450370031281,-0.9042496375982298
1539732264804405,-0.1450827801937895,-0.2688639658197909,-0.9004654001678492
1539732264820412,-0.14837872892347592,-0.27582207980468443,-0.9049820706492713
1539732264836419,-0.14898908979934378,-0.2743572137026016,-0.9125505455100327
1539732264852417,-0.1488670176241702,-0.26398107881284805,-0.9359884031433583
1539732264868424,-0.15301747158007162,-0.25128557259479667,-0.9687037460898758
1539732264884431,-0.129579613946746,-0.24469367513542384,-0.9901884489204242
1539732264900437,-0.10614175631342038,-0.24042114900434886,-0.9931181811245899
1539732264916444,-0.11041428244449536,-0.2515297169451438,-0.9840848401617457
1539732264932451,-0.12384222171358816,-0.2620279240100709,-0.9715114061188679
1539732264948458,-0.13348592355230027,-0.2637369344625009,-0.9706569008926529
1539732264964465,-0.13580529488059812,-0.25934233615625235,-0.9778591592278936
1539732264980472,-0.13873502708476382,-0.23993286030365457,-0.9790798809796293
1539732264996479,-0.13141069657434956,-0.22284275577935464,-0.9712672617685207
1539732265012486,-0.1135881589990082,-0.21747158007171752,-0.9623559929808501
1539732265028493,-0.10370031280994896,-0.22577248798352034,-0.9514915693904022
1539732265044500,-0.10333409628442825,-0.24469367513542384,-0.9356221866178376
1539732265060507,-0.1039444571602961,-0.2709391927977416,-0.9081559472037841
1539732265076514,-0.10626382848859395,-0.27411306935225443,-0.8932631418326085
1539732265092521,-0.10577553978789966,-0.28461127641718154,-0.901075761043717
1539732265108528,-0.11602960250247962,-0.25799954222934307,-0.9274433508812083
1539732265124535,-0.10260166323338682,-0.23370717936980245,-0.9500267032883194
1539732265140542,-0.10406652933546967,-0.2208896009765775,-0.9663843747615779
1539732265156549,-0.09674219882505541,-0.2263828488593882,-0.9694361791409172
1539732265172546,-0.09295796139467472,-0.23920042725261315,-0.9741969939726864
1539732265188553,-0.0867322804608226,-0.25421530479896237,-0.970046540016785
1539732265204560,-0.09246967269398043,-0.2558022430762188,-0.9600366216525522
1539732265220567,-0.08551155870908689,-0.2573891813534752,-0.9375753414206152
1539732265236574,-0.08441290913252475,-0.26813153276874946,-0.9231708247501333
1539732265252581,-0.09124895094224472,-0.28326848249027226,-0.9434348058289466
1539732265268588,-0.09332417792019543,-0.2985275043869686,-0.985427634088655
1539732265284595,-0.09881742580300612,-0.29974822613870433,-1.0204623483634698
1539732265300602,-0.10260166323338682,-0.30438696879530003,-1.028397039749752
1539732265316609,-0.10138094148165111,-0.2902265964751658,-1.0026398107881285
1539732265332615,-0.09820706492713827,-0.27862973983367656,-0.9478294041351951
1539732265348622,-0.10284580758373396,-0.25885404745555807,-0.8998550392919813
1539732265364629,-0.10528725108720538,-0.22919050888838033,-0.8828870069428549
1539732265380636,-0.09845120927748541,-0.2024567025253683,-0.9031509880216677
1539732265396643,-0.09991607537956826,-0.201968413824674,-0.9532005798428322
1539732265412650,-0.10247959105821325,-0.23504997329671173,-0.9947051194018464
1539732265428657,-0.09747463187609684,-0.2747234302281223,-1.0004425116350042
1539732265444664,-0.09674219882505541,-0.2976729991607536,-0.9949492637521935
1539732265460671,-0.08465705348287189,-0.29755092698558006,-0.988845654993515
1539732265476678,-0.08514534218356618,-0.29205767910276936,-0.9778591592278936
1539732265492706,-0.09137102311741829,-0.275089646753643,-0.9438010223544673
1539732265508713,-0.09503318837262542,-0.25848783093003735,-0.9135271229114212
1539732265524720,-0.09149309529259186,-0.238101777676051,-0.895094224460212
1539732265540727,-0.09283588921950114,-0.24310673685816742,-0.9082780193789577
1539732265556734,-0.0850232700083926,-0.25897611963073164,-0.9124284733348591
1539732265572741,-0.08575570305943403,-0.2890058747234301,-0.8983901731898984
1539732265588748,-0.09222552834363329,-0.31232166018158214,-0.8844739452201114
1539732265604755,-0.09356832227054257,-0.3108567940794993,-0.908766308079652
1539732265620761,-0.09100480659189758,-0.29755092698558006,-0.9532005798428322
1539732265636768,-0.09246967269398043,-0.27240405889982444,-0.9944609750514992
1539732265652775,-0.09222552834363329,-0.2675211718928816,-0.9939726863508049
1539732265668782,-0.08892957961394687,-0.27032883192187374,-0.9695582513160907
1539732265684789,-0.09137102311741829,-0.2766765850308994,-0.9383077744716566
1539732265700796,-0.0905165178912033,-0.29547570000762935,-0.9209735255970091
1539732265716803,-0.09222552834363329,-0.31329823758297115,-0.9322041657129776
1539732265732810,-0.08770885786221116,-0.3134203097581447,-0.9434348058289466
1539732265748817,-0.08685435263599617,-0.29669642175936506,-0.950148775463493
1539732265764824,-0.08270389868009476,-0.276798657206073,-0.9447775997558558
1539732265780831,-0.0812390325780119,-0.26642252231631947,-0.9333028152895397
1539732265796838,-0.08014038300144977,-0.28278019378957797,-0.9174334325169755
1539732265812835,-0.08050659952697048,-0.29510948348210864,-0.9259784847791255
1539732265828842,-0.08062867170214405,-0.31024643320363143,-0.9457541771572444
1539732265844849,-0.08136110475318548,-0.3206225680933854,-0.9597924773022051
1539732265860856,-0.07550164034485407,-0.32709239337758467,-0.9463645380331123
1539732265876863,-0.07476920729381265,-0.31097886625467286,-0.9328145265888454
1539732265892870,-0.07403677424277122,-0.2976729991607536,-0.9265888456549933
1539732265908877,-0.0733043411917298,-0.29205767910276936,-0.9319600213626305
1539732265924884,-0.07525749599450693,-0.3036545357442586,-0.9353780422674904
1539732265940891,-0.07904173342488763,-0.3172045471885254,-0.9389181353475244
1539732265956898,-0.08368047608148332,-0.317326619363699,-0.9402609292744337
1539732265972905,-0.08709849698634331,-0.308659494926375,-0.9387960631723509
1539732265988912,-0.092591744869154,-0.2938887617303729,-0.9347676813916226
1539732266004919,-0.0888075074387733,-0.2843671320668344,-0.9340352483405812
1539732266020926,-0.08331425955596261,-0.28619821469443796,-0.9365987640192261
1539732266036933,-0.08404669260700404,-0.30341039139391146,-0.9333028152895397
1539732266052940,-0.0850232700083926,-0.3277027542534525,-0.9389181353475244
1539732266068946,-0.0800183108262762,-0.3345387960631725,-0.9478294041351951
1539732266084953,-0.07904173342488763,-0.3159838254367897,-0.9558861676966508
1539732266100960,-0.07696650644693692,-0.2982833600366215,-0.9556420233463037
1539732266116967,-0.07354848554207694,-0.2936446173800258,-0.9439230945296408
1539732266132965,-0.07953002212558191,-0.2804608224612801,-0.9309834439612419
1539732266148972,-0.08099488822766476,-0.29303425650415793,-0.9367208361943997
1539732266164979,-0.08221560997940047,-0.3045090409704736,-0.9395284962233923
1539732266180986,-0.08722056916151688,-0.3081712062256807,-0.9330586709391926
1539732266196992,-0.08270389868009476,-0.32135500114442683,-0.9090104524299991
1539732266212999,-0.07464713511863907,-0.3245288776989397,-0.9004654001678492
1539732266229006,-0.07464713511863907,-0.32721446555275824,-0.9167009994659341
1539732266245013,-0.10089265278095683,-0.33173113603418036,-0.8721446555275807
1539732266261020,-0.07708857862211049,-0.29925993743801005,-0.9031509880216677
1539732266277027,-0.06305027847714983,-0.31586175326161614,-0.941603723201343
1539732266293034,-0.06732280460822482,-0.3698176546883345,-0.9536888685435265
1539732266309041,-0.06512550545510054,-0.36884107728694593,-0.9234149691004805
1539732266325048,-0.07061875333791123,-0.37885099565117875,-0.8979018844892042
1539732266341055,-0.07000839246204338,-0.3920347905699244,-0.901075761043717
1539732266357062,-0.07574578469520121,-0.381048294804303,-0.9197528038452734
1539732266373069,-0.08575570305943403,-0.3799496452277409,-0.9198748760204469
1539732266389076,-0.0896620126649883,-0.3550469214923324,-0.9234149691004805
1539732266405083,-0.0850232700083926,-0.3302662699320975,-0.9251239795529105
1539732266421090,-0.09027237354085615,-0.3079270618753336,-0.9331807431143662
1539732266437097,-0.09417868314641042,-0.3003585870145722,-0.940749217975128
1539732266453094,-0.0888075074387733,-0.3065842679484243,-0.939040207522698
1539732266469101,-0.09076066224155044,-0.313054093232624,-0.9308613717860683
1539732266485108,-0.0850232700083926,-0.3135423819333183,-0.9281757839322498
1539732266501115,-0.08233768215457404,-0.314763103685054,-0.9181658655680169
1539732266517122,-0.0829480430304419,-0.3014572365911343,-0.9296406500343326
1539732266533129,-0.08831921873807902,-0.30768291752498644,-0.9376974135957887
1539732266549136,-0.09246967269398043,-0.33051041428244465,-0.9315938048371097
1539732266565143,-0.08514534218356618,-0.34100862134737175,-0.9163347829404134
1539732266581150,-0.09759670405127041,-0.3336842908369575,-0.9177996490424962
1539732266597157,-0.09210345616845972,-0.313908598458839,-0.9345235370412754
1539732266613164,-0.1098039215686275,-0.30634012359807716,-0.9507591363393608
1539732266629171,-0.09491111619745185,-0.29340047302967864,-0.938185702296483
1539732266645177,-0.07354848554207694,-0.27277027542534515,-0.9307392996108947
1539732266661184,-0.06256198977645555,-0.2721599145494773,-0.9389181353475244
1539732266677191,-0.08343633173113618,-0.2796063172350651,-0.9446555275806823
1539732266693198,-0.09832913710231184,-0.30853742275120144,-0.9429465171282523
1539732266709205,-0.08014038300144977,-0.33173113603418036,-0.932936598764019
1539732266725212,-0.07708857862211049,-0.3323414969100482,-0.9248798352025633
1539732266741219,-0.08111696040283833,-0.3119554436560614,-0.9123064011596855
1539732266757226,-0.08270389868009476,-0.30609597924773,-0.9094987411306934
1539732266773254,-0.08819714656290545,-0.30463111314564717,-0.9318379491874569
1539732266789261,-0.09246967269398043,-0.3168383306630047,-0.9423361562523844
1539732266805268,-0.09234760051880686,-0.3386892500190739,-0.9322041657129776
1539732266821275,-0.10174715800717182,-0.34320592050049603,-0.9132829785610741
1539732266837282,-0.09491111619745185,-0.33380636301213107,-0.912184328984512
1539732266853289,-0.08490119783321903,-0.3396658274204625,-0.9359884031433583
1539732266869296,-0.09198138399328615,-0.3471122301060503,-0.9477073319600215
1539732266885303,-0.09991607537956826,-0.3660334172579538,-0.9220721751735712
1539732266901310,-0.10711833371480894,-0.392156862745098,-0.8761730373083085
1539732266917317,-0.09308003356984829,-0.35577935454337384,-0.8885023270008392
1539732266933323,-0.09784084840161755,-0.352605477988861,-0.9440451667048144
1539732266949330,-0.09906157015335326,-0.34564736400396745,-0.9907988097962921
1539732266965337,-0.08917372396429402,-0.3808041504539559,-0.9466086823834594
1539732266981344,-0.09039444571602973,-0.39935912108033866,-0.8676279850461586
1539732266997351,-0.1018692301823454,-0.4198672465094986,-0.8051270313572898
1539732267013358,-0.08612191958495474,-0.39386587319752797,-0.8435797665369651
1539732267029365,-0.1098039215686275,-0.36749828336003665,-0.9033951323720149
1539732267045372,-0.09417868314641042,-0.3676203555352102,-0.9304951552605476
1539732267061379,-0.094300755321584,-0.40192263675898365,-0.8991226062409399
1539732267077386,-0.091737239642939,-0.4357366292820628,-0.8593270771343557
1539732267093414,-0.08111696040283833,-0.47907225146868093,-0.842481116960403
1539732267109421,-0.08490119783321903,-0.5430380712596321,-0.8292973220416573
1539732267125428,-0.0820935378042269,-0.5531700617990385,-0.8355230029755094
1539732267141435,-0.059632257572289404,-0.6154268711375601,-0.7956054016937513
1539732267157442,-0.07476920729381265,-0.6269016556038758,-0.7782711528191042
1539732267173449,-0.08221560997940047,-0.6481422140840771,-0.7672846570534828
1539732267189456,-0.04351873044937804,-0.6749980926222627,-0.7350576028076601
1539732267205463,-0.046692607003890885,-0.6854962996871898,-0.716868848706798
1539732267221470,-0.03436331731136022,-0.6779278248264284,-0.7113756008239873
1539732267237476,-0.05951018539711583,-0.7036850537880524,-0.6977035172045474
1539732267253483,-0.03595025558861664,-0.7193102922102694,-0.7006332494087131
1539732267269490,-0.039002059967955915,-0.7287098496986344,-0.6928206301976045
1539732267285497,-0.03399710078583951,-0.6973373006790267,-0.6688944838635842
1539732267301504,-0.06744487678339839,-0.6922102693217367,-0.6437476157778286
1539732267317511,-0.06268406195162912,-0.7207751583123523,-0.6455786984054321
1539732267333518,-0.05365072098878443,-0.783154039826047,-0.6593728542000457
1539732267349525,-0.05487144274052014,-0.7862058442053863,-0.6643778133821621
1539732267365532,-0.06512550545510054,-0.7760738536659799,-0.63593499656672
1539732267381539,-0.06378271152819126,-0.7534905012588693,-0.6228732738231479
1539732267397546,-0.07721065079728406,-0.7183337148088809,-0.65644312199588
1539732267413543,-0.0657358663309684,-0.7575188830395971,-0.6726787212939649
1539732267429550,-0.04608224612802303,-0.7794918745708399,-0.676340886549172
1539732267445557,-0.05255207141222229,-0.7849851224536506,-0.6373998626688029
1539732267461564,-0.04644846265354374,-0.7919432364385441,-0.5839322499427788
1539732267477571,-0.03143358510719452,-0.8079346913862819,-0.5612268253604942
1539732267493578,-0.04779125658045302,-0.8200198367284659,-0.5525597009231706
1539732267509585,-0.04339665827420447,-0.8369878690775923,-0.5355916685740443
1539732267525592,-0.03143358510719452,-0.8595712214847029,-0.5125200274662394
1539732267541599,-0.035217822537575216,-0.8722667277027543,-0.4843213550011445
1539732267557606,-0.0394903486686502,-0.8704356450751507,-0.4540474555580989
1539732267573613,-0.041443503471427334,-0.8814221408407721,-0.40570687418936435
1539732267589620,-0.04718089570458517,-0.9047379262989241,-0.37970550087739374
1539732267605627,-0.04254215304798947,-0.9258564126039519,-0.3705500877393759
1539732267621634,-0.046570534828717314,-0.943312733653773,-0.38226901655603873
1539732267637641,-0.036316472114137355,-0.9619897764553293,-0.3803158617532616
1539732267653648,-0.03680476081483164,-0.9600366216525522,-0.35858701457236597
1539732267669654,-0.03997863736934448,-0.931227588311589,-0.33673609521629677
1539732267685661,-0.03265430685893023,-0.907911802853437,-0.32220950637064183
1539732267701668,-0.03045700770580595,-0.906202792401007,-0.3252613107499811
1539732267717675,-0.025696192874036683,-0.9309834439612419,-0.3407644769970246
1539732267733703,-0.028625925078202386,-0.9453879606317237,-0.3606622415503167
1539732267749710,-0.054505226214999425,-0.9455100328068973,-0.3476005188067446
1539732267765717,-0.03973449301899734,-0.9287861448081176,-0.32172121766994755
1539732267781724,-0.03350881208514522,-0.9190203707942319,-0.30609597924773
1539732267797731,-0.035217822537575216,-0.9282978561074233,-0.30560769054703574
1539732267813738,-0.04180971999694805,-0.9451438162813766,-0.3124437323567557
1539732267829745,-0.031189440756847375,-0.9685816739147022,-0.3031662470435643
1539732267845752,-0.03155565728236809,-0.9816433966582743,-0.270817120622568
1539732267861759,-0.03839169909208806,-0.9716334782940415,-0.23663691157396816
1539732267877766,-0.034973678187228074,-0.9727321278706036,-0.2108796826123447
1539732267893773,-0.0289921416037231,-0.9971465629053178,-0.1990386816205083
1539732267909780,-0.029846646829938095,-0.9993438620584421,-0.19330128938735047
1539732267925787,-0.031189440756847375,-0.9956816968032349,-0.16827649347676799
1539732267941794,-0.03607232776379021,-0.9773708705271993,-0.14776836804760807
1539732267957800,-0.03692683299000521,-0.9617456321049822,-0.13934538796063167
1539732267973807,-0.03790341039139378,-0.9661402304112308,-0.13910124361028453
1539732267989814,-0.03692683299000521,-1.0012970168612192,-0.14654764629587236
1539732268005821,-0.031189440756847375,-1.0142366674296177,-0.15448233768215447
1539732268021828,-0.04229800869764233,-1.0216830701152055,-0.13006790264744028
1539732268037835,-0.044129091325245895,-0.9903105210955978,-0.10370031280994896
1539732268053833,-0.028747997253375956,-0.9711451895933472,-0.08270389868009476
1539732268069840,-0.0357061112382695,-0.9839627679865721,-0.08453498130769832
1539732268085847,-0.03411917296101308,-1.0020294499122606,-0.09478904402227828
1539732268101853,-0.016784924086366004,-1.029251544975967,-0.07733272297245763
1539732268117860,-0.021057450217440987,-1.0251010910200655,-0.057312886243991557
1539732268133867,-0.015442130159456724,-1.012161440451667,-0.02911421377889667
1539732268149874,-0.019104295414663852,-0.9966582742046235,-0.009582665751125319
1539732268165881,-0.024841687647821686,-0.9807888914320593,0.011291676203555312
1539732268181888,-0.030945296406500233,-0.9857938506141757,0.03033493553063238
1539732268197895,-0.02252231631952384,-1.0183871213855191,0.038879987792782345
1539732268213902,-0.011779964904249596,-1.0305943389028762,0.02398718242160669
1539732268229909,-0.02642862592507811,-1.0240024414435034,0.025696192874036683
1539732268245916,-0.021911955443655984,-1.0150911726558327,0.08136110475318503
1539732268261923,-0.025085831998168828,-0.9647974364843215,0.10748455024032921
1539732268277930,-0.02911421377889667,-0.9992217898832685,0.13470664530403642
1539732268293937,-0.011413748378728883,-1.0227817196917677,0.14715800717174066
1539732268309944,-0.014099336232547444,-1.0082551308461127,0.16156252384222203
1539732268325951,-0.024719615472648115,-0.9798123140306707,0.1771877622644391
1539732268341958,-0.024841687647821686,-0.9687037460898758,0.19757381551842546
1539732268357965,-0.02923628595407024,-0.9677271686884872,0.1868314641031512
1539732268373962,-0.022156099794003126,-0.9895780880445564,0.16400396734569345
1539732268389969,-0.026062409399557396,-1.0366979476615548,0.15606927595941134
1539732268405976,-0.031067368581673804,-1.042313267719539,0.14886701762417065
1539732268421983,-0.044129091325245895,-0.9944609750514992,0.14471656366826924
1539732268437990,-0.033875028610665936,-1.0026398107881285,0.15191882200350992
1539732268453997,-0.0109254596780346,-0.9322041657129776,0.13177691309987072
1539732268470004,-0.018127718013275285,-0.9844510566872664,0.13043411917296144
1539732268486011,0.00836194399938961,-1.0511024643320361,0.14972152285038565
1539732268502018,-0.014709697108415298,-1.031204699778744,0.14874494544899708
1539732268518025,-0.02911421377889667,-0.9741969939726864,0.1768215457389184
1539732268534031,-0.027161058976119534,-0.9636987869077593,0.21356527046616325
1539732268550038,-0.010559243152513886,-0.9920195315480278,0.2680094605935759
1539732268566045,-0.015075913633936011,-1.013015945677882,0.2999923704890515
1539732268582052,-0.0109254596780346,-0.9950713359273671,0.30341039139391146
1539732268598059,-0.01861600671396957,-0.9558861676966508,0.3082932784008543
1539732268614066,-0.015930418860151008,-0.9285420004577705,0.3309987029831385
1539732268630073,-0.018249790188448856,-0.9145037003128098,0.36774242771038335
1539732268646080,-0.004943923094529623,-0.9334248874647133,0.42023346303501974
1539732268662087,-0.013000686655985305,-0.9379415579461359,0.4312199588006411
1539732268678094,-0.017639429312581,-0.9356221866178376,0.42279697871366473
1539732268694091,-0.006652933546959616,-0.9228046082246126,0.4174258030060276
1539732268710098,-0.006897077897306758,-0.9134050507362477,0.4251163500419626
1539732268726105,-0.002868696116578917,-0.9030289158464941,0.4422064545662625
1539732268742112,-0.006775005722133187,-0.8816662851911192,0.4691844052796217
1539732268758119,-0.0038452735179674846,-0.86665140764477,0.5210650797283893
1539732268774126,-0.010681315327687457,-0.8568856336308843,0.5557335774776835
1539732268790133,-0.01483176928358887,-0.824536507209888,0.5639124132143127
1539732268806140,-0.012024109254596738,-0.8112306401159683,0.5716029602502477
1539732268822147,-0.001037613488975353,-0.8057373922331577,0.5884489204242005
1539732268838154,7.934691386282111E-4,-0.8222171358815902,0.601388570992599
1539732268854161,0.01495384145876244,-0.8549324788281072,0.6110322728313111
1539732268870168,-0.00970473792629889,-0.86152437628748,0.6105439841306168
1539732268886175,-0.025085831998168828,-0.8444342717631801,0.6183566033417254
1539732268902182,-0.023743038071259548,-0.8096437018387119,0.6288548104066534
1539732268918189,-0.024963759822995257,-0.7638666361486228,0.6450904097047383
1539732268934196,-0.019226367589837423,-0.7437247272449836,0.6680399786373696
1539732268950203,-0.015442130159456724,-0.761547264820325,0.6751201647974368
1539732268966210,-0.007873655298695326,-0.7676508735790035,0.6746318760967425
1539732268982216,-0.02789349202716096,-0.7558098725871671,0.6768291752498667
1539732268998223,-0.0386358434424352,-0.7290760662241551,0.6736552986953539
1539732269014251,-0.010803387502861028,-0.7381094071869994,0.6906233310444803
1539732269030258,-0.014099336232547444,-0.7493400473029679,0.7135728999771116
1539732269046265,-0.02130159456778813,-0.7505607690547036,0.7399404898146029
1539732269062272,-0.05157549401083372,-0.7046616311894409,0.7421377889677272
1539732269078279,-0.06158541237506654,-0.6625467307545585,0.7285877775234608
1539732269094286,-0.03924620431830306,-0.6647440299076828,0.7233386739909973
1539732269110293,-0.027283131151293105,-0.6912336919203481,0.7449454489967193
1539732269126300,-0.032532234683756656,-0.7166247043564509,0.7492179751277943
1539732269142307,-0.0604867627985044,-0.6911116197451745,0.7257801174944687
1539732269158314,-0.06512550545510054,-0.6624246585793849,0.708323796444648
1539732269174321,-0.039124132143129486,-0.6366674296177615,0.7252918287937744
1539732269190328,-0.02264438849469741,-0.6228732738231479,0.7680170901045242
1539732269206335,-0.01226825360494388,-0.6341039139391165,0.8114747844663155
1539732269222342,-0.01629663538567172,-0.671213855191882,0.8134279392690926
1539732269238349,-0.019470511940184565,-0.7036850537880524,0.7738765545128556
1539732269254356,-0.017273212787060288,-0.7223620965896087,0.7387197680628672
1539732269270362,-0.015197985809109582,-0.7473868925001907,0.7278553444724194
1539732269286369,-0.05389486533913157,-0.6455786984054321,0.7287098496986344
1539732269302376,-0.019104295414663852,-0.6505836575875485,0.6811017013809417
1539732269318383,-0.030945296406500233,-0.675486381322957,0.6559548332951861
1539732269334381,-0.06341649500267055,-0.686594949263752,0.7526359960326543
1539732269350388,-0.06158541237506654,-0.6204318303196765,0.8224612802319369
1539732269366395,-0.055970092317082276,-0.5127641718165865,0.8933852140077825
1539732269382402,-0.04437323567559304,-0.4447699702449075,0.945021744106203
1539732269398409,-0.06195162890058725,-0.3856870374608987,0.9392843518730452
1539732269414415,-0.07415884641794479,-0.3631036850537881,0.9259784847791259
1539732269430422,-0.06793316548409267,-0.40326543068589293,0.9234149691004809
1539732269446429,-0.07464713511863907,-0.43988708323796466,0.9053482871747924
1539732269462436,-0.05120927748531301,-0.47980468451972236,0.8343022812237733
1539732269478443,-0.07891966124971406,-0.5200885023270008,0.8538338292515446
1539732269494450,-0.045349813076981604,-0.555855649652857,0.8635996032654303
1539732269510457,-0.06414892805371197,-0.5901579308766309,0.8694590676737617
1539732269526464,-0.058533607995727266,-0.6187228198672465,0.8446784161135268
1539732269542471,-0.06500343327992697,-0.6144502937361715,0.7990234225986113
1539732269558478,-0.06012054627298369,-0.5946746013580531,0.7719233997100785
1539732269574485,-0.07196154726482051,-0.5794155794613567,0.7902342259861141
1539732269590492,-0.0695201037613491,-0.5791714351110095,0.8607919432364382
1539732269606499,-0.015686274509803866,-0.7052719920653088,0.8809338521400782
1539732269622506,-0.06598001068131554,-0.6477759975585564,0.8333257038223847
1539732269638513,-0.0575570305943387,-0.6702372777904935,0.7769283588921949
1539732269654510,-0.0613412680247194,-0.7138170443274587,0.7533684290836957
1539732269670517,-0.058533607995727266,-0.7017318989852752,0.7593499656672007
1539732269686524,-0.05474937056534657,-0.6587624933241778,0.7880369268329899
1539732269702531,-0.032532234683756656,-0.6289768825818265,0.8328374151216904
1539732269718538,-0.07171740291447337,-0.6094453345540551,0.876173037308309
1539732269734545,-0.08111696040283833,-0.585030899519341,0.8765392538338297
1539732269750552,-0.09185931181811258,-0.5193560692759593,0.8653086137178603
1539732269766559,-0.10638590066376752,-0.455146105134661,0.8827649347676818
1539732269782566,-0.0850232700083926,-0.39313344014648655,0.9175555046921495
1539732269798573,-0.07342641336690336,-0.34979781795986886,0.9707789730678265
1539732269814580,-0.10626382848859395,-0.32635996032654324,0.9577172503242544
1539732269830587,-0.10699626153963537,-0.2898603799496451,0.9517357137407494
1539732269846593,-0.08831921873807902,-0.274235141527428,0.9585717555504694
1539732269862600,-0.08892957961394687,-0.25848783093003735,0.9699244678416115
1539732269878607,-0.06634622720683625,-0.2537270160982681,0.9781033035782407
1539732269894614,-0.053284504463263715,-0.24872205691615168,0.9886015106431678
1539732269910621,-0.07220569161516766,-0.2565346761272602,0.9877470054169528
1539732269926628,-0.10370031280994896,-0.27191577019913016,0.9900663767452507
1539732269942635,-0.07293812466620908,-0.27948424505989156,0.9612573434042879
1539732269958642,-0.11663996337834748,-0.31097886625467286,0.9842069123369193
1539732269974670,-0.09845120927748541,-0.33722438391699106,0.9878690775921264
1539732269990677,-0.08697642481116974,-0.350041962310216,0.9566186007476922
1539732270006684,-0.040222781719691625,-0.3391775387197682,0.9340352483405816
1539732270022691,-0.09503318837262542,-0.3761654077973602,0.942458228427558
1539732270038698,-0.06903181506065481,-0.4185244525825893,0.9617456321049822
1539732270054705,-0.06878767071030767,-0.43866636148622895,0.9494163424124515
1539732270070712,-0.06524757763027411,-0.46002899214160387,0.9187762264438852
1539732270086719,-0.0657358663309684,-0.4469672693980318,0.8942397192339975
1539732270102726,-0.04888990615701516,-0.42059967956054,0.8991226062409403
1539732270118733,-0.06060883497367797,-0.38727397573815514,0.9197528038452738
1539732270134740,-0.07061875333791123,-0.3369802395666439,0.9533226520180058
1539732270150746,-0.09747463187609684,-0.2747234302281223,0.980300602731365
1539732270166753,-0.12799267566948958,-0.1952544441901276,0.9532005798428322
1539732270182760,-0.08636606393530188,-0.0993057145037004,0.98286411841001
1539732270198767,-0.09149309529259186,-0.12152285038529032,1.034622720683604
1539732270214774,-0.10199130235751896,-0.13495078965438312,1.055130846112764
1539732270230781,-0.08526741435873975,-0.1820706492713815,1.044022278171969
1539732270246788,-0.08160524910353262,-0.29120317387655437,0.9948271915770199
1539732270262795,-0.0820935378042269,-0.38422217135881587,0.9215838864728774
1539732270278802,-0.0733043411917298,-0.462836652170596,0.8864271000228889
1539732270294830,-0.0858777752346076,-0.4863965819790952,0.8883802548256661
1539732270310837,-0.092591744869154,-0.500679026474403,0.9256122682536052
1539732270326844,-0.10382238498512253,-0.4796826123445488,0.9447775997558558
1539732270342851,-0.08783093003738474,-0.3992370489051651,0.9396505683985659
1539732270358858,-0.07391470206759765,-0.30511940184634145,0.951857785915923
1539732270374865,-0.07818722819867263,-0.23968871595330743,0.9779812314030671
1539732270390872,-0.09784084840161755,-0.22198825055313964,1.0109407186999313
1539732270406879,-0.08990615701533544,-0.2112458991378654,1.0192416266117341
1539732270422886,-0.07415884641794479,-0.21234454871442754,0.988845654993515
1539732270438892,-0.08343633173113618,-0.2280918593118182,0.9765163653009843
1539732270454899,-0.09076066224155044,-0.2456702525368124,0.9636987869077593
1539732270470906,-0.10931563286793322,-0.24689097428854812,0.9577172503242544
1539732270486913,-0.10467689021133753,-0.2766765850308994,0.9844510566872664
1539732270502920,-0.11114671549553679,-0.31293202105745044,0.9958037689784085
1539732270518927,-0.12420843823910888,-0.33429465171282535,0.9818875410086214
1539732270534934,-0.12079041733424889,-0.33002212558175037,0.9723659113450829
1539732270550941,-0.11090257114518964,-0.2915693904020751,0.9740749217975129
1539732270566948,-0.09820706492713827,-0.22858014801251247,0.9872587167162585
1539732270582955,-0.09869535362783255,-0.18304722667277007,0.9992217898832685
1539732270598962,-0.09747463187609684,-0.17865262836652152,1.009597924773022
1539732270614959,-0.1173723964293889,-0.1808499275196458,0.9910429541466392
1539732270630966,-0.13311970702677955,-0.17096208133058655,0.9729762722209507
1539732270646973,-0.13018997482261385,-0.17303730830853725,0.9771267261768521
1539732270662980,-0.12970168612191957,-0.19000534065766406,0.9906767376211185
1539732270678987,-0.11627374685282676,-0.20721751735713756,1.014724956130312
1539732270694994,-0.11602960250247962,-0.19647516594186332,1.0099641412985427
1539732270711001,-0.10345616845960182,-0.16241702906843658,1.0054474708171206
1539732270727008,-0.10028229190508897,-0.12518501564049744,1.0080109864957656
1539732270743015,-0.10711833371480894,-0.09332417792019543,1.018142977035172
1539732270759022,-0.11346608682383463,-0.08404669260700404,1.031815060654612
1539732270775029,-0.12677195391775387,-0.09674219882505541,1.0233920805676355
1539732270791036,-0.1211566338597696,-0.12420843823910888,1.0135042343785763
1539732270807043,-0.11798275730525676,-0.13995574883649953,1.0034943160143435
1539732270823050,-0.11920347905699247,-0.1543602655069809,0.9907988097962921
1539732270839057,-0.12335393301289388,-0.1564354924849316,0.9933623254749371
1539732270855064,-0.12347600518806745,-0.15130846112764162,0.9945830472266728
1539732270871070,-0.12823682001983672,-0.13934538796063167,0.9906767376211185
1539732270887077,-0.13348592355230027,-0.10870527199206537,0.9859159227893493
1539732270903084,-0.1165178912031739,-0.08905165178912045,1.0093537804226749
1539732270919091,-0.10968184939345393,-0.06207370107576082,1.0158236057068741
1539732270935089,-0.1039444571602961,-0.044007019150072324,1.0111848630502784
1539732270951096,-0.11322194247348749,-0.03717097734035235,1.0227817196917677
1539732270967103,-0.11688410772869462,-0.04596017395284946,1.0264438849469748
1539732270983110,-0.17084000915541298,-0.11004806591897465,1.0515907530327304
