Timestamp (microseconds),Gyro X (°/s),Gyro Y (°/s),Gyro Z (°/s)
1539732246284637,76.32562752727563,-1.8005645838102282,0.213626306553806
1539732246300638,41.8402380407415,-4.364080262455218,6.256198977645454
1539732246316640,9.124895094224485,-9.308003356984727,10.223544670786623
1539732246332641,4.303044174868319,-9.613183794918768,13.946746013580423
1539732246348642,-5.95101853971164,-12.603952086671143,15.716792553597315
1539732246364643,-6.256198977645454,-14.80125123979542,15.045395590142562
1539732246380644,0.3967345693140487,-14.92332341496899,13.64156557564661
1539732246396646,4.180971999694748,-14.557106889448278,10.833905546654478
1539732246412647,27.86297398336751,-7.721065079728305,4.486152437628789
1539732246428648,37.75082017242676,1.6174563210497581,-2.227817196917613
1539732246444649,31.403067063401068,8.270389868009488,-7.660028992141633
1539732246460651,37.811856260013656,14.862287327382319,-9.979400320439481
1539732246476652,28.107118333714652,16.2050812542916,-7.904173342488775
1539732246492653,4.303044174868319,13.275349050125897,-4.852368963149502
1539732246508654,3.2654306858930795,11.749446860456146,-2.8381780727854675
1539732246524655,15.533684290836845,12.4208438239109,-2.410925459678083
1539732246540657,18.95170519569683,10.833905546654478,-2.4719615472647547
1539732246556658,32.92896925307082,9.185931181811156,-3.692683299000464
1539732246572659,56.24475471122287,10.101472495613052,-6.622415503166167
1539732246588660,68.8181887541009,12.970168612191856,-11.20012207217519
1539732246604675,67.04814221408424,15.655756466010416,-13.336385137712568
1539732246620676,54.169527733271934,15.655756466010416,-11.01701380941472
1539732246636677,36.591134508277946,14.862287327382319,-6.317235065232353
1539732246652679,24.444953078507524,15.045395590142562,-2.3498893720911838
1539732246668680,17.54787518120088,15.10643167772946,-0.03051804379333589
1539732246684681,17.120622568093268,13.275349050125897,2.7161058976118966
1539732246700682,15.411612115663274,10.162508583199724,6.683451590753066
1539732246716683,13.336385137712568,8.45349813076973,11.07804989700162
1539732246732685,14.373998626688035,8.758678568703772,13.824673838406852
1539732246748686,20.538643472953254,9.430075532158298,12.542915999084471
1539732246764687,21.759365224688963,8.51453421835663,9.491111619745197
1539732246780688,15.350576028076603,6.9886320286868795,7.598992904554734
1539732246796690,7.721065079728305,5.096513313496644,6.927595941100208
1539732246812691,0.5798428320745188,2.532997634851654,5.523765926604028
1539732246828692,0.15259021896690683,1.1902037079423735,2.8381780727854675
1539732246844693,5.0354772259097444,1.3733119707026162,-0.03051804379333589
1539732246860695,9.55214770733187,1.2512397955290453,-1.8005645838102282
1539732246876696,7.660028992141633,0.33569848172737693,-1.3122758831159445
1539732246892697,2.288853284504512,0.45777065690094787,0.5188067444876197
1539732246908698,-4.119935912108076,1.739528496223329,2.7161058976118966
1539732246924682,-9.063859006637585,3.3264667734797513,4.058899824521177
1539732246940683,-11.20012207217519,3.5095750362402214,4.180971999694748
1539732246956685,-7.782101167315204,1.8616006713969,4.119935912108076
1539732246972686,0.03051804379333589,-0.15259021896690683,4.242008087281647
1539732246988687,5.889982452124741,-1.1902037079423735,4.303044174868319
1539732247004688,7.232776379034021,-0.8850232700083325,4.486152437628789
1539732247020690,6.195162890058782,-0.03051804379333589,4.486152437628789
1539732247036691,6.134126802471883,0.213626306553806,4.547188525215461
1539732247052692,3.7537193865873633,-0.2746623941404778,3.997863736934505
1539732247068693,-0.45777065690094787,-0.213626306553806,2.7771419851987957
1539732247084694,-1.8616006713969,0.8850232700083325,1.6174563210497581
1539732247100696,2.04470893415737,2.3498893720911838,1.3733119707026162
1539732247116697,5.828946364538069,2.7771419851987957,2.105745021744042
1539732247132698,3.7537193865873633,2.105745021744042,3.5095750362402214
1539732247148699,-2.532997634851654,1.3122758831159445,4.791332875562603
1539732247164701,-7.537956816968062,1.4343480582895154,5.3406576638437855
1539732247180702,-6.683451590753066,1.6174563210497581,4.9134050507361735
1539732247196703,-2.7771419851987957,1.0681315327688026,4.303044174868319
1539732247212704,2.166781109330941,0.7629510948347615,2.5940337224383256
1539732247228706,7.232776379034021,1.4343480582895154,0.15259021896690683
1539732247244781,10.040436408026153,2.166781109330941,-1.739528496223329
1539732247260783,9.002822919050914,1.8005645838102282,-2.7771419851987957
1539732247276785,5.889982452124741,0.8239871824216607,-3.5095750362402214
1539732247292786,3.0212863355459376,-0.09155413138023505,-4.303044174868319
1539732247308788,4.303044174868319,-0.45777065690094787,-4.9134050507361735
1539732247324790,9.55214770733187,-0.45777065690094787,-5.462729839017356
1539732247340791,13.397421225299468,-0.5188067444876197,-5.76791027695117
1539732247356793,9.979400320439481,-1.0070954451819034,-4.669260700389032
1539732247372795,6.317235065232353,-1.0681315327688026,-2.7161058976118966
1539732247388796,6.195162890058782,-1.1902037079423735,-1.0070954451819034
1539732247404798,7.049668116273779,-1.6174563210497581,0.45777065690094787
1539732247420800,6.317235065232353,-1.8005645838102282,1.9226367589837992
1539732247436802,4.242008087281647,-1.6174563210497581,2.8992141603723667
1539732247452803,3.0212863355459376,-1.6174563210497581,4.058899824521177
1539732247468805,1.983672846570471,-1.983672846570471,5.0354772259097444
1539732247484807,-1.3122758831159445,-2.8992141603723667,5.523765926604028
1539732247500808,-3.0823224231326094,-3.936827649347606,5.645838101777599
1539732247516810,-2.655069810025225,-4.60822461280236,5.401693751430457
1539732247532812,-1.6174563210497581,-4.9134050507361735,4.974441138323073
1539732247548813,-1.8616006713969,-5.2185854886702145,4.791332875562603
1539732247564941,-2.4719615472647547,-5.279621576256886,4.9134050507361735
1539732247580943,-2.7771419851987957,-5.279621576256886,4.9134050507361735
1539732247596945,-1.5564202334630863,-5.157549401083315,4.730296787975931
1539732247612948,-3.7537193865873633,-4.9134050507361735,4.730296787975931
1539732247628950,-3.997863736934505,-4.119935912108076,5.279621576256886
1539732247644952,-3.1433585107195086,-3.814755474174035,6.012054627298312
1539732247660954,-1.739528496223329,-3.692683299000464,7.354848554207592
1539732247676956,-2.4719615472647547,-3.0212863355459376,9.430075532158298
1539732247692958,-3.3875028610666504,-1.8616006713969,11.810482948043045
1539732247708961,-4.791332875562603,-0.9460593575952316,13.824673838406852
1539732247724963,-7.537956816968062,-0.7019150072480898,15.045395590142562
1539732247740965,-9.979400320439481,-0.5188067444876197,15.472648203250174
1539732247756967,-11.993591210803288,-0.8239871824216607,15.289539940489703
1539732247772969,-12.664988174258042,-1.8005645838102282,14.373998626688035
1539732247788972,-10.345616845960194,-2.532997634851654,12.603952086671143
1539732247804974,-5.584802014190927,-2.7771419851987957,10.284580758373295
1539732247820976,-1.1291676203554744,-2.4719615472647547,7.904173342488775
1539732247836978,1.0681315327688026,-1.4343480582895154,5.76791027695117
1539732247852980,1.3122758831159445,-0.33569848172737693,4.119935912108076
1539732247868982,-0.09155413138023505,0.7629510948347615,3.0212863355459376
1539732247885070,-3.0212863355459376,2.3498893720911838,1.8616006713969
1539732247901073,-3.875791561760934,4.119935912108076,0.3967345693140487
1539732247917075,4.242008087281647,6.500343327992596,-1.1291676203554744
1539732247933077,14.862287327382319,9.308003356984727,-1.5564202334630863
1539732247949079,17.303730830853738,11.749446860456146,0.33569848172737693
1539732247965081,10.711833371480907,12.787060349431613,4.547188525215461
1539732247981083,0.15259021896690683,12.542915999084471,9.613183794918768
1539732247997086,-8.697642481116873,11.383230334935433,13.519493400473038
1539732248013088,-6.012054627298312,9.73525597009234,15.289539940489703
1539732248029090,-1.3122758831159445,6.9886320286868795,14.373998626688035
1539732248045092,4.058899824521177,4.974441138323073,11.688410772869474
1539732248061094,11.139085984588291,4.364080262455218,9.491111619745197
1539732248077097,13.64156557564661,3.2654306858930795,8.209353780422589
1539732248093099,11.07804989700162,1.6784924086366573,7.537956816968062
1539732248109101,3.875791561760934,-0.15259021896690683,7.354848554207592
1539732248125103,-2.288853284504512,-1.983672846570471,6.9886320286868795
1539732248141105,-7.537956816968062,-4.242008087281647,6.256198977645454
1539732248157107,-7.965209430075447,-5.828946364538069,4.730296787975931
1539732248173110,-7.232776379034021,-6.683451590753066,2.5940337224383256
1539732248189112,-7.049668116273779,-6.9886320286868795,0.15259021896690683
1539732248205169,-5.096513313496644,-6.9886320286868795,-1.739528496223329
1539732248221172,-3.692683299000464,-6.622415503166167,-2.655069810025225
1539732248237175,-4.9134050507361735,-6.195162890058782,-2.4719615472647547
1539732248253177,-9.613183794918768,-6.073090714885211,-1.6784924086366573
1539732248269180,-14.007782101167322,-6.012054627298312,-0.8239871824216607
1539732248285183,-15.411612115663274,-5.889982452124741,-0.45777065690094787
1539732248301185,-11.444266422522333,-5.401693751430457,-1.3122758831159445
1539732248317188,-6.500343327992596,-4.669260700389032,-2.532997634851654
1539732248333191,-4.852368963149502,-3.570611123826893,-3.4485389486533222
1539732248349193,-4.364080262455218,-2.7771419851987957,-4.242008087281647
1539732248365196,-3.5095750362402214,-1.8616006713969,-4.547188525215461
1539732248381199,-3.2043945983061803,-1.0070954451819034,-4.9134050507361735
1539732248397201,-1.2512397955290453,-0.33569848172737693,-5.401693751430457
1539732248413204,-0.8850232700083325,-0.09155413138023505,-5.95101853971164
1539732248429206,-1.6784924086366573,-0.213626306553806,-6.683451590753066
1539732248445209,0.8239871824216607,-0.09155413138023505,-7.4158846417944915
1539732248461212,3.7537193865873633,-0.3967345693140487,-7.598992904554734
1539732248477214,2.4719615472647547,-1.1902037079423735,-7.049668116273779
1539732248493217,-0.8850232700083325,-2.227817196917613,-6.134126802471883
1539732248509220,-2.288853284504512,-3.2654306858930795,-5.462729839017356
1539732248525329,-1.2512397955290453,-3.997863736934505,-5.401693751430457
1539732248541332,3.6316472114137923,-4.180971999694748,-5.462729839017356
1539732248557335,7.17174029144735,-4.119935912108076,-4.974441138323073
1539732248573339,6.744487678339738,-3.692683299000464,-3.3875028610666504
1539732248589342,3.7537193865873633,-3.0823224231326094,-0.7629510948347615
1539732248605345,-0.7019150072480898,-2.5940337224383256,1.983672846570471
1539732248621348,-3.570611123826893,-2.3498893720911838,3.997863736934505
1539732248637351,-3.2654306858930795,-2.166781109330941,5.3406576638437855
1539732248653354,-1.2512397955290453,-2.04470893415737,6.134126802471883
1539732248669357,-1.0070954451819034,-2.166781109330941,6.561379415579495
1539732248685361,-1.983672846570471,-2.166781109330941,6.805523765926637
1539732248701364,-2.8381780727854675,-1.8005645838102282,7.049668116273779
1539732248717367,-2.8381780727854675,-1.2512397955290453,7.232776379034021
1539732248733370,-3.0212863355459376,-0.9460593575952316,6.9886320286868795
1539732248749373,-4.60822461280236,-0.6408789196611906,6.378271152819025
1539732248765376,-4.547188525215461,-0.213626306553806,5.157549401083315
1539732248781379,-3.2043945983061803,0.15259021896690683,3.814755474174035
1539732248797382,0.8850232700083325,0.5188067444876197,2.410925459678083
1539732248813386,5.645838101777599,1.0070954451819034,1.1902037079423735
1539732248829389,9.979400320439481,1.2512397955290453,0.5798428320745188
1539732248845489,12.481879911497572,1.5564202334630863,0.2746623941404778
1539732248861493,15.411612115663274,1.5564202334630863,-0.2746623941404778
1539732248877496,16.08300907911803,1.1902037079423735,-0.7019150072480898
1539732248893500,12.23773556115043,0.7019150072480898,-0.6408789196611906
1539732248909504,7.721065079728305,0.213626306553806,-0.213626306553806
1539732248925507,0.7019150072480898,-0.5798428320745188,0.7019150072480898
1539732248941511,-11.444266422522333,-1.6174563210497581,2.410925459678083
1539732248957514,-19.317921721217544,-2.4719615472647547,4.180971999694748
1539732248973518,-21.69832913710229,-2.8381780727854675,5.096513313496644
1539732248989522,-19.01274128328373,-2.655069810025225,5.0354772259097444
1539732249005525,-12.970168612191856,-2.4719615472647547,4.119935912108076
1539732249021529,-3.997863736934505,-2.105745021744042,2.8992141603723667
1539732249037532,4.058899824521177,-1.2512397955290453,1.739528496223329
1539732249053536,4.180971999694748,-0.8850232700083325,1.4953841458761872
1539732249069540,3.0212863355459376,-0.7629510948347615,2.288853284504512
1539732249085543,0.15259021896690683,-0.8239871824216607,3.570611123826893
1539732249101547,-5.645838101777599,-0.8850232700083325,4.486152437628789
1539732249117550,-8.45349813076973,-0.3967345693140487,4.852368963149502
1539732249133554,-9.430075532158298,-0.15259021896690683,4.364080262455218
1539732249149558,-8.941786831464015,-0.15259021896690683,3.570611123826893
1539732249165619,-4.9134050507361735,-0.09155413138023505,2.5940337224383256
1539732249181622,-1.2512397955290453,-0.213626306553806,1.8005645838102282
1539732249197626,-2.8381780727854675,-0.8239871824216607,1.4343480582895154
1539732249213629,-5.157549401083315,-1.2512397955290453,1.3733119707026162
1539732249229633,-5.3406576638437855,-1.3733119707026162,0.5798428320745188
1539732249245637,-3.997863736934505,-1.4953841458761872,-0.7019150072480898
1539732249261640,0.7629510948347615,-1.4343480582895154,-2.410925459678083
1539732249277644,4.852368963149502,-1.6174563210497581,-3.997863736934505
1539732249293647,5.889982452124741,-1.983672846570471,-4.974441138323073
1539732249309651,3.997863736934505,-2.410925459678083,-5.2185854886702145
1539732249325655,0.2746623941404778,-2.655069810025225,-4.974441138323073
1539732249341658,-3.7537193865873633,-2.9602502479590385,-4.60822461280236
1539732249357662,-6.8665598535133086,-3.1433585107195086,-4.669260700389032
1539732249373665,-6.134126802471883,-3.0212863355459376,-5.157549401083315
1539732249389669,-3.4485389486533222,-2.9602502479590385,-5.76791027695117
1539732249405673,-3.2654306858930795,-2.9602502479590385,-6.134126802471883
1539732249421676,-5.157549401083315,-2.9602502479590385,-6.073090714885211
1539732249437680,-6.012054627298312,-2.655069810025225,-5.523765926604028
1539732249453683,-5.95101853971164,-2.532997634851654,-5.3406576638437855
1539732249469687,-6.317235065232353,-2.5940337224383256,-5.645838101777599
1539732249485748,-5.645838101777599,-2.3498893720911838,-6.012054627298312
1539732249501752,-2.532997634851654,-1.983672846570471,-6.256198977645454
1539732249517756,0.15259021896690683,-1.6784924086366573,-6.317235065232353
1539732249533760,0.15259021896690683,-1.5564202334630863,-5.76791027695117
1539732249549764,-0.7629510948347615,-1.5564202334630863,-4.974441138323073
1539732249565768,-2.5940337224383256,-1.8616006713969,-4.242008087281647
1539732249581772,-3.936827649347606,-2.166781109330941,-3.7537193865873633
1539732249597777,-3.2043945983061803,-2.288853284504512,-3.4485389486533222
1539732249613781,1.3122758831159445,-2.532997634851654,-3.1433585107195086
1539732249629785,7.17174029144735,-2.8992141603723667,-2.7161058976118966
1539732249645789,13.519493400473038,-2.9602502479590385,-1.6174563210497581
1539732249661793,14.92332341496899,-3.7537193865873633,-0.5188067444876197
1539732249677797,18.82963302052326,-3.997863736934505,0.09155413138023505
1539732249693801,24.872205691615136,-3.3264667734797513,0.15259021896690683
1539732249709805,26.092927443350845,-2.04470893415737,-0.03051804379333589
1539732249725809,27.374685282673227,-0.33569848172737693,-0.33569848172737693
1539732249741813,25.665674830243233,0.15259021896690683,0.15259021896690683
1539732249757817,20.11139085984587,0.03051804379333589,0.8239871824216607
1539732249773821,12.603952086671143,0.09155413138023505,0.9460593575952316
1539732249789826,6.500343327992596,0.15259021896690683,1.1902037079423735
1539732249805877,3.2654306858930795,0.2746623941404778,1.4343480582895154
1539732249821881,6.805523765926637,1.0681315327688026,1.4953841458761872
1539732249837885,9.185931181811156,1.8616006713969,1.8005645838102282
1539732249853890,6.195162890058782,1.8005645838102282,2.3498893720911838
1539732249869894,13.885709925993751,1.6174563210497581,2.105745021744042
1539732249885898,19.562066071564686,2.227817196917613,0.8239871824216607
1539732249901902,12.115663385976859,2.5940337224383256,1.6174563210497581
1539732249917906,5.0354772259097444,2.5940337224383256,3.936827649347606
1539732249933910,-6.500343327992596,1.5564202334630863,6.927595941100208
1539732249949914,-10.711833371480907,2.655069810025225,8.819714656290444
1539732249965918,-7.598992904554734,3.4485389486533222,8.6366063935302
1539732249981922,-5.157549401083315,2.288853284504512,7.17174029144735
1539732249997926,-1.0681315327688026,1.739528496223329,5.706874189364498
1539732250013930,5.76791027695117,2.410925459678083,4.852368963149502
1539732250029935,15.228503852903032,3.5095750362402214,3.814755474174035
1539732250045939,21.087968261234437,4.42511635004189,1.983672846570471
1539732250061943,24.994277866788707,5.0354772259097444,-0.2746623941404778
1539732250077947,25.665674830243233,5.706874189364498,-2.166781109330941
1539732250093951,22.8580148012511,6.256198977645454,-2.7161058976118966
1539732250109955,21.210040436408008,6.195162890058782,-1.8616006713969
1539732250125976,13.214312962538997,4.486152437628789,-0.33569848172737693
1539732250141980,2.166781109330941,1.9226367589837992,1.0681315327688026
1539732250157984,0.5798428320745188,0.5188067444876197,1.6784924086366573
1539732250173988,1.0681315327688026,-0.3967345693140487,1.983672846570471
1539732250189993,4.730296787975931,-1.0070954451819034,3.1433585107195086
1539732250205997,10.406652933546866,-1.3733119707026162,4.486152437628789
1539732250222001,10.528725108720437,-2.655069810025225,5.2185854886702145
1539732250238005,12.115663385976859,-3.875791561760934,5.279621576256886
1539732250254009,8.697642481116873,-4.242008087281647,5.279621576256886
1539732250270013,-0.2746623941404778,-4.60822461280236,6.500343327992596
1539732250286017,-7.782101167315204,-4.547188525215461,9.246967269398056
1539732250302021,-17.730983443961122,-4.730296787975931,12.23773556115043
1539732250318025,-30.36545357442583,-6.256198977645454,13.946746013580423
1539732250334029,-31.525139238574866,-7.598992904554734,14.312962539101136
1539732250350033,-19.317921721217544,-7.537956816968062,13.214312962538997
1539732250366037,-2.166781109330941,-6.805523765926637,10.040436408026153
1539732250382042,9.124895094224485,-6.8665598535133086,6.134126802471883
1539732250398046,16.08300907911803,-6.9886320286868795,3.2043945983061803
1539732250414050,20.782787823300396,-6.744487678339738,2.7771419851987957
1539732250430054,21.45418478675515,-6.378271152819025,3.4485389486533222
1539732250446136,16.32715342946517,-6.9886320286868795,3.997863736934505
1539732250462141,10.528725108720437,-8.209353780422589,4.486152437628789
1539732250478145,5.706874189364498,-8.51453421835663,4.486152437628789
1539732250494150,1.983672846570471,-8.148317692835917,3.5095750362402214
1539732250510154,-2.5940337224383256,-8.33142595559616,3.2043945983061803
1539732250526159,-6.195162890058782,-8.941786831464015,4.486152437628789
1539732250542163,-11.688410772869474,-9.430075532158298,5.584802014190927
1539732250558168,-15.594720378423744,-9.185931181811156,5.889982452124741
1539732250574173,-8.51453421835663,-7.843137254901876,5.279621576256886
1539732250590177,0.7019150072480898,-6.378271152819025,2.410925459678083
1539732250606182,9.796292057679011,-5.584802014190927,-1.1902037079423735
1539732250622186,18.524452582589447,-4.730296787975931,-3.692683299000464
1539732250638191,23.346303501945386,-3.936827649347606,-4.791332875562603
1539732250654195,24.01770046540014,-3.1433585107195086,-4.42511635004189
1539732250670200,22.369726100556818,-2.7161058976118966,-2.532997634851654
1539732250686205,22.247653925383247,-3.0212863355459376,-1.1291676203554744
1539732250702209,10.101472495613052,-3.2043945983061803,-0.33569848172737693
1539732250718214,0.2746623941404778,-4.180971999694748,1.1291676203554744
1539732250734218,-3.6316472114137923,-4.547188525215461,2.4719615472647547
1539732250750223,-2.8992141603723667,-3.4485389486533222,2.4719615472647547
1539732250766265,-3.2043945983061803,-1.983672846570471,3.0823224231326094
1539732250782270,-4.547188525215461,-0.7629510948347615,4.730296787975931
1539732250798275,1.9226367589837992,1.3733119707026162,6.256198977645454
1539732250814279,12.787060349431613,4.9134050507361735,9.002822919050914
1539732250830284,28.534370946822264,10.101472495613052,14.129854276340893
1539732250846288,19.256885633630873,10.284580758373295,18.219272144655406
1539732250862293,6.012054627298312,7.660028992141633,19.378957808804444
1539732250878297,12.970168612191856,7.537956816968062,15.533684290836845
1539732250894302,9.430075532158298,8.45349813076973,10.101472495613052
1539732250910307,-4.60822461280236,8.392462043183059,5.706874189364498
1539732250926311,-12.4208438239109,8.270389868009488,1.983672846570471
1539732250942316,-13.64156557564661,8.270389868009488,-0.6408789196611906
1539732250958320,-11.383230334935433,8.392462043183059,-2.105745021744042
1539732250974325,-9.124895094224485,7.782101167315204,-3.6316472114137923
1539732250990329,-15.167467765316132,6.134126802471883,-4.303044174868319
1539732251006334,-18.097199969481835,3.692683299000464,-3.4485389486533222
1539732251022338,-7.660028992141633,1.1291676203554744,-2.8992141603723667
1539732251038343,4.974441138323073,-1.9226367589837992,-3.2654306858930795
1539732251054348,18.341344319828977,-4.791332875562603,-3.0823224231326094
1539732251070352,27.252613107499656,-6.622415503166167,-2.410925459678083
1539732251086395,26.6422522316318,-7.2938124666209205,-1.8005645838102282
1539732251102400,21.33211261158158,-7.049668116273779,-1.5564202334630863
1539732251118405,16.571297779812312,-6.744487678339738,-1.739528496223329
1539732251134410,13.64156557564661,-6.378271152819025,-2.5940337224383256
1539732251150415,7.782101167315204,-6.500343327992596,-3.875791561760934
1539732251166420,-3.997863736934505,-6.622415503166167,-4.730296787975931
1539732251182425,-16.998550392919697,-6.073090714885211,-4.486152437628789
1539732251198430,-27.61882963302037,-5.645838101777599,-4.119935912108076
1539732251214435,-29.999237048905115,-4.669260700389032,-4.42511635004189
1539732251230440,-29.877164873731545,-3.6316472114137923,-5.2185854886702145
1539732251246445,-24.628061341267994,-3.0823224231326094,-5.645838101777599
1539732251262450,-17.24269474326684,-2.7771419851987957,-5.3406576638437855
1539732251278455,-13.214312962538997,-2.166781109330941,-4.119935912108076
1539732251294460,-8.880750743877343,-1.4343480582895154,-1.6784924086366573
1539732251310465,-7.843137254901876,-1.739528496223329,0.7629510948347615
1539732251326470,-8.209353780422589,-1.9226367589837992,2.105745021744042
1539732251342476,-5.157549401083315,-1.0070954451819034,2.4719615472647547
1539732251358481,-1.5564202334630863,0.15259021896690683,2.655069810025225
1539732251374486,-0.5188067444876197,0.7629510948347615,3.1433585107195086
1539732251390491,-2.8992141603723667,0.45777065690094787,3.997863736934505
1539732251406524,-7.782101167315204,-0.09155413138023505,5.401693751430457
1539732251422529,-10.284580758373295,-0.03051804379333589,6.500343327992596
1539732251438534,-7.11070420386045,0.15259021896690683,6.9886320286868795
1539732251454539,-0.8850232700083325,0.213626306553806,7.049668116273779
1539732251470544,0.7629510948347615,0.09155413138023505,6.622415503166167
1539732251486549,-3.2654306858930795,0.5798428320745188,5.95101853971164
1539732251502555,-12.603952086671143,0.3967345693140487,5.157549401083315
1539732251518560,-24.750133516441565,-0.09155413138023505,4.9134050507361735
1539732251534565,-26.214999618524416,0.09155413138023505,4.486152437628789
1539732251550570,-18.95170519569683,0.33569848172737693,3.6316472114137923
1539732251566575,-6.622415503166167,1.3733119707026162,2.655069810025225
1539732251582580,1.4953841458761872,2.7161058976118966,1.6174563210497581
1539732251598585,9.124895094224485,3.936827649347606,0.15259021896690683
1539732251614590,11.749446860456146,4.669260700389032,-0.8850232700083325
1539732251630595,9.796292057679011,5.096513313496644,-0.7629510948347615
1539732251646600,7.11070420386045,4.852368963149502,0.6408789196611906
1539732251662605,3.814755474174035,3.570611123826893,1.6174563210497581
1539732251678610,4.974441138323073,2.288853284504512,1.739528496223329
1539732251694615,9.430075532158298,1.6784924086366573,1.1291676203554744
1539732251710620,15.960936903944457,1.4343480582895154,0.45777065690094787
1539732251726715,18.58548867017612,1.1902037079423735,0.45777065690094787
1539732251742720,17.059586480506596,0.8850232700083325,1.4953841458761872
1539732251758726,14.373998626688035,0.5798428320745188,2.532997634851654
1539732251774731,11.444266422522333,0.15259021896690683,3.0823224231326094
1539732251790737,10.589761196307336,-0.5188067444876197,2.7161058976118966
1539732251806742,11.627374685282575,-0.8850232700083325,2.04470893415737
1539732251822748,11.749446860456146,-0.8239871824216607,1.1902037079423735
1539732251838753,9.246967269398056,-1.0681315327688026,0.15259021896690683
1539732251854759,9.063859006637585,-1.2512397955290453,-0.5188067444876197
1539732251870764,6.073090714885211,-1.4953841458761872,-1.1902037079423735
1539732251886770,0.03051804379333589,-1.983672846570471,-1.4953841458761872
1539732251902775,-1.4343480582895154,-2.4719615472647547,-1.983672846570471
1539732251918781,-1.6784924086366573,-2.7161058976118966,-2.7161058976118966
1539732251934786,-5.584802014190927,-2.8992141603723667,-3.0823224231326094
1539732251950792,-6.622415503166167,-2.410925459678083,-2.7771419851987957
1539732251966797,-2.9602502479590385,-1.739528496223329,-2.5940337224383256
1539732251982803,0.213626306553806,-2.04470893415737,-2.8992141603723667
1539732251998808,2.7771419851987957,-2.7771419851987957,-2.8992141603723667
1539732252014814,4.852368963149502,-3.570611123826893,-2.8992141603723667
1539732252030820,6.500343327992596,-3.875791561760934,-3.2654306858930795
1539732252046844,6.256198977645454,-3.936827649347606,-3.2043945983061803
1539732252062850,2.655069810025225,-3.997863736934505,-2.4719615472647547
1539732252078855,-0.09155413138023505,-3.7537193865873633,-1.9226367589837992
1539732252094861,-1.9226367589837992,-3.6316472114137923,-2.04470893415737
1539732252110866,0.45777065690094787,-3.5095750362402214,-2.532997634851654
1539732252126872,3.875791561760934,-3.692683299000464,-2.655069810025225
1539732252142877,4.974441138323073,-4.058899824521177,-2.04470893415737
1539732252158883,4.60822461280236,-4.547188525215461,-1.5564202334630863
1539732252174888,3.2043945983061803,-4.730296787975931,-0.8239871824216607
1539732252190894,3.814755474174035,-4.364080262455218,0.15259021896690683
1539732252206899,4.303044174868319,-4.119935912108076,0.5798428320745188
1539732252222905,2.8992141603723667,-4.364080262455218,0.8850232700083325
1539732252238910,3.1433585107195086,-4.486152437628789,1.2512397955290453
1539732252254916,3.570611123826893,-3.997863736934505,1.3122758831159445
1539732252270921,2.105745021744042,-3.3264667734797513,1.0681315327688026
1539732252286927,1.3122758831159445,-3.0823224231326094,0.5798428320745188
1539732252302932,2.7771419851987957,-3.1433585107195086,0.03051804379333589
1539732252318938,5.2185854886702145,-2.9602502479590385,-0.3967345693140487
1539732252334943,6.805523765926637,-2.7771419851987957,-1.0070954451819034
1539732252350949,6.439307240405924,-2.8992141603723667,-1.1902037079423735
1539732252366974,4.058899824521177,-3.1433585107195086,-0.8239871824216607
1539732252382979,3.0212863355459376,-3.2043945983061803,-0.3967345693140487
1539732252398985,3.3875028610666504,-2.9602502479590385,-0.45777065690094787
1539732252414990,4.9134050507361735,-2.7161058976118966,-0.8239871824216607
1539732252430996,4.303044174868319,-2.8381780727854675,-0.6408789196611906
1539732252447001,3.0212863355459376,-3.7537193865873633,0.15259021896690683
1539732252463007,2.655069810025225,-4.669260700389032,0.8850232700083325
1539732252479012,3.875791561760934,-4.42511635004189,1.0681315327688026
1539732252495018,4.852368963149502,-3.2654306858930795,0.9460593575952316
1539732252511023,3.2654306858930795,-1.983672846570471,1.1291676203554744
1539732252527029,-9.369039444571627,-5.0354772259097444,0.7019150072480898
1539732252543034,-4.9134050507361735,-6.744487678339738,1.1291676203554744
1539732252559040,-2.105745021744042,-5.523765926604028,1.8005645838102282
1539732252575045,-2.3498893720911838,-4.852368963149502,1.0070954451819034
1539732252591051,-1.0070954451819034,-4.60822461280236,1.1291676203554744
1539732252607056,-4.669260700389032,-4.9134050507361735,1.6174563210497581
1539732252623062,-4.730296787975931,-4.058899824521177,1.6784924086366573
1539732252639067,-5.2185854886702145,-2.7161058976118966,1.4343480582895154
1539732252655073,-3.692683299000464,-1.8616006713969,1.0070954451819034
1539732252671078,-3.6316472114137923,-1.4343480582895154,0.6408789196611906
1539732252687103,-7.4158846417944915,-0.8850232700083325,0.3967345693140487
1539732252703108,-10.589761196307336,-0.3967345693140487,0.213626306553806
1539732252719114,-8.819714656290444,0.09155413138023505,-0.3967345693140487
1539732252735119,-5.645838101777599,0.3967345693140487,-1.3122758831159445
1539732252751125,-4.486152437628789,0.09155413138023505,-1.983672846570471
1539732252767130,-4.180971999694748,-0.45777065690094787,-2.3498893720911838
1539732252783136,-7.232776379034021,-1.3122758831159445,-2.04470893415737
1539732252799142,-9.246967269398056,-1.8005645838102282,-1.4343480582895154
1539732252815147,-10.101472495613052,-2.105745021744042,-0.7019150072480898
1539732252831153,-9.55214770733187,-2.288853284504512,-0.45777065690094787
1539732252847158,-5.76791027695117,-2.5940337224383256,-0.5798428320745188
1539732252863164,-5.0354772259097444,-3.0823224231326094,-0.6408789196611906
1539732252879169,-4.547188525215461,-2.8992141603723667,0.09155413138023505
1539732252895175,-6.073090714885211,-2.655069810025225,1.0681315327688026
1539732252911180,-8.392462043183059,-2.532997634851654,1.983672846570471
1539732252927186,-8.51453421835663,-2.3498893720911838,2.532997634851654
1539732252943191,-6.805523765926637,-1.9226367589837992,2.410925459678083
1539732252959197,-4.730296787975931,-1.6784924086366573,2.4719615472647547
1539732252975202,-3.3264667734797513,-1.5564202334630863,2.7161058976118966
1539732252991208,-2.655069810025225,-1.3122758831159445,2.9602502479590385
1539732253007232,-4.303044174868319,-1.1291676203554744,2.9602502479590385
1539732253023238,-4.791332875562603,-0.8850232700083325,2.532997634851654
1539732253039243,-3.3875028610666504,-0.8850232700083325,1.739528496223329
1539732253055249,-2.410925459678083,-1.1902037079423735,0.8850232700083325
1539732253071254,-1.0681315327688026,-1.4953841458761872,0.213626306553806
1539732253087260,1.3122758831159445,-1.739528496223329,-0.3967345693140487
1539732253103265,0.9460593575952316,-1.739528496223329,-0.7629510948347615
1539732253119271,0.7629510948347615,-1.5564202334630863,-0.8850232700083325
1539732253135276,-1.1902037079423735,-1.3733119707026162,-0.8850232700083325
1539732253151282,-4.242008087281647,-1.4953841458761872,-0.5798428320745188
1539732253167287,-3.4485389486533222,-1.3733119707026162,-0.3967345693140487
1539732253183293,-2.410925459678083,-1.3122758831159445,-0.2746623941404778
1539732253199298,-0.7629510948347615,-1.4343480582895154,0.03051804379333589
1539732253215304,-0.6408789196611906,-1.4953841458761872,0.15259021896690683
1539732253231310,-2.8992141603723667,-1.6784924086366573,0.5798428320745188
1539732253247315,-5.3406576638437855,-1.739528496223329,1.0070954451819034
1539732253263321,-5.76791027695117,-1.8005645838102282,0.9460593575952316
1539732253279326,-5.523765926604028,-1.8616006713969,0.7019150072480898
1539732253295332,-3.5095750362402214,-1.3122758831159445,-0.2746623941404778
1539732253311337,-0.5188067444876197,-0.8239871824216607,-1.3733119707026162
1539732253327362,2.04470893415737,-0.45777065690094787,-1.9226367589837992
1539732253343368,1.4953841458761872,-0.3967345693140487,-1.6784924086366573
1539732253359374,-2.5940337224383256,-0.6408789196611906,-1.0070954451819034
1539732253375380,-4.180971999694748,-1.0070954451819034,-0.45777065690094787
1539732253391386,-2.7161058976118966,-1.0681315327688026,-0.213626306553806
1539732253407392,-1.739528496223329,-0.8239871824216607,-0.15259021896690683
1539732253423398,-0.8850232700083325,-1.0070954451819034,0.2746623941404778
1539732253439404,-2.532997634851654,-1.3122758831159445,1.0681315327688026
1539732253455410,-3.692683299000464,-1.5564202334630863,1.739528496223329
1539732253471416,-4.60822461280236,-1.4343480582895154,1.983672846570471
1539732253487422,-4.547188525215461,-1.3733119707026162,1.983672846570471
1539732253503428,-2.8992141603723667,-1.1902037079423735,1.9226367589837992
1539732253519434,-1.2512397955290453,-1.1291676203554744,1.6784924086366573
1539732253535440,-0.6408789196611906,-0.9460593575952316,1.4953841458761872
1539732253551446,-2.227817196917613,-1.0681315327688026,1.4953841458761872
1539732253567452,-2.8381780727854675,-1.0681315327688026,1.4953841458761872
1539732253583458,-3.692683299000464,-0.9460593575952316,1.4953841458761872
1539732253599464,-3.814755474174035,-0.8239871824216607,1.2512397955290453
1539732253615470,-3.3264667734797513,-0.8239871824216607,0.7629510948347615
1539732253631476,-2.04470893415737,-0.9460593575952316,0.213626306553806
1539732253647491,-0.7629510948347615,-0.7629510948347615,-0.33569848172737693
1539732253663497,0.2746623941404778,-0.2746623941404778,-0.7019150072480898
1539732253679503,-0.45777065690094787,-0.09155413138023505,-0.6408789196611906
1539732253695509,-2.227817196917613,-0.2746623941404778,-0.5798428320745188
1539732253711515,-3.0823224231326094,-0.33569848172737693,-0.213626306553806
1539732253727521,-3.936827649347606,-0.5798428320745188,0.15259021896690683
1539732253743527,-4.486152437628789,-0.8239871824216607,0.5798428320745188
1539732253759533,-5.889982452124741,-1.1291676203554744,1.0681315327688026
1539732253775539,-7.049668116273779,-1.3122758831159445,1.3733119707026162
1539732253791545,-8.148317692835917,-1.0681315327688026,1.8005645838102282
1539732253807551,-7.904173342488775,-0.45777065690094787,1.9226367589837992
1539732253823557,-5.76791027695117,0.2746623941404778,1.6784924086366573
1539732253839563,-3.936827649347606,0.8850232700083325,0.7629510948347615
1539732253855569,-4.180971999694748,1.0070954451819034,-0.5188067444876197
1539732253871575,-3.7537193865873633,0.8239871824216607,-1.0070954451819034
1539732253887581,-12.176699473563758,-0.2746623941404778,-0.45777065690094787
1539732253903587,-19.9893186846723,-1.1291676203554744,1.1902037079423735
1539732253919593,-23.7125200274661,-1.6174563210497581,2.655069810025225
1539732253935599,-24.383916990920852,-1.739528496223329,3.2043945983061803
1539732253951605,-24.994277866788707,-2.227817196917613,3.5095750362402214
1539732253967620,-25.17738612954895,-3.692683299000464,4.9134050507361735
1539732253983626,-23.590447852292527,-4.547188525215461,6.073090714885211
1539732253999632,-19.439993896391115,-4.547188525215461,6.134126802471883
1539732254015638,-14.557106889448278,-4.180971999694748,5.0354772259097444
1539732254031644,-8.758678568703772,-3.814755474174035,3.0823224231326094
1539732254047650,-2.8992141603723667,-3.570611123826893,1.5564202334630863
1539732254063656,0.15259021896690683,-3.3875028610666504,0.5798428320745188
1539732254079662,3.0823224231326094,-3.0212863355459376,-0.33569848172737693
1539732254095668,4.60822461280236,-3.0212863355459376,-0.9460593575952316
1539732254111674,4.547188525215461,-2.8992141603723667,-1.0681315327688026
1539732254127680,4.303044174868319,-2.410925459678083,-0.8850232700083325
1539732254143686,3.1433585107195086,-2.227817196917613,-0.7019150072480898
1539732254159692,3.0823224231326094,-2.288853284504512,-0.5798428320745188
1539732254175698,3.3875028610666504,-2.288853284504512,-0.5798428320745188
1539732254191704,2.8992141603723667,-2.3498893720911838,-0.09155413138023505
1539732254207710,1.5564202334630863,-2.7771419851987957,0.3967345693140487
1539732254223716,0.5188067444876197,-3.0823224231326094,0.7019150072480898
1539732254239722,0.5798428320745188,-3.3264667734797513,0.7629510948347615
1539732254255728,1.4953841458761872,-3.4485389486533222,0.5188067444876197
1539732254271734,3.7537193865873633,-3.3264667734797513,-0.09155413138023505
1539732254287780,4.547188525215461,-3.2654306858930795,-0.7019150072480898
1539732254303786,4.242008087281647,-3.2654306858930795,-0.5798428320745188
1539732254319792,2.288853284504512,-3.4485389486533222,-0.03051804379333589
1539732254335798,0.5798428320745188,-3.3264667734797513,0.45777065690094787
1539732254351804,-0.213626306553806,-2.7161058976118966,0.7629510948347615
1539732254367810,-0.15259021896690683,-2.04470893415737,0.7629510948347615
1539732254383816,0.7629510948347615,-1.6174563210497581,0.5188067444876197
1539732254399822,1.4953841458761872,-1.1291676203554744,0.3967345693140487
1539732254415828,1.983672846570471,-1.1902037079423735,0.2746623941404778
1539732254431834,3.3264667734797513,-1.1902037079423735,-0.09155413138023505
1539732254447840,3.5095750362402214,-1.2512397955290453,-0.5188067444876197
1539732254463846,3.4485389486533222,-1.3733119707026162,-0.9460593575952316
1539732254479852,3.692683299000464,-1.3122758831159445,-1.3733119707026162
1539732254495858,2.3498893720911838,-1.4343480582895154,-1.6784924086366573
1539732254511864,1.8005645838102282,-2.04470893415737,-2.105745021744042
1539732254527870,1.5564202334630863,-2.7771419851987957,-2.288853284504512
1539732254543876,0.33569848172737693,-3.2043945983061803,-2.4719615472647547
1539732254559882,0.8850232700083325,-2.9602502479590385,-2.8992141603723667
1539732254575888,2.166781109330941,-2.105745021744042,-3.6316472114137923
1539732254591894,2.532997634851654,-1.8616006713969,-3.875791561760934
1539732254607910,1.0681315327688026,-2.166781109330941,-3.3264667734797513
1539732254623916,-1.2512397955290453,-1.3122758831159445,-2.9602502479590385
1539732254639922,-2.9602502479590385,1.2512397955290453,-3.570611123826893
1539732254655928,-4.486152437628789,2.3498893720911838,-4.60822461280236
1539732254671934,-5.645838101777599,0.5798428320745188,-5.2185854886702145
1539732254687940,-7.476920729381163,-1.6174563210497581,-6.500343327992596
1539732254703946,-21.759365224688963,-5.462729839017356,-9.369039444571627
1539732254719952,-15.411612115663274,-10.101472495613052,-13.275349050125897
1539732254735958,16.876478217746126,-16.876478217746126,-14.435034714274707
1539732254751964,19.80621042191183,-32.19653620202962,-11.505302510109004
1539732254767970,20.17242694743254,-51.5449759670405,-6.378271152819025
1539732254783976,13.702601663233281,-72.41931792172113,-1.3733119707026162
1539732254799982,10.833905546654478,-91.64568551155867,5.523765926604028
1539732254815988,12.23773556115043,-106.11123826962694,15.472648203250174
1539732254831994,14.068818188753994,-115.81597619592594,27.496757457846797
1539732254848000,15.350576028076603,-120.88197146562902,38.66636148622865
1539732254864006,10.89494163424115,-125.03242542153043,48.126955062180514
1539732254880012,6.134126802471883,-131.0749980926223,56.24475471122287
1539732254896018,1.4953841458761872,-141.69527733272298,62.714579995422355
1539732254912024,10.101472495613052,-149.0806439307239,65.94949263752233
1539732254928070,11.810482948043045,-158.29709315632886,65.33913176165424
1539732254944076,22.73594262607753,-162.38651102464337,59.662775616082854
1539732254960082,19.378957808804444,-159.3347066453041,51.850156404974314
1539732254976088,13.336385137712568,-148.16510261692224,43.36614023041102
1539732254992094,16.632333867398984,-128.87769893949803,33.3562218661782
1539732255008100,18.95170519569683,-104.70740825513099,22.369726100556818
1539732255024106,10.955977721828049,-78.82810711833372,11.139085984588291
1539732255040112,-1.6784924086366573,-53.681239032578105,0.9460593575952316
1539732255056118,-8.392462043183059,-30.36545357442583,-8.758678568703772
1539732255072124,-5.828946364538069,-6.805523765926637,-17.975127794308264
1539732255088130,2.8992141603723667,18.82963302052326,-27.130540932326085
1539732255104136,11.322194247348762,48.67627985046147,-37.44563973449317
1539732255120142,17.853055619134693,79.56054016937514,-47.333485923552416
1539732255136148,24.444953078507524,109.04097047379264,-55.024032959487386
1539732255152154,5.157549401083315,132.90608072022587,-56.73304341191738
1539732255168160,-32.44068055237676,154.57389181353483,-53.19295033188382
1539732255184166,-62.531471732661885,193.820096131838,-52.52155336842907
1539732255200172,-101.41145952544457,267.612726024262,-60.33417257953761
1539732255216178,-185.76333257038232,372.5337605859463,-63.38597695887688
1539732255232184,-196.07843137254895,466.5293354695964,-87.86144808117797
1539732255248199,-760.540169375143,148.04303044174867,-119.72228580148021
1539732255264205,595.8037689784087,40.375371938658645,-78.27878233005254
1539732255280211,119.23399710078593,-61.79903868162046,-55.45128557259477
1539732255296217,84.56549935149178,-7.537956816968062,-54.10849164568549
1539732255312223,103.30357824063503,25.05531395437538,-43.73235675593196
1539732255328229,59.05241474021477,32.07446402685582,-25.543602655069662
1539732255344235,42.51163500419602,21.45418478675515,-4.058899824521177
1539732255360241,7.843137254901876,-1.4953841458761872,15.10643167772946
1539732255376247,9.308003356984727,-22.919050888838,28.16815442130155
1539732255392253,14.190890363927565,-39.215686274509835,33.661402304112244
1539732255408259,11.810482948043045,-47.88281071183337,36.591134508277946
1539732255424265,-2.4719615472647547,-49.16456855115598,38.78843366140222
1539732255440271,-11.07804989700162,-43.305104142824575,37.9949645227739
1539732255456277,-17.120622568093268,-34.271763179980326,32.501716639963206
1539732255472283,-21.637293049515392,-22.980086976424673,23.773556115052997
1539732255488289,-19.684138246738257,-10.284580758373295,13.702601663233281
1539732255504295,-10.040436408026153,0.5188067444876197,4.791332875562603
1539732255520301,-2.8381780727854675,7.598992904554734,-3.0823224231326094
1539732255536307,4.974441138323073,13.45845731288614,-10.650797283894008
1539732255552313,6.744487678339738,18.280308232242305,-15.716792553597315
1539732255568359,5.706874189364498,19.623102159151586,-17.54787518120088
1539732255584365,3.1433585107195086,17.66994735637445,-16.26611734187827
1539732255600372,4.364080262455218,15.289539940489703,-15.594720378423744
1539732255616378,4.42511635004189,13.031204699778755,-15.655756466010416
1539732255632385,2.5940337224383256,11.139085984588291,-13.76363775082018
1539732255648391,1.9226367589837992,9.308003356984727,-11.505302510109004
1539732255664398,-2.04470893415737,6.500343327992596,-9.67421988250544
1539732255680404,-5.279621576256886,2.8381780727854675,-7.965209430075447
1539732255696411,-4.974441138323073,0.2746623941404778,-7.17174029144735
1539732255712417,-6.134126802471883,-0.09155413138023505,-6.9886320286868795
1539732255728424,-3.4485389486533222,0.15259021896690683,-5.3406576638437855
1539732255744430,-1.8005645838102282,-0.6408789196611906,-3.5095750362402214
1539732255760437,-3.2043945983061803,-2.04470893415737,-2.288853284504512
1539732255776443,-3.570611123826893,-3.0823224231326094,-1.4953841458761872
1539732255792450,-3.4485389486533222,-2.655069810025225,-1.6174563210497581
1539732255808456,-3.4485389486533222,-1.4953841458761872,-1.0070954451819034
1539732255824463,0.5188067444876197,-1.0070954451819034,0.33569848172737693
1539732255840469,0.3967345693140487,-1.8005645838102282,0.7629510948347615
1539732255856475,-2.8992141603723667,-3.3264667734797513,0.2746623941404778
1539732255872482,-7.049668116273779,-4.180971999694748,-0.09155413138023505
1539732255888488,-4.974441138323073,-4.058899824521177,-0.03051804379333589
1539732255904495,1.4343480582895154,-3.3264667734797513,-0.5798428320745188
1539732255920501,3.1433585107195086,-2.7161058976118966,-1.9226367589837992
1539732255936508,2.4719615472647547,-2.7771419851987957,-1.983672846570471
1539732255952514,-0.8239871824216607,-3.5095750362402214,-0.8239871824216607
1539732255968521,-1.1902037079423735,-4.42511635004189,1.9226367589837992
1539732255984527,-0.2746623941404778,-4.42511635004189,4.242008087281647
1539732256000534,-0.7019150072480898,-3.570611123826893,5.3406576638437855
1539732256016540,0.33569848172737693,-2.532997634851654,6.683451590753066
1539732256032547,-3.814755474174035,-2.3498893720911838,7.660028992141633
1539732256048553,-5.889982452124741,-1.8005645838102282,6.9886320286868795
1539732256064560,-3.5095750362402214,-0.15259021896690683,4.60822461280236
1539732256080566,-4.791332875562603,2.288853284504512,1.0070954451819034
1539732256096573,-6.622415503166167,6.134126802471883,-3.814755474174035
1539732256112579,-5.706874189364498,11.993591210803288,-9.67421988250544
1539732256128585,-4.180971999694748,17.303730830853738,-17.120622568093268
1539732256144592,8.941786831464015,18.280308232242305,-21.14900434882111
1539732256160598,23.102159151598244,7.843137254901876,-17.303730830853738
1539732256176605,12.664988174258042,-12.115663385976859,-6.256198977645454
1539732256192611,-10.955977721828049,-25.17738612954895,3.936827649347606
1539732256208618,-27.130540932326085,-23.041123064011572,9.369039444571627
1539732256224624,-32.25757228961629,-11.383230334935433,10.040436408026153
1539732256240631,-31.952391851682478,-0.15259021896690683,6.378271152819025
1539732256256637,-23.224231326771815,1.6174563210497581,0.7629510948347615
1539732256272644,-2.04470893415737,-5.157549401083315,-3.0823224231326094
1539732256288650,13.76363775082018,-10.406652933546866,-4.669260700389032
1539732256304657,18.463416495002548,-7.843137254901876,-6.012054627298312
1539732256320663,15.167467765316132,-1.6174563210497581,-7.17174029144735
1539732256336670,4.486152437628789,1.3733119707026162,-7.049668116273779
1539732256352676,-5.096513313496644,-0.3967345693140487,-5.279621576256886
1539732256368682,-15.838864728770886,-3.6316472114137923,-2.4719615472647547
1539732256384689,-22.552834363317288,-4.9134050507361735,0.5188067444876197
1539732256400695,-21.14900434882111,-3.936827649347606,2.105745021744042
1539732256416702,-19.867246509498727,-3.2043945983061803,1.3733119707026162
1539732256432708,-18.280308232242305,-3.7537193865873633,0.3967345693140487
1539732256448715,-15.838864728770886,-4.364080262455218,0.8239871824216607
1539732256464721,-21.57625696192872,-4.9134050507361735,1.983672846570471
1539732256480728,-33.29518577859176,-6.317235065232353,4.180971999694748
1539732256496734,-42.02334630350197,-7.232776379034021,7.4158846417944915
1539732256512741,-47.57763027389956,-7.4158846417944915,9.491111619745197
1539732256528747,-38.30014496070817,-6.195162890058782,8.6366063935302
1539732256544754,-22.369726100556818,-4.058899824521177,5.401693751430457
1539732256560760,-15.411612115663274,-2.410925459678083,1.8005645838102282
1539732256576767,-15.228503852903032,-1.5564202334630863,0.03051804379333589
1539732256592773,-22.064545662623004,-2.3498893720911838,0.213626306553806
1539732256608780,-35.431448844129136,-4.9134050507361735,2.8992141603723667
1539732256624786,-41.779201953154825,-6.561379415579495,5.76791027695117
1539732256640792,-44.76997024490743,-5.76791027695117,7.476920729381163
1539732256656799,-44.15960936903957,-3.0823224231326094,7.232776379034021
1539732256672805,-47.57763027389956,-2.8381780727854675,6.195162890058782
1539732256688812,-49.28664072632955,-5.3406576638437855,5.3406576638437855
1539732256704818,-55.75646601052881,-8.45349813076973,6.012054627298312
1539732256720825,-60.45624475471118,-9.430075532158298,6.012054627298312
1539732256736831,-61.371786068513074,-7.232776379034021,5.645838101777599
1539732256752838,-51.6060120546274,-4.364080262455218,5.523765926604028
1539732256768844,-39.82604715037769,-3.3264667734797513,4.791332875562603
1539732256784851,-27.252613107499656,-3.2043945983061803,1.8616006713969
1539732256800857,-19.867246509498727,-3.875791561760934,-1.0070954451819034
1539732256816864,-16.754406042572555,-4.180971999694748,-1.9226367589837992
1539732256832870,-11.749446860456146,-3.5095750362402214,-1.8616006713969
1539732256848907,-5.2185854886702145,-2.655069810025225,-2.04470893415737
1539732256864914,2.8381780727854675,-1.739528496223329,-3.2654306858930795
1539732256880920,10.223544670786623,-1.2512397955290453,-3.936827649347606
1539732256896927,9.491111619745197,-2.227817196917613,-2.8381780727854675
1539732256912933,11.871519035629717,-2.7161058976118966,-2.5940337224383256
1539732256928939,9.55214770733187,-3.0823224231326094,-2.8992141603723667
1539732256944946,7.2938124666209205,-3.2654306858930795,-1.4953841458761872
1539732256960952,4.669260700389032,-3.570611123826893,-0.03051804379333589
1539732256976959,2.4719615472647547,-3.997863736934505,0.7629510948347615
1539732256992965,3.0212863355459376,-3.2654306858930795,0.3967345693140487
1539732257008972,2.8381780727854675,-2.7771419851987957,-0.03051804379333589
1539732257024978,-1.3122758831159445,-3.5095750362402214,0.5188067444876197
1539732257040985,-4.303044174868319,-4.303044174868319,1.6174563210497581
1539732257056991,-7.904173342488775,-5.0354772259097444,2.7771419851987957
1539732257072998,-11.749446860456146,-5.584802014190927,3.875791561760934
1539732257089004,-13.824673838406852,-6.439307240405924,4.058899824521177
1539732257105011,-17.853055619134693,-7.4158846417944915,4.364080262455218
1539732257121017,-23.468375677118956,-8.209353780422589,5.2185854886702145
1539732257137024,-29.20576791027679,-9.063859006637585,6.195162890058782
1539732257153030,-31.830319676508907,-9.55214770733187,7.11070420386045
1539732257169036,-28.96162355992965,-8.819714656290444,7.049668116273779
1539732257185043,-24.872205691615136,-8.087281605249018,6.195162890058782
1539732257201049,-22.186617837796575,-7.4158846417944915,4.852368963149502
1539732257217056,-17.79201953154802,-6.805523765926637,3.3264667734797513
1539732257233062,-14.190890363927565,-6.500343327992596,2.532997634851654
1539732257249069,-12.542915999084471,-5.95101853971164,3.0212863355459376
1539732257265075,-16.937514305333025,-5.828946364538069,4.852368963149502
1539732257281082,-17.730983443961122,-5.279621576256886,6.439307240405924
1539732257297088,-12.359807736324,-3.997863736934505,6.317235065232353
1539732257313095,-1.739528496223329,-2.288853284504512,4.180971999694748
1539732257329101,7.660028992141633,-1.0070954451819034,1.8005645838102282
1539732257345108,11.566338597695903,-0.213626306553806,0.45777065690094787
1539732257361114,17.730983443961122,0.5188067444876197,-0.213626306553806
1539732257377121,16.876478217746126,0.15259021896690683,-0.213626306553806
1539732257393127,12.726024261844714,-0.5188067444876197,0.6408789196611906
1539732257409134,11.749446860456146,-0.9460593575952316,1.0681315327688026
1539732257425140,8.087281605249018,-1.739528496223329,1.1902037079423735
1539732257441146,1.9226367589837992,-2.532997634851654,1.5564202334630863
1539732257457153,1.739528496223329,-2.7161058976118966,1.6174563210497581
1539732257473159,2.410925459678083,-2.5940337224383256,1.6174563210497581
1539732257489166,6.805523765926637,-1.983672846570471,1.2512397955290453
1539732257505172,7.537956816968062,-1.739528496223329,0.3967345693140487
1539732257521179,3.5095750362402214,-2.227817196917613,0.5188067444876197
1539732257537185,0.03051804379333589,-2.7161058976118966,1.3122758831159445
1539732257553192,-4.242008087281647,-3.2043945983061803,2.105745021744042
1539732257569198,-6.439307240405924,-3.0212863355459376,3.2043945983061803
1539732257585205,-4.180971999694748,-1.983672846570471,3.3875028610666504
1539732257601211,2.288853284504512,-0.7629510948347615,1.9226367589837992
1539732257617218,4.486152437628789,-0.7019150072480898,0.7629510948347615
1539732257633224,0.15259021896690683,-1.983672846570471,1.739528496223329
1539732257649231,-9.124895094224485,-3.692683299000464,4.180971999694748
1539732257665237,-13.519493400473038,-4.42511635004189,6.256198977645454
1539732257681244,-15.655756466010416,-4.364080262455218,6.8665598535133086
1539732257697250,-13.214312962538997,-4.364080262455218,6.561379415579495
1539732257713256,-8.697642481116873,-4.486152437628789,5.76791027695117
1539732257729263,-5.279621576256886,-4.486152437628789,4.791332875562603
1539732257745269,-2.166781109330941,-4.364080262455218,3.5095750362402214
1539732257761276,1.5564202334630863,-3.936827649347606,2.166781109330941
1539732257777282,4.242008087281647,-3.3264667734797513,1.1291676203554744
1539732257793289,2.166781109330941,-3.2043945983061803,0.8850232700083325
1539732257809326,0.03051804379333589,-3.5095750362402214,0.8850232700083325
1539732257825332,-1.983672846570471,-3.5095750362402214,1.2512397955290453
1539732257841339,-4.852368963149502,-3.6316472114137923,1.4953841458761872
1539732257857345,-6.683451590753066,-3.3264667734797513,1.4343480582895154
1539732257873352,-9.002822919050914,-3.0823224231326094,1.6174563210497581
1539732257889358,-8.392462043183059,-2.7771419851987957,2.166781109330941
1539732257905365,-7.721065079728305,-2.7161058976118966,2.5940337224383256
1539732257921371,-4.303044174868319,-2.4719615472647547,2.105745021744042
1539732257937378,-1.3122758831159445,-2.3498893720911838,1.3733119707026162
1539732257953384,-0.45777065690094787,-2.532997634851654,1.1291676203554744
1539732257969390,-1.0070954451819034,-2.8381780727854675,1.6784924086366573
1539732257985397,-3.0212863355459376,-3.0823224231326094,2.7771419851987957
1539732258001403,-4.547188525215461,-3.0212863355459376,3.3875028610666504
1539732258017410,-2.7771419851987957,-2.410925459678083,3.0212863355459376
1539732258033416,1.4343480582895154,-1.4343480582895154,1.739528496223329
1539732258049423,4.791332875562603,-0.7019150072480898,0.2746623941404778
1539732258065429,5.584802014190927,-0.213626306553806,-0.213626306553806
1539732258081436,4.547188525215461,0.33569848172737693,-0.03051804379333589
1539732258097442,1.4343480582895154,0.6408789196611906,0.15259021896690683
1539732258113449,0.213626306553806,1.0681315327688026,0.213626306553806
1539732258129486,0.3967345693140487,1.2512397955290453,0.15259021896690683
1539732258145493,0.5798428320745188,1.1902037079423735,0.03051804379333589
1539732258161500,-5.401693751430457,0.7019150072480898,0.03051804379333589
1539732258177507,-15.289539940489703,0.33569848172737693,1.0681315327688026
1539732258193513,-24.322880903333953,-0.03051804379333589,2.9602502479590385
1539732258209520,-22.430762188143717,0.09155413138023505,4.42511635004189
1539732258225527,-15.594720378423744,0.2746623941404778,4.119935912108076
1539732258241534,-6.256198977645454,0.5188067444876197,1.8616006713969
1539732258257541,-0.45777065690094787,0.6408789196611906,-0.8850232700083325
1539732258273548,5.76791027695117,0.45777065690094787,-2.8381780727854675
1539732258289555,9.369039444571627,0.09155413138023505,-3.7537193865873633
1539732258305562,10.101472495613052,0.213626306553806,-4.058899824521177
1539732258321569,8.148317692835917,0.3967345693140487,-4.058899824521177
1539732258337576,7.17174029144735,0.5798428320745188,-3.997863736934505
1539732258353583,8.45349813076973,0.8239871824216607,-4.119935912108076
1539732258369590,7.965209430075447,0.8850232700083325,-4.42511635004189
1539732258385597,6.683451590753066,0.7629510948347615,-4.364080262455218
1539732258401604,4.974441138323073,0.5798428320745188,-3.7537193865873633
1539732258417611,2.7771419851987957,0.45777065690094787,-2.9602502479590385
1539732258433618,2.7771419851987957,0.6408789196611906,-2.8381780727854675
1539732258449615,3.692683299000464,0.5188067444876197,-2.8992141603723667
1539732258465622,3.570611123826893,0.15259021896690683,-2.8992141603723667
1539732258481628,3.2043945983061803,-0.45777065690094787,-2.7771419851987957
1539732258497635,2.4719615472647547,-1.1291676203554744,-2.3498893720911838
1539732258513641,1.983672846570471,-1.6174563210497581,-1.983672846570471
1539732258529647,1.6174563210497581,-1.983672846570471,-1.6784924086366573
1539732258545654,1.1291676203554744,-2.227817196917613,-1.2512397955290453
1539732258561660,-0.45777065690094787,-2.5940337224383256,-0.8239871824216607
1539732258577667,-0.5798428320745188,-3.0823224231326094,-0.6408789196611906
1539732258593673,0.213626306553806,-3.2043945983061803,-0.7629510948347615
1539732258609680,-0.9460593575952316,-3.3875028610666504,-1.0681315327688026
1539732258625686,-1.6784924086366573,-3.570611123826893,-1.1902037079423735
1539732258641693,-1.6784924086366573,-3.4485389486533222,-1.1902037079423735
1539732258657699,-1.1291676203554744,-2.9602502479590385,-1.5564202334630863
1539732258673706,-1.4953841458761872,-2.7161058976118966,-2.04470893415737
1539732258689712,-0.5798428320745188,-2.4719615472647547,-2.288853284504512
1539732258705719,-0.213626306553806,-2.227817196917613,-2.288853284504512
1539732258721725,-0.8850232700083325,-2.3498893720911838,-1.983672846570471
1539732258737732,-1.8005645838102282,-2.4719615472647547,-1.8005645838102282
1539732258753738,-1.6174563210497581,-2.532997634851654,-1.5564202334630863
1539732258769744,-0.8239871824216607,-2.7161058976118966,-1.1902037079423735
1539732258785751,-0.5188067444876197,-3.0212863355459376,-0.8239871824216607
1539732258801757,-0.9460593575952316,-3.5095750362402214,-0.33569848172737693
1539732258817764,-1.4343480582895154,-4.42511635004189,0.213626306553806
1539732258833770,-3.570611123826893,-5.279621576256886,0.5798428320745188
1539732258849777,-4.974441138323073,-5.3406576638437855,0.6408789196611906
1539732258865783,-3.814755474174035,-4.852368963149502,0.03051804379333589
1539732258881790,-0.8239871824216607,-4.058899824521177,-1.0070954451819034
1539732258897796,-0.2746623941404778,-3.3875028610666504,-1.5564202334630863
1539732258913803,-0.9460593575952316,-2.7161058976118966,-1.739528496223329
1539732258929809,-0.9460593575952316,-2.04470893415737,-1.983672846570471
1539732258945816,-1.3122758831159445,-1.4953841458761872,-2.288853284504512
1539732258961822,-1.1902037079423735,-1.3733119707026162,-2.532997634851654
1539732258977829,-0.8850232700083325,-1.4343480582895154,-2.5940337224383256
1539732258993835,-0.9460593575952316,-1.6784924086366573,-2.410925459678083
1539732259009842,-0.9460593575952316,-2.105745021744042,-1.9226367589837992
1539732259025848,-2.288853284504512,-2.5940337224383256,-1.4343480582895154
1539732259041854,-2.655069810025225,-2.9602502479590385,-1.1291676203554744
1539732259057861,-2.166781109330941,-3.1433585107195086,-0.8239871824216607
1539732259073867,-1.6784924086366573,-3.2654306858930795,-0.2746623941404778
1539732259089874,-2.655069810025225,-3.1433585107195086,0.45777065690094787
1539732259105880,-3.3875028610666504,-2.8381780727854675,0.9460593575952316
1539732259121887,-2.5940337224383256,-2.532997634851654,0.7019150072480898
1539732259137893,-1.1291676203554744,-2.227817196917613,0.09155413138023505
1539732259153900,-0.7629510948347615,-1.8005645838102282,-0.03051804379333589
1539732259169906,-0.03051804379333589,-1.4343480582895154,0.15259021896690683
1539732259185913,-0.5798428320745188,-1.0070954451819034,0.5188067444876197
1539732259201919,-0.2746623941404778,-0.8850232700083325,0.5798428320745188
1539732259217926,-0.2746623941404778,-1.2512397955290453,0.7629510948347615
1539732259233932,-1.3733119707026162,-1.8616006713969,0.9460593575952316
1539732259249939,-0.5188067444876197,-2.288853284504512,1.1902037079423735
1539732259265945,-0.7019150072480898,-2.3498893720911838,1.2512397955290453
1539732259281952,-0.8239871824216607,-2.288853284504512,1.3733119707026162
1539732259297958,-0.5798428320745188,-1.9226367589837992,1.3122758831159445
1539732259313964,0.5798428320745188,-1.3733119707026162,1.3122758831159445
1539732259329971,1.3122758831159445,-0.9460593575952316,1.6174563210497581
1539732259345977,1.1902037079423735,-0.7629510948347615,1.8616006713969
1539732259361984,1.0681315327688026,-0.7019150072480898,1.8616006713969
1539732259377990,0.8239871824216607,-0.6408789196611906,1.6174563210497581
1539732259393997,1.1291676203554744,-0.8239871824216607,1.2512397955290453
1539732259410034,1.4953841458761872,-1.0070954451819034,1.0070954451819034
1539732259426041,1.983672846570471,-1.2512397955290453,1.0070954451819034
1539732259442048,1.2512397955290453,-1.5564202334630863,1.2512397955290453
1539732259458055,0.2746623941404778,-2.166781109330941,1.6784924086366573
1539732259474062,-1.0070954451819034,-2.7161058976118966,2.288853284504512
1539732259490069,-1.8005645838102282,-3.1433585107195086,2.7161058976118966
1539732259506075,-1.3733119707026162,-3.0823224231326094,2.7161058976118966
1539732259522082,-0.5188067444876197,-2.8381780727854675,2.532997634851654
1539732259538089,0.3967345693140487,-2.4719615472647547,2.3498893720911838
1539732259554096,0.2746623941404778,-2.4719615472647547,2.227817196917613
1539732259570103,-1.0681315327688026,-2.7771419851987957,2.410925459678083
1539732259586110,-1.6174563210497581,-2.8992141603723667,2.532997634851654
1539732259602117,-0.5798428320745188,-2.9602502479590385,1.983672846570471
1539732259618124,1.4953841458761872,-2.7771419851987957,1.2512397955290453
1539732259634131,3.1433585107195086,-2.655069810025225,1.1291676203554744
1539732259650138,2.655069810025225,-2.3498893720911838,1.0681315327688026
1539732259666145,2.5940337224383256,-1.8616006713969,0.7019150072480898
1539732259682152,1.9226367589837992,-1.6174563210497581,0.3967345693140487
1539732259698159,0.5188067444876197,-1.4343480582895154,0.5798428320745188
1539732259714166,-0.5798428320745188,-1.3122758831159445,0.7019150072480898
1539732259730163,-0.213626306553806,-1.2512397955290453,0.45777065690094787
1539732259746170,1.0681315327688026,-1.2512397955290453,0.03051804379333589
1539732259762177,1.983672846570471,-1.3122758831159445,-0.213626306553806
1539732259778184,1.0070954451819034,-1.6784924086366573,-0.09155413138023505
1539732259794191,0.213626306553806,-2.04470893415737,0.09155413138023505
1539732259810198,-0.15259021896690683,-2.288853284504512,0.213626306553806
1539732259826205,-0.2746623941404778,-2.4719615472647547,0.15259021896690683
1539732259842212,0.7629510948347615,-2.4719615472647547,-0.03051804379333589
1539732259858219,0.3967345693140487,-2.5940337224383256,-0.03051804379333589
1539732259874226,-0.45777065690094787,-2.532997634851654,-0.03051804379333589
1539732259890233,0.6408789196611906,-2.4719615472647547,-0.2746623941404778
1539732259906240,1.1902037079423735,-2.5940337224383256,-0.5798428320745188
1539732259922247,0.7629510948347615,-2.7771419851987957,-0.2746623941404778
1539732259938254,-0.33569848172737693,-2.8992141603723667,0.2746623941404778
1539732259954260,-0.2746623941404778,-2.7161058976118966,0.7019150072480898
1539732259970267,0.8239871824216607,-2.227817196917613,0.7629510948347615
1539732259986274,1.983672846570471,-2.04470893415737,0.7019150072480898
1539732260002281,2.532997634851654,-1.8616006713969,0.7019150072480898
1539732260018288,3.1433585107195086,-1.6174563210497581,0.5188067444876197
1539732260034295,4.364080262455218,-1.3733119707026162,0.33569848172737693
1539732260050293,5.096513313496644,-1.1902037079423735,-0.03051804379333589
1539732260066300,5.3406576638437855,-1.1902037079423735,-0.213626306553806
1539732260082306,4.303044174868319,-1.1291676203554744,-0.09155413138023505
1539732260098313,4.058899824521177,-1.1902037079423735,-0.03051804379333589
1539732260114320,3.6316472114137923,-1.3122758831159445,0.03051804379333589
1539732260130327,3.2654306858930795,-1.4343480582895154,-0.03051804379333589
1539732260146334,2.7161058976118966,-1.6784924086366573,-0.09155413138023505
1539732260162341,1.8616006713969,-1.739528496223329,0.15259021896690683
1539732260178348,0.03051804379333589,-1.8616006713969,0.2746623941404778
1539732260194355,-0.8850232700083325,-1.6174563210497581,0.45777065690094787
1539732260210362,-0.2746623941404778,-1.1291676203554744,0.33569848172737693
1539732260226369,1.4343480582895154,-0.45777065690094787,0.09155413138023505
1539732260242376,1.8616006713969,0.15259021896690683,-0.2746623941404778
1539732260258383,1.739528496223329,0.5798428320745188,-0.33569848172737693
1539732260274390,1.2512397955290453,0.6408789196611906,-0.15259021896690683
1539732260290397,0.9460593575952316,0.2746623941404778,0.09155413138023505
1539732260306404,0.8850232700083325,-0.2746623941404778,0.03051804379333589
1539732260322411,0.33569848172737693,-0.9460593575952316,-0.15259021896690683
1539732260338418,0.2746623941404778,-1.3733119707026162,-0.03051804379333589
1539732260354425,0.15259021896690683,-1.6174563210497581,0.03051804379333589
1539732260370422,0.6408789196611906,-1.739528496223329,0.213626306553806
1539732260386428,0.5798428320745188,-1.8005645838102282,0.2746623941404778
1539732260402435,0.7019150072480898,-1.6174563210497581,0.15259021896690683
1539732260418441,0.7629510948347615,-1.4343480582895154,0.03051804379333589
1539732260434448,1.739528496223329,-1.1291676203554744,-0.3967345693140487
1539732260450454,2.7771419851987957,-1.0070954451819034,-0.5798428320745188
1539732260466461,1.8616006713969,-1.3733119707026162,-0.5188067444876197
1539732260482467,0.2746623941404778,-1.5564202334630863,-0.15259021896690683
1539732260498474,-0.7629510948347615,-1.8005645838102282,0.213626306553806
1539732260514480,-0.5798428320745188,-2.166781109330941,0.5188067444876197
1539732260530487,-0.03051804379333589,-2.5940337224383256,0.7629510948347615
1539732260546493,0.213626306553806,-2.7161058976118966,0.7629510948347615
1539732260562500,0.3967345693140487,-2.7771419851987957,0.5798428320745188
1539732260578506,0.7019150072480898,-2.5940337224383256,0.5798428320745188
1539732260594513,-0.213626306553806,-2.655069810025225,0.7019150072480898
1539732260610519,-1.3733119707026162,-2.7771419851987957,0.7629510948347615
1539732260626526,-1.6174563210497581,-3.0212863355459376,0.45777065690094787
1539732260642532,-0.7629510948347615,-3.3264667734797513,-0.213626306553806
1539732260658538,0.7019150072480898,-3.5095750362402214,-0.7629510948347615
1539732260674545,1.5564202334630863,-3.7537193865873633,-1.1291676203554744
1539732260690582,0.33569848172737693,-4.119935912108076,-1.0070954451819034
1539732260706589,-0.9460593575952316,-3.814755474174035,-1.0681315327688026
1539732260722596,-1.0070954451819034,-3.0823224231326094,-1.2512397955290453
1539732260738603,0.33569848172737693,-2.105745021744042,-1.0681315327688026
1539732260754610,1.9226367589837992,-1.3733119707026162,-0.8850232700083325
1539732260770617,1.6174563210497581,-1.2512397955290453,-0.7629510948347615
1539732260786624,0.09155413138023505,-1.4953841458761872,-0.6408789196611906
1539732260802631,0.3967345693140487,-1.6174563210497581,-0.8850232700083325
1539732260818637,1.739528496223329,-1.4343480582895154,-1.3733119707026162
1539732260834644,2.9602502479590385,-1.0681315327688026,-1.4343480582895154
1539732260850651,2.288853284504512,-0.9460593575952316,-1.0070954451819034
1539732260866658,0.45777065690094787,-0.7019150072480898,-0.33569848172737693
1539732260882665,0.45777065690094787,-0.5188067444876197,-0.03051804379333589
1539732260898672,1.1291676203554744,-0.45777065690094787,-0.15259021896690683
1539732260914679,2.532997634851654,-0.5188067444876197,-0.2746623941404778
1539732260930686,2.105745021744042,-0.7019150072480898,-0.213626306553806
1539732260946693,1.5564202334630863,-1.0070954451819034,0.2746623941404778
1539732260962700,-0.03051804379333589,-1.2512397955290453,0.7629510948347615
1539732260978707,-0.15259021896690683,-1.1902037079423735,0.9460593575952316
1539732260994714,1.5564202334630863,-1.1902037079423735,1.0070954451819034
1539732261010742,2.288853284504512,-1.6784924086366573,1.0681315327688026
1539732261026749,-0.2746623941404778,-1.983672846570471,1.4343480582895154
1539732261042756,-1.3122758831159445,-1.9226367589837992,1.3733119707026162
1539732261058763,-0.8239871824216607,-1.6784924086366573,0.8850232700083325
1539732261074770,0.15259021896690683,-1.2512397955290453,0.15259021896690683
1539732261090777,0.03051804379333589,-0.7629510948347615,-0.5188067444876197
1539732261106783,-0.5188067444876197,0.213626306553806,-0.7019150072480898
1539732261122790,-0.33569848172737693,0.7019150072480898,-0.8239871824216607
1539732261138797,0.2746623941404778,1.3122758831159445,-0.9460593575952316
1539732261154804,-0.8239871824216607,1.4343480582895154,-0.6408789196611906
1539732261170811,-2.410925459678083,1.0681315327688026,-0.15259021896690683
1539732261186818,-3.4485389486533222,0.3967345693140487,0.09155413138023505
1539732261202825,-3.6316472114137923,-0.15259021896690683,0.2746623941404778
1539732261218832,-3.692683299000464,-0.7629510948347615,0.3967345693140487
1539732261234839,-3.3264667734797513,-1.4343480582895154,0.3967345693140487
1539732261250846,-2.9602502479590385,-1.3733119707026162,0.213626306553806
1539732261266853,-1.8616006713969,-1.0681315327688026,-0.09155413138023505
1539732261282860,-1.4953841458761872,-0.8239871824216607,-0.09155413138023505
1539732261298867,-1.3122758831159445,-0.8239871824216607,0.2746623941404778
1539732261314874,-2.04470893415737,-1.0070954451819034,0.15259021896690683
1539732261330871,-1.6784924086366573,-1.1902037079423735,-0.33569848172737693
1539732261346878,-0.8850232700083325,-1.3733119707026162,-0.7629510948347615
1539732261362885,-0.09155413138023505,-1.8005645838102282,-0.8850232700083325
1539732261378892,-0.8850232700083325,-2.04470893415737,-0.9460593575952316
1539732261394899,-1.0070954451819034,-2.3498893720911838,-0.8850232700083325
1539732261410906,-1.6784924086366573,-2.7771419851987957,-0.7019150072480898
1539732261426913,-1.3733119707026162,-2.655069810025225,-1.0070954451819034
1539732261442920,-0.09155413138023505,-2.166781109330941,-1.1902037079423735
1539732261458927,1.2512397955290453,-1.8005645838102282,-1.0681315327688026
1539732261474934,1.3122758831159445,-1.8616006713969,-0.5188067444876197
1539732261490941,0.213626306553806,-1.983672846570471,0.03051804379333589
1539732261506948,-0.8850232700083325,-2.4719615472647547,0.45777065690094787
1539732261522955,-1.6784924086366573,-2.9602502479590385,0.6408789196611906
1539732261538962,-0.6408789196611906,-3.0212863355459376,0.3967345693140487
1539732261554968,0.7019150072480898,-2.7161058976118966,0.15259021896690683
1539732261570975,1.1902037079423735,-2.410925459678083,0.15259021896690683
1539732261586982,-0.09155413138023505,-2.166781109330941,0.2746623941404778
1539732261602989,-0.7629510948347615,-1.4343480582895154,-0.15259021896690683
1539732261618996,0.213626306553806,-1.0070954451819034,-0.6408789196611906
1539732261635003,0.45777065690094787,-0.8850232700083325,-1.0681315327688026
1539732261651001,0.5798428320745188,-0.7019150072480898,-1.4343480582895154
1539732261667008,0.7019150072480898,-0.45777065690094787,-1.4953841458761872
1539732261683014,2.04470893415737,0.03051804379333589,-1.6174563210497581
1539732261699021,1.983672846570471,0.03051804379333589,-1.1291676203554744
1539732261715028,0.5188067444876197,-0.33569848172737693,-0.2746623941404778
1539732261731035,-0.45777065690094787,-0.7019150072480898,0.45777065690094787
1539732261747042,-0.45777065690094787,-1.1902037079423735,0.9460593575952316
1539732261763049,1.1902037079423735,-1.8616006713969,1.0681315327688026
1539732261779056,0.03051804379333589,-2.9602502479590385,1.3122758831159445
1539732261795063,-2.5940337224383256,-3.875791561760934,1.6784924086366573
1539732261811070,-3.875791561760934,-4.058899824521177,1.4343480582895154
1539732261827077,-1.8005645838102282,-3.692683299000464,0.45777065690094787
1539732261843084,0.8239871824216607,-3.0823224231326094,-0.2746623941404778
1539732261859091,0.45777065690094787,-2.3498893720911838,-0.45777065690094787
1539732261875098,-1.4953841458761872,-1.8005645838102282,-0.3967345693140487
1539732261891105,-2.7161058976118966,-1.3122758831159445,-0.6408789196611906
1539732261907112,-1.3122758831159445,-0.7629510948347615,-1.3733119707026162
1539732261923119,1.1902037079423735,-0.3967345693140487,-2.04470893415737
1539732261939126,2.288853284504512,-0.33569848172737693,-2.227817196917613
1539732261955133,0.3967345693140487,-0.3967345693140487,-1.8005645838102282
1539732261971161,-1.6784924086366573,-0.3967345693140487,-1.3733119707026162
1539732261987167,-1.3122758831159445,-0.15259021896690683,-1.5564202334630863
1539732262003174,1.739528496223329,-0.03051804379333589,-2.04470893415737
1539732262019181,3.2043945983061803,-0.03051804379333589,-2.105745021744042
1539732262035188,3.2043945983061803,0.213626306553806,-1.8616006713969
1539732262051195,2.410925459678083,0.5798428320745188,-1.3122758831159445
1539732262067202,1.2512397955290453,0.9460593575952316,-0.5188067444876197
1539732262083209,0.45777065690094787,1.1291676203554744,0.33569848172737693
1539732262099216,1.0681315327688026,1.0070954451819034,1.0681315327688026
1539732262115223,1.1902037079423735,0.15259021896690683,1.3733119707026162
1539732262131230,0.7629510948347615,-1.1291676203554744,1.6174563210497581
1539732262147237,0.6408789196611906,-2.8381780727854675,1.8005645838102282
1539732262163244,0.2746623941404778,-4.486152437628789,2.04470893415737
1539732262179251,-1.3122758831159445,-5.0354772259097444,2.410925459678083
1539732262195258,-2.3498893720911838,-4.303044174868319,2.655069810025225
1539732262211265,-2.532997634851654,-3.2654306858930795,2.655069810025225
1539732262227272,-1.6784924086366573,-2.655069810025225,2.5940337224383256
1539732262243279,-2.7161058976118966,-2.655069810025225,3.0212863355459376
1539732262259286,-4.119935912108076,-2.8381780727854675,3.2654306858930795
1539732262275292,-3.3264667734797513,-2.655069810025225,2.9602502479590385
1539732262291290,-1.1902037079423735,-2.5940337224383256,2.04470893415737
1539732262307297,0.3967345693140487,-2.7161058976118966,1.5564202334630863
1539732262323304,-0.9460593575952316,-2.7771419851987957,1.739528496223329
1539732262339311,-2.5940337224383256,-2.8992141603723667,2.04470893415737
1539732262355318,-3.570611123826893,-3.0212863355459376,1.9226367589837992
1539732262371325,-2.532997634851654,-2.9602502479590385,1.4343480582895154
1539732262387332,-1.0070954451819034,-2.655069810025225,0.9460593575952316
1539732262403339,-0.5798428320745188,-2.4719615472647547,0.9460593575952316
1539732262419345,-0.9460593575952316,-2.227817196917613,1.0681315327688026
1539732262435352,-0.6408789196611906,-2.04470893415737,0.9460593575952316
1539732262451359,-0.09155413138023505,-1.739528496223329,0.8239871824216607
1539732262467366,0.7019150072480898,-1.6174563210497581,0.7019150072480898
1539732262483373,0.3967345693140487,-1.5564202334630863,0.7019150072480898
1539732262499380,0.7629510948347615,-1.739528496223329,0.7019150072480898
1539732262515387,0.33569848172737693,-2.04470893415737,0.6408789196611906
1539732262531394,-0.6408789196611906,-2.410925459678083,0.5798428320745188
1539732262547401,-0.6408789196611906,-2.288853284504512,0.33569848172737693
1539732262563408,0.8239871824216607,-2.227817196917613,0.03051804379333589
1539732262579415,0.3967345693140487,-2.3498893720911838,-0.09155413138023505
1539732262595422,-0.5188067444876197,-2.288853284504512,-0.213626306553806
1539732262611419,0.09155413138023505,-1.8616006713969,-0.5798428320745188
1539732262627426,1.3733119707026162,-1.4343480582895154,-1.1902037079423735
1539732262643433,2.655069810025225,-0.9460593575952316,-1.9226367589837992
1539732262659440,3.0212863355459376,-0.6408789196611906,-1.9226367589837992
1539732262675447,1.9226367589837992,-0.6408789196611906,-1.5564202334630863
1539732262691454,1.1902037079423735,-0.8239871824216607,-1.5564202334630863
1539732262707461,0.5798428320745188,-1.0070954451819034,-1.6784924086366573
1539732262723468,1.5564202334630863,-0.9460593575952316,-1.9226367589837992
1539732262739475,3.5095750362402214,-0.6408789196611906,-2.166781109330941
1539732262755482,3.997863736934505,-0.3967345693140487,-2.105745021744042
1539732262771489,2.8992141603723667,-0.2746623941404778,-1.8005645838102282
1539732262787496,1.5564202334630863,0.03051804379333589,-1.6784924086366573
1539732262803503,1.8616006713969,0.45777065690094787,-1.4953841458761872
1539732262819510,2.7771419851987957,0.6408789196611906,-1.1902037079423735
1539732262835517,3.692683299000464,0.45777065690094787,-1.0070954451819034
1539732262851524,3.570611123826893,0.3967345693140487,-0.7019150072480898
1539732262867530,2.04470893415737,0.5798428320745188,-0.213626306553806
1539732262883537,0.7019150072480898,0.8850232700083325,0.213626306553806
1539732262899544,1.0070954451819034,1.4953841458761872,0.9460593575952316
1539732262915551,1.6784924086366573,1.6784924086366573,1.1902037079423735
1539732262931579,-0.45777065690094787,1.1902037079423735,1.4953841458761872
1539732262947586,-1.2512397955290453,1.4343480582895154,1.6174563210497581
1539732262963593,-1.8616006713969,1.5564202334630863,2.04470893415737
1539732262979600,-1.9226367589837992,1.2512397955290453,2.655069810025225
1539732262995607,0.3967345693140487,0.8850232700083325,2.9602502479590385
1539732263011614,1.1291676203554744,0.7019150072480898,2.3498893720911838
1539732263027621,-0.45777065690094787,0.09155413138023505,1.3122758831159445
1539732263043628,-2.5940337224383256,-1.0681315327688026,1.2512397955290453
1539732263059635,-4.974441138323073,-2.288853284504512,2.105745021744042
1539732263075642,-5.3406576638437855,-2.8992141603723667,2.5940337224383256
1539732263091649,-2.7161058976118966,-2.410925459678083,1.9226367589837992
1539732263107656,-0.8239871824216607,-2.04470893415737,0.7629510948347615
1539732263123663,1.0681315327688026,-1.9226367589837992,0.33569848172737693
1539732263139670,1.6174563210497581,-1.9226367589837992,0.15259021896690683
1539732263155676,2.166781109330941,-1.8616006713969,-0.33569848172737693
1539732263171683,5.279621576256886,-1.2512397955290453,-0.9460593575952316
1539732263187690,6.683451590753066,-0.6408789196611906,-1.1902037079423735
1539732263203697,4.730296787975931,-0.3967345693140487,-0.7019150072480898
1539732263219704,1.6174563210497581,-0.15259021896690683,-0.09155413138023505
1539732263235711,-1.3733119707026162,0.2746623941404778,0.33569848172737693
1539732263251709,0.9460593575952316,0.8850232700083325,-0.33569848172737693
1539732263267716,2.3498893720911838,0.7629510948347615,-1.1902037079423735
1539732263283723,3.0212863355459376,0.09155413138023505,-1.3733119707026162
1539732263299729,-0.8850232700083325,-0.7629510948347615,-0.6408789196611906
1539732263315736,-8.45349813076973,-1.739528496223329,1.3122758831159445
1539732263331743,-11.749446860456146,-2.8381780727854675,3.3875028610666504
1539732263347750,-6.622415503166167,-3.6316472114137923,4.119935912108076
1539732263363757,2.8381780727854675,-2.8381780727854675,2.655069810025225
1539732263379764,8.819714656290444,-1.3122758831159445,-0.15259021896690683
1539732263395771,6.927595941100208,-1.5564202334630863,-1.1902037079423735
1539732263411778,0.9460593575952316,-2.7771419851987957,0.7629510948347615
1539732263427785,-4.42511635004189,-3.875791561760934,3.0212863355459376
1539732263443792,-5.95101853971164,-3.692683299000464,3.2043945983061803
1539732263459799,-5.76791027695117,-2.7161058976118966,2.7771419851987957
1539732263475806,-5.76791027695117,-3.2043945983061803,1.6174563210497581
1539732263491813,-4.242008087281647,-4.303044174868319,0.6408789196611906
1539732263507820,-2.9602502479590385,-4.42511635004189,-0.03051804379333589
1539732263523827,-2.166781109330941,-3.875791561760934,-0.6408789196611906
1539732263539834,-2.9602502479590385,-2.5940337224383256,-0.7629510948347615
1539732263555841,-4.180971999694748,-1.6174563210497581,-0.7019150072480898
1539732263571838,-3.692683299000464,-1.4953841458761872,-0.5188067444876197
1539732263587845,-3.3264667734797513,-1.6784924086366573,-0.9460593575952316
1539732263603852,-0.3967345693140487,-1.0070954451819034,-1.739528496223329
1539732263619859,0.7629510948347615,-0.6408789196611906,-2.3498893720911838
1539732263635866,-2.5940337224383256,-3.1433585107195086,-2.166781109330941
1539732263651873,-9.918364232852582,-8.33142595559616,-1.0070954451819034
1539732263667880,-17.79201953154802,-13.397421225299468,3.4485389486533222
1539732263683887,-22.919050888838,-17.914091706721592,7.049668116273779
1539732263699894,-19.256885633630873,-21.45418478675515,9.369039444571627
1539732263715901,-12.909132524605184,-26.82536049439227,10.101472495613052
1539732263731907,-11.993591210803288,-36.713206683451745,8.270389868009488
1539732263747914,-20.477607385366582,-50.32425421530479,4.9134050507361735
1539732263763921,-20.782787823300396,-64.42359044785235,0.09155413138023505
1539732263779928,-13.031204699778755,-76.08148317692826,-4.242008087281647
1539732263795935,-9.124895094224485,-87.19005111772321,-8.33142595559616
1539732263811942,-9.430075532158298,-98.2986190585184,-13.275349050125897
1539732263827949,-7.721065079728305,-110.20065613794168,-18.036163881895163
1539732263843956,-7.843137254901876,-121.55336842908378,-22.61387045090396
1539732263859963,-10.040436408026153,-131.19707026779588,-29.022659647516548
1539732263875970,-12.481879911497572,-138.277256427863,-36.34699015793103
1539732263891998,-8.33142595559616,-140.90180819409466,-41.59609369039458
1539732263908005,-1.739528496223329,-139.4979781795987,-44.09857328145267
1539732263924012,11.993591210803288,-132.84504463263897,-43.73235675593196
1539732263940019,19.195849546043974,-121.79751277943092,-41.29091325246054
1539732263956026,17.914091706721592,-107.51506828412312,-36.89631494621199
1539732263972033,28.04608224612798,-89.69253070878153,-32.44068055237676
1539732263988040,42.938887617303635,-70.466163118944,-27.130540932326085
1539732264004047,52.46051728084194,-53.92538338292525,-21.881437399862534
1539732264020053,52.277409018081926,-40.619516289006015,-17.24269474326684
1539732264036060,44.34271763179959,-30.4264896620125,-15.411612115663274
1539732264052067,44.220645456626016,-22.79697871366443,-16.32715342946517
1539732264068074,50.629434653238604,-15.655756466010416,-15.960936903944457
1539732264084081,53.00984206912335,-7.843137254901876,-12.176699473563758
1539732264100088,41.96231021591507,-1.0681315327688026,-7.598992904554734
1539732264116095,28.900587472342977,11.566338597695903,-4.364080262455218
1539732264132102,24.689097428854666,35.065232318608196,-0.03051804379333589
1539732264148109,17.181658655680167,68.9402609292747,5.76791027695117
1539732264164116,-1.5564202334630863,116.24322880903355,12.787060349431613
1539732264180123,-52.155336842908355,178.80521858548855,26.337071793697987
1539732264196130,-144.01464866102083,258.5183489738306,58.38101777676047
1539732264212158,-146.57816433966582,371.55718318455774,89.75356679636843
1539732264228165,-106.53849088273455,498.5732814526591,107.45403219653645
1539732264244172,-463.35545891508355,352.7580682078278,67.90264744029946
1539732264260179,-148.2871747920958,25.543602655069662,56.0616464484624
1539732264276186,429.7856107423513,-68.57404440375376,-51.48393987945383
1539732264292193,62.897688258182825,-82.06301976043324,-55.87853818570238
1539732264308200,108.30853742275121,-83.71099412527656,-63.56908522163735
1539732264324206,81.39162279697894,-83.9551384756237,-53.498130769817635
1539732264340213,73.82314793621754,-83.9551384756237,-43.48821240558482
1539732264356220,49.46974898908957,-84.01617456321037,-34.94316014343485
1539732264372227,34.39383535515367,-83.9551384756237,-26.153963530937517
1539732264388234,19.9893186846723,-83.8941023880368,-18.402380407415876
1539732264404241,24.200808728160382,-72.84657053482874,-6.561379415579495
1539732264420248,9.55214770733187,-37.750820172426984,7.232776379034021
1539732264436255,-3.1433585107195086,-16.754406042572555,15.716792553597315
1539732264452262,-8.33142595559616,-3.6316472114137923,18.95170519569683
1539732264468269,-3.5095750362402214,9.55214770733187,17.181658655680167
1539732264484276,6.622415503166167,22.186617837796575,10.406652933546866
1539732264500283,2.7161058976118966,25.60463874265656,1.0681315327688026
1539732264516290,1.6784924086366573,21.637293049515392,-9.491111619745197
1539732264532287,4.42511635004189,17.303730830853738,-14.92332341496899
1539732264548294,0.09155413138023505,16.632333867398984,-15.167467765316132
1539732264564301,6.622415503166167,20.11139085984587,-12.603952086671143
1539732264580308,13.153276874952326,22.552834363317288,-8.575570305943302
1539732264596315,11.993591210803288,21.69832913710229,-6.439307240405924
1539732264612322,4.974441138323073,18.280308232242305,-6.012054627298312
1539732264628329,-3.936827649347606,14.98435950255589,-5.889982452124741
1539732264644336,0.213626306553806,12.481879911497572,-5.584802014190927
1539732264660343,5.645838101777599,8.819714656290444,-4.669260700389032
1539732264676350,4.303044174868319,4.974441138323073,-3.2043945983061803
1539732264692357,-0.45777065690094787,2.5940337224383256,-1.8616006713969
1539732264708364,-4.486152437628789,1.0681315327688026,-1.0681315327688026
1539732264724371,-1.4343480582895154,1.4343480582895154,0.2746623941404778
1539732264740378,0.09155413138023505,2.655069810025225,3.2654306858930795
1539732264756384,-1.3733119707026162,4.42511635004189,5.645838101777599
1539732264772391,-1.3733119707026162,5.645838101777599,5.889982452124741
1539732264788398,-3.570611123826893,6.073090714885211,4.852368963149502
1539732264804405,-5.76791027695117,5.76791027695117,4.058899824521177
1539732264820412,-0.45777065690094787,7.4158846417944915,3.570611123826893
1539732264836419,5.157549401083315,9.185931181811156,3.3875028610666504
1539732264852417,7.354848554207592,10.711833371480907,2.9602502479590385
1539732264868424,4.364080262455218,11.139085984588291,3.3875028610666504
1539732264884431,0.09155413138023505,9.124895094224485,3.3875028610666504
1539732264900437,1.1291676203554744,6.500343327992596,2.166781109330941
1539732264916444,2.7771419851987957,4.486152437628789,1.0070954451819034
1539732264932451,1.8616006713969,3.4485389486533222,1.4343480582895154
1539732264948458,-1.6174563210497581,3.0212863355459376,3.4485389486533222
1539732264964465,-4.42511635004189,2.04470893415737,5.3406576638437855
1539732264980472,-4.364080262455218,0.09155413138023505,6.134126802471883
1539732264996479,-3.0212863355459376,-1.5564202334630863,5.2185854886702145
1539732265012486,-0.213626306553806,-2.04470893415737,1.739528496223329
1539732265028493,2.166781109330941,-2.410925459678083,-2.288853284504512
1539732265044500,1.0681315327688026,-3.4485389486533222,-4.730296787975931
1539732265060507,-1.9226367589837992,-3.570611123826893,-5.462729839017356
1539732265076514,-1.2512397955290453,-1.6784924086366573,-4.852368963149502
1539732265092521,-1.2512397955290453,1.9226367589837992,-2.9602502479590385
1539732265108528,3.5095750362402214,6.073090714885211,-0.8850232700083325
1539732265124535,1.1291676203554744,6.683451590753066,0.5798428320745188
1539732265140542,-1.4953841458761872,5.279621576256886,-0.3967345693140487
1539732265156549,-3.570611123826893,3.5095750362402214,-2.8992141603723667
1539732265172546,-2.7771419851987957,2.105745021744042,-4.852368963149502
1539732265188553,-0.3967345693140487,1.739528496223329,-5.462729839017356
1539732265204560,2.04470893415737,0.5798428320745188,-5.76791027695117
1539732265220567,1.6174563210497581,-0.33569848172737693,-5.828946364538069
1539732265236574,0.03051804379333589,0.2746623941404778,-6.012054627298312
1539732265252581,1.3122758831159445,1.8616006713969,-5.3406576638437855
1539732265268588,3.5095750362402214,2.8992141603723667,-4.119935912108076
1539732265284595,5.0354772259097444,2.5940337224383256,-3.4485389486533222
1539732265300602,1.5564202334630863,-0.33569848172737693,-1.9226367589837992
1539732265316609,-2.105745021744042,-3.692683299000464,0.09155413138023505
1539732265332615,-5.95101853971164,-5.584802014190927,1.6174563210497581
1539732265348622,-4.669260700389032,-4.974441138323073,2.7161058976118966
1539732265364629,0.7629510948347615,-1.8005645838102282,2.655069810025225
1539732265380636,5.3406576638437855,2.7161058976118966,1.2512397955290453
1539732265396643,7.232776379034021,5.279621576256886,-1.983672846570471
1539732265412650,8.819714656290444,4.242008087281647,-4.974441138323073
1539732265428657,9.979400320439481,1.0070954451819034,-5.76791027695117
1539732265444664,9.185931181811156,-1.4953841458761872,-4.9134050507361735
1539732265460671,9.55214770733187,-1.2512397955290453,-3.1433585107195086
1539732265476678,6.927595941100208,-2.655069810025225,-2.3498893720911838
1539732265492706,1.3733119707026162,-5.157549401083315,-1.8005645838102282
1539732265508713,-3.2654306858930795,-6.134126802471883,-1.1902037079423735
1539732265524720,-2.288853284504512,-3.997863736934505,-1.2512397955290453
1539732265540727,-1.2512397955290453,-1.6784924086366573,-3.0212863355459376
1539732265556734,1.983672846570471,-0.09155413138023505,-5.157549401083315
1539732265572741,2.5940337224383256,-0.8239871824216607,-5.889982452124741
1539732265588748,2.227817196917613,-0.7629510948347615,-4.852368963149502
1539732265604755,0.8239871824216607,1.2512397955290453,-1.6784924086366573
1539732265620761,-2.04470893415737,2.7771419851987957,0.5798428320745188
1539732265636768,-0.45777065690094787,1.8005645838102282,1.0070954451819034
1539732265652775,1.983672846570471,-0.6408789196611906,-0.09155413138023505
1539732265668782,8.087281605249018,-2.04470893415737,-1.9226367589837992
1539732265684789,15.167467765316132,-1.5564202334630863,-3.2654306858930795
1539732265700796,16.388189517051842,-0.2746623941404778,-4.058899824521177
1539732265716803,13.031204699778755,-0.03051804379333589,-3.5095750362402214
1539732265732810,8.026245517662346,-0.33569848172737693,-1.8616006713969
1539732265748817,3.936827649347606,-1.0070954451819034,0.15259021896690683
1539732265764824,4.242008087281647,-1.1291676203554744,0.8850232700083325
1539732265780831,6.683451590753066,-1.1902037079423735,-0.03051804379333589
1539732265796838,6.8665598535133086,-1.3122758831159445,-0.8850232700083325
1539732265812835,9.430075532158298,-0.5188067444876197,-1.0681315327688026
1539732265828842,8.697642481116873,0.45777065690094787,-1.1902037079423735
1539732265844849,5.584802014190927,-0.15259021896690683,-0.33569848172737693
1539732265860856,1.4953841458761872,-1.2512397955290453,1.1902037079423735
1539732265876863,0.9460593575952316,-1.3122758831159445,2.105745021744042
1539732265892870,0.15259021896690683,-1.0681315327688026,2.5940337224383256
1539732265908877,0.45777065690094787,-0.6408789196611906,2.04470893415737
1539732265924884,-0.03051804379333589,-1.0681315327688026,1.1902037079423735
1539732265940891,-0.09155413138023505,-1.6174563210497581,1.0681315327688026
1539732265956898,-1.983672846570471,-1.5564202334630863,1.9226367589837992
1539732265972905,-4.242008087281647,-1.2512397955290453,2.8992141603723667
1539732265988912,-4.60822461280236,-1.0681315327688026,3.0212863355459376
1539732266004919,-1.983672846570471,-0.7629510948347615,2.3498893720911838
1539732266020926,2.532997634851654,0.09155413138023505,1.1291676203554744
1539732266036933,3.875791561760934,0.6408789196611906,0.213626306553806
1539732266052940,3.2654306858930795,0.8850232700083325,-0.09155413138023505
1539732266068946,3.0823224231326094,1.4953841458761872,0.33569848172737693
1539732266084953,0.5188067444876197,1.4343480582895154,1.3122758831159445
1539732266100960,-4.180971999694748,0.45777065690094787,2.227817196917613
1539732266116967,-3.875791561760934,-0.33569848172737693,2.105745021744042
1539732266132965,2.7771419851987957,-0.03051804379333589,0.8850232700083325
1539732266148972,7.721065079728305,0.213626306553806,-0.33569848172737693
1539732266164979,13.76363775082018,0.3967345693140487,-1.3733119707026162
1539732266180986,16.815442130159454,-0.3967345693140487,-1.2512397955290453
1539732266196992,13.824673838406852,-1.8005645838102282,-0.33569848172737693
1539732266212999,12.603952086671143,-2.5940337224383256,0.2746623941404778
1539732266229006,11.749446860456146,-1.8005645838102282,0.9460593575952316
1539732266245013,11.261158159761862,-0.7629510948347615,1.6784924086366573
1539732266261020,26.82536049439227,-0.15259021896690683,2.288853284504512
1539732266277027,26.7032883192187,-0.2746623941404778,1.0681315327688026
1539732266293034,26.031891355763946,-1.1291676203554744,-0.15259021896690683
1539732266309041,28.778515297169406,-1.5564202334630863,-1.3733119707026162
1539732266325048,17.975127794308264,-3.0823224231326094,-0.45777065690094787
1539732266341055,4.058899824521177,-3.570611123826893,0.7019150072480898
1539732266357062,-5.95101853971164,-3.0212863355459376,1.6174563210497581
1539732266373069,-20.660715648126825,-4.180971999694748,2.8381780727854675
1539732266389076,-30.670634012359642,-4.730296787975931,4.547188525215461
1539732266405083,-33.844510566872714,-4.180971999694748,5.401693751430457
1539732266421090,-29.571984435797503,-3.814755474174035,4.486152437628789
1539732266437097,-20.965896086060866,-2.655069810025225,2.8381780727854675
1539732266453094,-14.312962539101136,-2.3498893720911838,1.0681315327688026
1539732266469101,-10.528725108720437,-2.5940337224383256,0.45777065690094787
1539732266485108,-9.73525597009234,-2.5940337224383256,1.1291676203554744
1539732266501115,-9.491111619745197,-2.8381780727854675,1.6174563210497581
1539732266517122,-2.04470893415737,-2.166781109330941,1.0681315327688026
1539732266533129,1.9226367589837992,-1.739528496223329,-0.213626306553806
1539732266549136,0.7019150072480898,-2.532997634851654,-0.9460593575952316
1539732266565143,-2.7161058976118966,-3.3264667734797513,0.09155413138023505
1539732266581150,-5.76791027695117,-3.4485389486533222,2.166781109330941
1539732266597157,-6.927595941100208,-2.7771419851987957,3.692683299000464
1539732266613164,-7.2938124666209205,-2.655069810025225,4.180971999694748
1539732266629171,-8.148317692835917,-3.936827649347606,5.2185854886702145
1539732266645177,-6.378271152819025,-5.279621576256886,7.2938124666209205
1539732266661184,-0.5798428320745188,-4.60822461280236,6.134126802471883
1539732266677191,13.702601663233281,-2.105745021744042,2.288853284504512
1539732266693198,19.501029983978015,-1.4343480582895154,0.33569848172737693
1539732266709205,16.632333867398984,-1.6784924086366573,1.2512397955290453
1539732266725212,10.650797283894008,-2.5940337224383256,3.3875028610666504
1539732266741219,8.148317692835917,-2.7771419851987957,4.547188525215461
1539732266757226,8.819714656290444,-2.105745021744042,3.936827649347606
1539732266773254,11.627374685282575,-0.9460593575952316,2.227817196917613
1539732266789261,9.67421988250544,-0.45777065690094787,0.8239871824216607
1539732266805268,5.523765926604028,-1.0681315327688026,0.09155413138023505
1539732266821275,6.012054627298312,-1.6174563210497581,-0.09155413138023505
1539732266837282,9.002822919050914,-1.0070954451819034,-0.45777065690094787
1539732266853289,9.73525597009234,-0.3967345693140487,-1.4953841458761872
1539732266869296,8.026245517662346,-1.0070954451819034,-2.227817196917613
1539732266885303,3.7537193865873633,-2.655069810025225,-1.1902037079423735
1539732266901310,6.622415503166167,-3.2043945983061803,0.45777065690094787
1539732266917317,22.125581750209676,-1.3122758831159445,2.532997634851654
1539732266933323,12.970168612191856,-0.45777065690094787,3.2043945983061803
1539732266949330,13.824673838406852,-0.15259021896690683,2.227817196917613
1539732266965337,35.61455710688938,-0.8239871824216607,0.3967345693140487
1539732266981344,65.27809567406757,-0.03051804379333589,-0.2746623941404778
1539732266997351,73.51796749828372,1.983672846570471,0.8239871824216607
1539732267013358,68.26886396581995,4.486152437628789,0.6408789196611906
1539732267029365,53.498130769817635,5.645838101777599,0.213626306553806
1539732267045372,44.34271763179959,4.303044174868319,-1.739528496223329
1539732267061379,60.15106431677714,2.288853284504512,-6.927595941100208
1539732267077386,97.19996948195649,2.8381780727854675,-13.519493400473038
1539732267093414,124.42206454566258,3.997863736934505,-17.79201953154802
1539732267109421,127.35179674982828,3.7537193865873633,-18.58548867017612
1539732267125428,120.69886320286878,2.3498893720911838,-16.1440451667047
1539732267141435,99.45830472266744,0.8850232700083325,-12.23773556115043
1539732267157442,99.5193408102541,-0.03051804379333589,-12.115663385976859
1539732267173449,92.13397421225318,-0.15259021896690683,-12.054627298390187
1539732267189456,72.7855344472423,-0.9460593575952316,-9.430075532158298
1539732267205463,63.080796520943295,-0.9460593575952316,-6.927595941100208
1539732267221470,55.573357747768114,-1.1291676203554744,-5.401693751430457
1539732267237476,37.32356755931937,-3.570611123826893,-5.2185854886702145
1539732267253483,42.02334630350174,-4.60822461280236,-6.500343327992596
1539732267269490,57.09925993743764,-2.8381780727854675,-5.401693751430457
1539732267285497,69.8558022430766,-0.8239871824216607,-4.730296787975931
1539732267301504,68.1467917906466,-0.6408789196611906,-3.3264667734797513
1539732267317511,49.71389333943671,-1.3733119707026162,-2.04470893415737
1539732267333518,22.73594262607753,-3.4485389486533222,-0.3967345693140487
1539732267349525,7.537956816968062,-4.42511635004189,2.4719615472647547
1539732267365532,3.3264667734797513,-3.4485389486533222,4.852368963149502
1539732267381539,22.73594262607753,1.0070954451819034,5.096513313496644
1539732267397546,34.08865491721963,4.364080262455218,3.5095750362402214
1539732267413543,26.6422522316318,3.570611123826893,1.4343480582895154
1539732267429550,41.7792019531546,2.655069810025225,-1.0070954451819034
1539732267445557,62.165255207140945,1.983672846570471,-2.532997634851654
1539732267461564,76.75288014038324,2.227817196917613,-2.5940337224383256
1539732267477571,83.58892195010321,2.655069810025225,-2.9602502479590385
1539732267493578,83.52788586251654,2.5940337224383256,-2.532997634851654
1539732267509585,83.64995803768988,2.105745021744042,-0.8239871824216607
1539732267525592,94.08712901503031,1.8005645838102282,0.03051804379333589
1539732267541599,116.12115663385975,2.8992141603723667,-0.8239871824216607
1539732267557606,125.52071412222494,3.4485389486533222,-1.3122758831159445
1539732267573613,105.13466086823837,2.105745021744042,-0.7629510948347615
1539732267589620,71.25963225757232,0.7019150072480898,1.0681315327688026
1539732267605627,45.80758373388244,1.4343480582895154,2.105745021744042
1539732267621634,29.32784008545036,2.655069810025225,2.166781109330941
1539732267637641,23.651483939879427,3.6316472114137923,1.8616006713969
1539732267653648,35.004196231021524,5.462729839017356,1.983672846570471
1539732267669654,46.47898069733719,8.270389868009488,3.570611123826893
1539732267685661,41.474021515220784,9.918364232852582,5.76791027695117
1539732267701668,27.61882963302037,10.162508583199724,6.805523765926637
1539732267717675,21.27107652399468,9.73525597009234,4.9134050507361735
1539732267733703,31.403067063401068,9.55214770733187,1.8616006713969
1539732267749710,45.25825894560148,9.918364232852582,1.0070954451819034
1539732267765717,53.55916685740431,9.979400320439481,1.8005645838102282
1539732267781724,55.69542992294191,9.246967269398056,1.9226367589837992
1539732267797731,53.55916685740431,7.904173342488775,0.45777065690094787
1539732267813738,48.31006332494053,5.76791027695117,-1.1291676203554744
1539732267829745,42.877851529716736,3.2043945983061803,-1.4953841458761872
1539732267845752,46.662088960097435,1.3122758831159445,-1.6174563210497581
1539732267861759,54.535744258792874,1.4343480582895154,-1.3733119707026162
1539732267877766,54.535744258792874,2.04470893415737,-1.1902037079423735
1539732267893773,50.32425421530479,2.227817196917613,-1.739528496223329
1539732267909780,51.4229037918667,2.7161058976118966,-2.4719615472647547
1539732267925787,54.4747081712062,3.3264667734797513,-1.9226367589837992
1539732267941794,55.1461051346605,4.058899824521177,-1.3733119707026162
1539732267957800,47.51659418631243,4.364080262455218,-0.213626306553806
1539732267973807,33.3562218661782,3.997863736934505,0.8850232700083325
1539732267989814,27.679865720607268,3.2654306858930795,0.6408789196611906
1539732268005821,37.75082017242676,2.227817196917613,-0.5798428320745188
1539732268021828,45.80758373388244,1.1902037079423735,-0.6408789196611906
1539732268037835,53.498130769817635,1.739528496223329,0.2746623941404778
1539732268053833,49.225604638742425,1.8005645838102282,1.1291676203554744
1539732268069840,36.71320668345152,0.33569848172737693,0.8239871824216607
1539732268085847,28.900587472342977,-0.9460593575952316,0.09155413138023505
1539732268101853,27.313649195086555,-2.655069810025225,-0.33569848172737693
1539732268117860,38.42221713588151,-3.3875028610666504,-0.2746623941404778
1539732268133867,49.408712901502895,-3.692683299000464,-0.09155413138023505
1539732268149874,56.30579079880954,-3.3875028610666504,0.15259021896690683
1539732268165881,53.43709468223051,-3.0823224231326094,0.6408789196611906
1539732268181888,40.497444113832216,-2.5940337224383256,1.3122758831159445
1539732268197895,29.633020523384403,-1.6784924086366573,1.3122758831159445
1539732268213902,34.02761882963296,-0.8850232700083325,0.33569848172737693
1539732268229909,42.633707179369594,-1.0070954451819034,0.03051804379333589
1539732268245916,51.78912031738764,-0.7019150072480898,0.3967345693140487
1539732268261923,62.409399557488086,1.3122758831159445,0.45777065690094787
1539732268277930,40.314335851071746,1.2512397955290453,0.213626306553806
1539732268293937,34.76005188067438,3.3264667734797513,-0.03051804379333589
1539732268309944,47.638666361486,6.683451590753066,-0.213626306553806
1539732268325951,51.5449759670405,9.369039444571627,0.15259021896690683
1539732268341958,40.55848020141889,11.444266422522333,0.6408789196611906
1539732268357965,29.694056610971074,14.068818188753994,0.2746623941404778
1539732268373962,16.571297779812312,14.92332341496899,-1.6784924086366573
1539732268389969,8.51453421835663,14.251926451514464,-4.242008087281647
1539732268405976,20.782787823300396,14.98435950255589,-7.904173342488775
1539732268421983,33.722438391698915,16.02197299153113,-10.711833371480907
1539732268437990,40.74158846417936,16.1440451667047,-10.955977721828049
1539732268453997,67.53643091477852,16.510261692225413,-12.23773556115043
1539732268470004,47.33348592355219,10.284580758373295,-11.749446860456146
1539732268486011,34.63797970550081,3.875791561760934,-9.73525597009234
1539732268502018,53.43709468223051,0.7019150072480898,-6.744487678339738
1539732268518025,60.88349736781856,-1.8616006713969,-3.692683299000464
1539732268534031,52.2163729304948,-4.60822461280236,-1.0070954451819034
1539732268550038,50.75150682841195,-6.134126802471883,0.15259021896690683
1539732268566045,61.127641718165705,-4.974441138323073,0.45777065690094787
1539732268582052,68.69611657892756,-3.5095750362402214,0.15259021896690683
1539732268598059,73.4569314106966,-2.3498893720911838,0.3967345693140487
1539732268614066,76.44769970244943,-2.4719615472647547,0.6408789196611906
1539732268630073,75.65423056382087,-3.7537193865873633,0.03051804379333589
1539732268646080,68.69611657892756,-3.997863736934505,-0.5188067444876197
1539732268662087,62.9587243457695,-2.4719615472647547,-1.0070954451819034
1539732268678094,57.34340428778478,-0.5798428320745188,-1.4953841458761872
1539732268694091,58.56412603952049,-0.3967345693140487,-1.5564202334630863
1539732268710098,69.30647745479519,-0.6408789196611906,-0.5798428320745188
1539732268726105,81.39162279697894,-0.45777065690094787,0.9460593575952316
1539732268742112,86.57969024185559,-0.213626306553806,3.0823224231326094
1539732268758119,81.81887541008655,-0.8850232700083325,4.119935912108076
1539732268774126,78.70603494316038,-0.03051804379333589,3.7537193865873633
1539732268790133,72.90760662241564,1.739528496223329,3.2654306858930795
1539732268806140,57.58754863813192,2.655069810025225,3.2654306858930795
1539732268822147,45.624475471122196,2.3498893720911838,3.0823224231326094
1539732268838154,36.65217059586462,2.532997634851654,3.4485389486533222
1539732268854161,35.49248493171581,2.4719615472647547,2.655069810025225
1539732268870168,45.441367208361726,1.739528496223329,1.0681315327688026
1539732268886175,52.58258945601574,1.2512397955290453,0.9460593575952316
1539732268902182,56.54993514915668,0.8850232700083325,1.5564202334630863
1539732268918189,56.54993514915668,1.0070954451819034,2.410925459678083
1539732268934196,47.27244983596529,1.1902037079423735,3.0212863355459376
1539732268950203,42.57267109178292,1.4953841458761872,2.227817196917613
1539732268966210,46.05172808422958,1.739528496223329,0.7019150072480898
1539732268982216,46.35690852216362,2.105745021744042,0.2746623941404778
1539732268998223,39.52086671244365,3.2043945983061803,0.9460593575952316
1539732269014251,30.73167009994654,3.692683299000464,2.3498893720911838
1539732269030258,39.58190280003032,3.0212863355459376,2.655069810025225
1539732269046265,54.04745555809859,2.410925459678083,1.739528496223329
1539732269062272,66.25467307545614,4.364080262455218,0.45777065690094787
1539732269078279,60.51728084229762,6.500343327992596,-0.5188067444876197
1539732269094286,45.01411459525434,5.889982452124741,-1.1291676203554744
1539732269110293,37.689784084840085,3.7537193865873633,-1.5564202334630863
1539732269126300,47.943846799420044,2.8381780727854675,-1.3733119707026162
1539732269142307,56.000610360875726,3.570611123826893,-0.45777065690094787
1539732269158314,30.73167009994654,2.5940337224383256,1.8616006713969
1539732269174321,-2.7771419851987957,0.15259021896690683,3.814755474174035
1539732269190328,-20.843823910887295,-2.8381780727854675,3.2654306858930795
1539732269206335,-29.449912260623933,-4.791332875562603,0.5188067444876197
1539732269222342,-32.928969253071045,-3.692683299000464,-1.8616006713969
1539732269238349,-37.14045929655913,-1.3122758831159445,-1.739528496223329
1539732269254356,-35.431448844129136,-1.8005645838102282,-0.7019150072480898
1539732269270362,-6.9886320286868795,-3.936827649347606,0.3967345693140487
1539732269286369,32.13550011444249,-4.42511635004189,3.0823224231326094
1539732269302376,101.28938735027077,0.33569848172737693,8.51453421835663
1539732269318383,146.08987563897153,6.256198977645454,13.519493400473038
1539732269334381,129.9153124284735,4.42511635004189,15.167467765316132
1539732269350388,126.25314717326637,3.0823224231326094,14.618142977035177
1539732269366395,115.02250705729784,2.410925459678083,13.45845731288614
1539732269382402,87.37315938048368,1.739528496223329,13.275349050125897
1539732269398409,74.92179751277945,5.2185854886702145,11.07804989700162
1539732269414415,47.6997024490729,6.439307240405924,6.805523765926637
1539732269430422,8.209353780422589,4.547188525215461,1.6784924086366573
1539732269446429,-17.54787518120088,2.9602502479590385,-3.2654306858930795
1539732269462436,-46.17380025940338,1.8616006713969,-5.889982452124741
1539732269478443,-65.09498741130687,3.4485389486533222,-6.378271152819025
1539732269494450,-69.97787441824971,2.8992141603723667,-5.889982452124741
1539732269510457,-64.1794460975052,2.8992141603723667,-5.462729839017356
1539732269526464,-49.22560463874265,2.7771419851987957,-5.2185854886702145
1539732269542471,-33.72243839169914,3.3264667734797513,-4.42511635004189
1539732269558478,-30.060273136491787,3.570611123826893,-3.3264667734797513
1539732269574485,-39.215686274509835,4.180971999694748,-2.8992141603723667
1539732269590492,-57.77065690089262,6.500343327992596,-4.119935912108076
1539732269606499,-53.559166857404534,8.819714656290444,-5.523765926604028
1539732269622506,-4.242008087281647,11.871519035629717,-9.185931181811156
1539732269638513,-8.758678568703772,4.60822461280236,-9.124895094224485
1539732269654510,-12.298771648737329,-1.0681315327688026,-7.11070420386045
1539732269670517,28.595407034408936,1.8005645838102282,-4.60822461280236
1539732269686524,62.59250782024901,4.669260700389032,-0.7019150072480898
1539732269702531,78.5229266803999,4.730296787975931,3.875791561760934
1539732269718538,98.54276340886554,3.814755474174035,5.401693751430457
1539732269734545,130.5867093919278,2.8381780727854675,5.706874189364498
1539732269750552,149.874113069352,2.04470893415737,6.134126802471883
1539732269766559,148.10406652933534,1.3122758831159445,7.11070420386045
1539732269782566,139.4979781795987,1.1902037079423735,7.965209430075447
1539732269798573,132.35675593194492,0.8850232700083325,8.697642481116873
1539732269814580,122.65201800564591,-0.7019150072480898,8.880750743877343
1539732269830587,92.92744335088128,-0.9460593575952316,6.012054627298312
1539732269846593,67.71953917753899,0.33569848172737693,3.1433585107195086
1539732269862600,48.43213550011433,0.45777065690094787,1.4343480582895154
1539732269878607,28.473334859235365,0.09155413138023505,1.4343480582895154
1539732269894614,13.214312962538997,1.0681315327688026,1.9226367589837992
1539732269910621,2.4719615472647547,1.983672846570471,2.532997634851654
1539732269926628,-12.970168612191856,0.7019150072480898,2.227817196917613
1539732269942635,-31.158922713053926,-1.6174563210497581,1.739528496223329
1539732269958642,-47.089341573205274,-1.1902037079423735,0.09155413138023505
1539732269974670,-43.121995880064105,-1.1291676203554744,-2.8992141603723667
1539732269990677,-40.07019150072483,-3.7537193865873633,-4.058899824521177
1539732270006684,-46.54001678492409,-6.9886320286868795,-4.242008087281647
1539732270022691,-49.469748989089794,-9.369039444571627,-5.279621576256886
1539732270038698,-42.999923704890534,-10.162508583199724,-5.889982452124741
1539732270054705,-25.787747005416804,-9.979400320439481,-3.4485389486533222
1539732270070712,-4.669260700389032,-9.67421988250544,-0.15259021896690683
1539732270086719,25.726710917830133,-6.744487678339738,1.2512397955290453
1539732270102726,51.056687266346216,-1.8616006713969,3.1433585107195086
1539732270118733,74.61661707484564,2.4719615472647547,7.354848554207592
1539732270134740,102.81528953994075,7.049668116273779,11.07804989700162
1539732270150746,119.47814145113307,10.650797283894008,11.01701380941472
1539732270166753,115.63286793316547,14.373998626688035,4.303044174868319
1539732270182760,57.28236820019811,12.115663385976859,-4.486152437628789
1539732270198767,-7.354848554207592,7.843137254901876,-6.500343327992596
1539732270214774,-41.71816586556815,6.195162890058782,-8.33142595559616
1539732270230781,-79.98779278248253,2.5940337224383256,-12.542915999084471
1539732270246788,-103.97497520408956,-0.7019150072480898,-15.716792553597315
1539732270262795,-103.54772259098195,-1.8005645838102282,-16.08300907911803
1539732270278802,-84.56549935149155,-1.2512397955290453,-12.298771648737329
1539732270294830,-47.7607385366598,0.6408789196611906,-7.2938124666209205
1539732270310837,-12.726024261844714,1.2512397955290453,-2.7771419851987957
1539732270326844,30.853742275120112,0.6408789196611906,1.1291676203554744
1539732270342851,60.944533455405235,-0.6408789196611906,5.0354772259097444
1539732270358858,74.3724727244985,-0.33569848172737693,7.537956816968062
1539732270374865,76.75288014038324,-0.15259021896690683,8.51453421835663
1539732270390872,65.40016784924092,-0.33569848172737693,7.4158846417944915
1539732270406879,48.004882887006715,-0.45777065690094787,5.0354772259097444
1539732270422886,31.95239185168225,-1.0681315327688026,4.180971999694748
1539732270438892,20.416571297779683,-1.1902037079423735,3.2043945983061803
1539732270454899,10.162508583199724,-1.4343480582895154,2.5940337224383256
1539732270470906,-3.814755474174035,-0.5798428320745188,1.1291676203554744
1539732270486913,-14.435034714274707,1.0070954451819034,-1.4343480582895154
1539732270502920,-8.45349813076973,2.288853284504512,-2.3498893720911838
1539732270518927,4.791332875562603,3.6316472114137923,-1.8616006713969
1539732270534934,23.041123064011572,3.997863736934505,-0.8239871824216607
1539732270550941,40.070191500724604,3.6316472114137923,0.5188067444876197
1539732270566948,49.65285725185004,4.364080262455218,1.8616006713969
1539732270582955,52.277409018081926,4.852368963149502,3.2043945983061803
1539732270598962,51.5449759670405,5.706874189364498,2.8992141603723667
1539732270614959,52.39948119325527,5.95101853971164,2.8381780727854675
1539732270630966,41.16884107728674,5.0354772259097444,1.6174563210497581
1539732270646973,21.57625696192872,5.096513313496644,-0.6408789196611906
1539732270662980,8.392462043183059,5.2185854886702145,-1.6174563210497581
1539732270678987,6.256198977645454,4.486152437628789,-1.739528496223329
1539732270694994,17.48683909361398,3.2043945983061803,-0.45777065690094787
1539732270711001,27.069504844739413,1.6174563210497581,0.9460593575952316
1539732270727008,31.52513923857464,1.1291676203554744,1.739528496223329
1539732270743015,30.914778362706784,1.0681315327688026,1.739528496223329
1539732270759022,25.909819180590375,1.4953841458761872,0.5798428320745188
1539732270775029,20.538643472953254,1.8005645838102282,-1.3122758831159445
1539732270791036,12.23773556115043,1.3733119707026162,-2.532997634851654
1539732270807043,8.819714656290444,0.8239871824216607,-2.655069810025225
1539732270823050,7.721065079728305,0.45777065690094787,-2.410925459678083
1539732270839057,9.979400320439481,-0.33569848172737693,-1.6784924086366573
1539732270855064,14.373998626688035,-1.2512397955290453,-0.7629510948347615
1539732270871070,21.39314869916825,-1.8005645838102282,-0.15259021896690683
1539732270887077,26.153963530937517,-2.3498893720911838,0.3967345693140487
1539732270903084,21.69832913710229,-2.4719615472647547,-0.09155413138023505
1539732270919091,18.95170519569683,-1.4953841458761872,-0.8850232700083325
1539732270935089,9.491111619745197,-0.9460593575952316,-1.6784924086366573
1539732270951096,2.8381780727854675,-0.8239871824216607,-2.655069810025225
1539732270967103,-0.3967345693140487,-1.6174563210497581,-3.1433585107195086
1539732270983110,-1.0070954451819034,-2.9602502479590385,-3.936827649347606
1539732270999117,-4.058899824521177,-2.4719615472647547,-5.76791027695117
1539732271015123,-5.645838101777599,-1.5564202334630863,-5.76791027695117
1539732271031130,-7.2938124666209205,-2.288853284504512,-5.3406576638437855
1539732271047137,-0.5188067444876197,-0.8239871824216607,-4.486152437628789
1539732271063144,-0.7019150072480898,-1.4343480582895154,-3.4485389486533222
1539732271079151,1.3122758831159445,-1.8005645838102282,-3.0212863355459376
1539732271095158,2.227817196917613,-1.983672846570471,-2.532997634851654
1539732271111165,5.462729839017356,-1.8616006713969,-1.5564202334630863
1539732271127172,9.308003356984727,-1.4343480582895154,-0.7019150072480898
1539732271143179,12.23773556115043,-0.8239871824216607,0.15259021896690683
1539732271159186,14.190890363927565,-0.03051804379333589,0.7019150072480898
1539732271175193,15.960936903944457,0.5798428320745188,0.5798428320745188
1539732271191200,17.60891126878755,0.9460593575952316,0.9460593575952316
1539732271207207,17.914091706721592,0.8850232700083325,1.0681315327688026
1539732271223214,16.08300907911803,0.33569848172737693,0.5188067444876197
1539732271239221,8.148317692835917,-0.5188067444876197,-0.9460593575952316
1539732271255249,-0.9460593575952316,-1.0681315327688026,-3.1433585107195086
1539732271271256,-11.07804989700162,-1.2512397955290453,-5.584802014190927
1539732271287263,-24.444953078507524,-1.4953841458761872,-7.843137254901876
1539732271303269,-30.243381399252257,-1.3733119707026162,-9.185931181811156
1539732271319276,-19.01274128328373,-0.3967345693140487,-6.744487678339738
1539732271335283,-1.983672846570471,-0.8239871824216607,-5.2185854886702145
1539732271351290,8.148317692835917,0.2746623941404778,-3.6316472114137923
1539732271367297,14.618142977035177,1.8005645838102282,-1.8616006713969
1539732271383304,10.955977721828049,1.6174563210497581,-1.983672846570471
1539732271399311,0.09155413138023505,1.6784924086366573,-2.7161058976118966
1539732271415318,-8.148317692835917,1.1902037079423735,-3.6316472114137923
1539732271431325,-10.772869459067579,0.8239871824216607,-3.3875028610666504
1539732271447332,-2.7161058976118966,0.7019150072480898,-1.739528496223329
1539732271463339,9.002822919050914,0.5188067444876197,1.0681315327688026
1539732271479346,15.899900816357558,0.33569848172737693,3.5095750362402214
1539732271495353,17.303730830853738,0.2746623941404778,4.486152437628789
1539732271511360,11.749446860456146,-0.33569848172737693,3.814755474174035
1539732271527367,4.486152437628789,-1.0681315327688026,2.5940337224383256
1539732271543374,1.1902037079423735,-1.8005645838102282,1.8616006713969
1539732271559381,2.3498893720911838,-2.532997634851654,2.04470893415737
1539732271575378,7.4158846417944915,-2.8992141603723667,2.8992141603723667
1539732271591385,8.880750743877343,-3.2043945983061803,3.3875028610666504
1539732271607392,5.584802014190927,-3.692683299000464,2.8992141603723667
1539732271623399,1.4953841458761872,-4.547188525215461,2.227817196917613
1539732271639406,-0.45777065690094787,-5.645838101777599,2.04470893415737
1539732271655413,0.03051804379333589,-6.805523765926637,2.227817196917613
1539732271671420,1.0070954451819034,-7.476920729381163,2.3498893720911838
1539732271687427,2.8992141603723667,-7.660028992141633,2.5940337224383256
1539732271703434,9.063859006637585,-7.232776379034021,3.4485389486533222
1539732271719441,13.092240787365427,-6.378271152819025,4.119935912108076
1539732271735448,13.519493400473038,-4.974441138323073,3.814755474174035
1539732271751454,9.246967269398056,-3.7537193865873633,2.655069810025225
1539732271767461,3.814755474174035,-2.8381780727854675,1.3733119707026162
1539732271783468,0.9460593575952316,-2.532997634851654,0.45777065690094787
1539732271799475,3.0212863355459376,-3.0212863355459376,0.213626306553806
1539732271815482,9.369039444571627,-3.814755474174035,0.9460593575952316
1539732271831489,15.228503852903032,-4.60822461280236,1.8616006713969
1539732271847496,16.754406042572555,-5.706874189364498,2.227817196917613
1539732271863503,15.838864728770886,-6.317235065232353,1.983672846570471
1539732271879510,12.481879911497572,-6.378271152819025,0.8850232700083325
1539732271895507,8.026245517662346,-5.706874189364498,-0.45777065690094787
1539732271911514,3.7537193865873633,-4.486152437628789,-1.1291676203554744
1539732271927521,3.936827649347606,-2.8381780727854675,-0.9460593575952316
1539732271943528,6.439307240405924,-0.9460593575952316,-0.45777065690094787
1539732271959535,2.227817196917613,0.09155413138023505,-1.5564202334630863
1539732271975542,-15.716792553597315,-0.15259021896690683,-6.622415503166167
1539732271991549,-38.72739757381555,-0.09155413138023505,-11.993591210803288
1539732272007556,-53.681239032578105,0.8239871824216607,-15.777828641183987
1539732272023563,-48.98146028839551,2.227817196917613,-14.312962539101136
1539732272039570,-24.750133516441565,3.4485389486533222,-10.101472495613052
1539732272055577,18.463416495002548,4.974441138323073,-7.904173342488775
