Timestamp (microseconds),Accel X (g),Accel Y (g),Accel Z (g)
1539731978856842,-0.3471122301060503,0.5541466392004271,-0.7539787899595636
1539731978872838,-0.3333180743114368,0.5591515983825435,-0.7541008621347371
1539731978888835,-0.32587167162584896,0.5612268253604942,-0.7566643778133821
1539731978904831,-0.3235523002975511,0.5641565575646599,-0.7537346456092164
1539731978920827,-0.3273365377279318,0.5586633096818492,-0.7539787899595636
1539731978936824,-0.3314869916838332,0.5647669184405277,-0.7508049134050507
1539731978952820,-0.3366140230411232,0.5625696192874035,-0.753002212558175
1539731978968817,-0.3386892500190739,0.5620813305867092,-0.7548332951857786
1539731978984813,-0.34601358052948816,0.5613488975356677,-0.7559319447623407
1539731979000810,-0.35150682841229886,0.5612268253604942,-0.7549553673609521
1539731979016806,-0.354314488441291,0.5611047531853206,-0.7532463569085222
1539731979032803,-0.3538261997405967,0.5603723201342792,-0.7523918516823072
1539731979048799,-0.35028610666056315,0.5600061036087585,-0.7509269855802243
1539731979064796,-0.3530937666895553,0.5591515983825435,-0.749584191653315
1539731979080792,-0.350896467536431,0.5574425879301135,-0.74531166552224
1539731979096789,-0.3496757457846953,0.5586633096818492,-0.7466544594491493
1539731979112785,-0.3400320439459832,0.5586633096818492,-0.7462882429236286
1539731979128781,-0.3395437552452889,0.557564660105287,-0.747875181200885
1539731979144778,-0.34100862134737175,0.558419165331502,-0.7477531090257115
1539731979160774,-0.3429617761501489,0.5574425879301135,-0.7477531090257115
1539731979176788,-0.34991989013504243,0.559273670557717,-0.7451895933470665
1539731979192784,-0.35321583886472885,0.555855649652857,-0.7492179751277943
1539731979208781,-0.3493095292591746,0.5578088044556342,-0.7522697795071336
1539731979224777,-0.345769436179141,0.5597619592584113,-0.7517814908064393
1539731979240774,-0.3496757457846953,0.5568322270542456,-0.7520256351567864
1539731979256770,-0.34991989013504243,0.5581750209811549,-0.7549553673609521
1539731979272767,-0.34808880750743887,0.5587853818570228,-0.7514152742809186
1539731979288763,-0.3357595178149082,0.562691691462577,-0.7549553673609521
1539731979304760,-0.34479285877775245,0.556710154879072,-0.7475089646753643
1539731979320756,-0.3463797970550089,0.5595178149080642,-0.7431143663691158
1539731979336753,-0.34479285877775245,0.5589074540321963,-0.7472648203250172
1539731979352749,-0.33893339436942105,0.559273670557717,-0.7503166247043564
1539731979368745,-0.3369802395666439,0.5613488975356677,-0.7489738307774472
1539731979384742,-0.3395437552452889,0.5637903410391392,-0.7449454489967193
1539731979400738,-0.34320592050049603,0.5611047531853206,-0.7493400473029679
1539731979416735,-0.3463797970550089,0.5602502479591056,-0.7514152742809186
1539731979432731,-0.345769436179141,0.5612268253604942,-0.7541008621347371
1539731979448728,-0.3445487144274053,0.5612268253604942,-0.7539787899595636
1539731979464724,-0.3412527656977189,0.5607385366597999,-0.754711223010605
1539731979480721,-0.34186312657358675,0.5617151140611885,-0.7544670786602579
1539731979496704,-0.34308384832532246,0.5633020523384449,-0.7487296864271
1539731979512700,-0.34686808575570316,0.5602502479591056,-0.7479972533760586
1539731979528697,-0.3450370031280996,0.5590295262073699,-0.7468986037994965
1539731979544693,-0.34027618829633033,0.5596398870832378,-0.7499504081788357
1539731979560690,-0.3395437552452889,0.5600061036087585,-0.7490959029526207
1539731979576686,-0.3425955596246282,0.5580529488059813,-0.7465323872739758
1539731979592682,-0.34442664225223174,0.5580529488059813,-0.7481193255512322
1539731979608679,-0.3512626840619517,0.5580529488059813,-0.74531166552224
1539731979624675,-0.3546807049668117,0.5578088044556342,-0.7475089646753643
1539731979640672,-0.354314488441291,0.5615930418860149,-0.7517814908064393
1539731979656668,-0.3550469214923324,0.5604943923094527,-0.7527580682078279
1539731979672665,-0.3576104371709774,0.5597619592584113,-0.754711223010605
1539731979688661,-0.35748836499580383,0.5608606088349735,-0.75385671778439
1539731979704658,-0.3512626840619517,0.5625696192874035,-0.7519035629816129
1539731979720654,-0.34601358052948816,0.5625696192874035,-0.7532463569085222
1539731979736651,-0.3419851987487603,0.5628137636377506,-0.753002212558175
1539731979752647,-0.3396658274204625,0.5615930418860149,-0.7505607690547036
1539731979768643,-0.3379568169680325,0.561837186236362,-0.7450675211718929
1539731979784640,-0.3307545586327918,0.5614709697108413,-0.7477531090257115
1539731979800636,-0.33344014648661036,0.5559777218280306,-0.7486076142519265
1539731979816497,-0.3378347447928589,0.5589074540321963,-0.7448233768215458
1539731979832493,-0.3400320439459832,0.5546349279011213,-0.7443350881208515
1539731979848489,-0.33685816739147034,0.5569542992294192,-0.7450675211718929
1539731979864485,-0.3369802395666439,0.5585412375066756,-0.7494621194781415
1539731979880481,-0.3411306935225453,0.556710154879072,-0.7517814908064393
1539731979896477,-0.34699015793087673,0.5589074540321963,-0.7527580682078279
1539731979912473,-0.3521171892881667,0.5606164644846263,-0.7508049134050507
1539731979928469,-0.3563897154192417,0.5590295262073699,-0.7479972533760586
1539731979944465,-0.35358205539024956,0.559273670557717,-0.7508049134050507
1539731979960461,-0.351750972762646,0.5613488975356677,-0.7493400473029679
1539731979976457,-0.350896467536431,0.5619592584115356,-0.7498283360036622
1539731979992453,-0.34821087968261244,0.560982681010147,-0.751293202105745
1539731980008449,-0.34222934309910746,0.5604943923094527,-0.7533684290836957
1539731980024445,-0.3353933012893875,0.5608606088349735,-0.7534905012588693
1539731980040441,-0.33344014648661036,0.5600061036087585,-0.7501945525291829
1539731980056437,-0.3350270847638668,0.5590295262073699,-0.7500724803540093
1539731980072433,-0.3345387960631725,0.5582970931563285,-0.7473868925001907
1539731980088429,-0.3328297856107425,0.5580529488059813,-0.7489738307774472
1539731980104425,-0.3373464560921646,0.5580529488059813,-0.7488517586022736
1539731980120421,-0.34222934309910746,0.5603723201342792,-0.7467765316243229
1539731980136230,-0.34808880750743887,0.5597619592584113,-0.7457999542229343
1539731980152226,-0.35199511711299314,0.5602502479591056,-0.7476310368505379
1539731980168221,-0.3579766536964981,0.5597619592584113,-0.7517814908064393
1539731980184217,-0.357732509346151,0.5600061036087585,-0.7511711299305714
1539731980200212,-0.35651178759441526,0.5623254749370563,-0.7508049134050507
1539731980216208,-0.356023498893721,0.5637903410391392,-0.7523918516823072
1539731980232203,-0.3546807049668117,0.5625696192874035,-0.75385671778439
1539731980248199,-0.351750972762646,0.5603723201342792,-0.7511711299305714
1539731980264194,-0.3539482719157703,0.5590295262073699,-0.7489738307774472
1539731980280190,-0.34894331273365387,0.5611047531853206,-0.747875181200885
1539731980296185,-0.34528114747844674,0.5613488975356677,-0.744457160296025
1539731980312181,-0.3383230334935532,0.560982681010147,-0.7471427481498436
1539731980328176,-0.3362478065156025,0.5624475471122299,-0.7492179751277943
1539731980344172,-0.33600366216525535,0.560982681010147,-0.7501945525291829
1539731980360167,-0.3388113221942475,0.5593957427328906,-0.7494621194781415
1539731980376163,-0.3421072709239339,0.5606164644846263,-0.7490959029526207
1539731980392158,-0.344914930952926,0.5602502479591056,-0.7503166247043564
1539731980408154,-0.34613565270466173,0.5615930418860149,-0.751293202105745
1539731980424149,-0.3450370031280996,0.5619592584115356,-0.7536125734340429
1539731980440145,-0.34528114747844674,0.5613488975356677,-0.7536125734340429
1539731980455993,-0.350896467536431,0.5631799801632713,-0.749584191653315
1539731980471988,-0.35529106584267955,0.5629358358129242,-0.7451895933470665
1539731980487982,-0.35114061188677814,0.561837186236362,-0.7451895933470665
1539731980503977,-0.34723430228122387,0.5629358358129242,-0.7476310368505379
1539731980519971,-0.344914930952926,0.560982681010147,-0.7494621194781415
1539731980535966,-0.34601358052948816,0.5602502479591056,-0.74702067597467
1539731980551961,-0.34723430228122387,0.5612268253604942,-0.7437247272449836
1539731980567955,-0.3438162813763639,0.5596398870832378,-0.74702067597467
1539731980583950,-0.3379568169680325,0.5596398870832378,-0.75043869687953
1539731980599944,-0.33856717784390034,0.5614709697108413,-0.749584191653315
1539731980615939,-0.33978789959563604,0.5603723201342792,-0.7486076142519265
1539731980631933,-0.3407644769970246,0.5633020523384449,-0.7516594186312657
1539731980647928,-0.33942168307011533,0.5634241245136185,-0.75214770733196
1539731980663922,-0.3417410543984132,0.5634241245136185,-0.7523918516823072
1539731980679917,-0.34442664225223174,0.5633020523384449,-0.7511711299305714
1539731980695912,-0.34613565270466173,0.563546196688792,-0.7489738307774472
1539731980711906,-0.34528114747844674,0.5604943923094527,-0.7493400473029679
1539731980727901,-0.3455252918287939,0.5611047531853206,-0.7510490577553979
1539731980743895,-0.34430457007705817,0.5604943923094527,-0.7497062638284886
1539731980759890,-0.348332951857786,0.5597619592584113,-0.7465323872739758
1539731980775695,-0.350896467536431,0.560128175783932,-0.7460440985732815
1539731980791689,-0.3539482719157703,0.5593957427328906,-0.7448233768215458
1539731980807684,-0.355168993667506,0.5582970931563285,-0.7449454489967193
1539731980823678,-0.3546807049668117,0.5595178149080642,-0.7428702220187686
1539731980839672,-0.3539482719157703,0.560982681010147,-0.7439688715953308
1539731980855666,-0.353459983215076,0.5611047531853206,-0.7434805828946365
1539731980871660,-0.3505302510109103,0.5608606088349735,-0.7472648203250172
1539731980887654,-0.3495536736095217,0.5607385366597999,-0.7483634699015793
1539731980903648,-0.3505302510109103,0.561837186236362,-0.7479972533760586
1539731980919642,-0.34699015793087673,0.5629358358129242,-0.7501945525291829
1539731980935636,-0.3416189822232396,0.563546196688792,-0.7533684290836957
1539731980951630,-0.3391775387197682,0.5651331349660484,-0.7522697795071336
1539731980967624,-0.3382009613183796,0.5633020523384449,-0.7506828412298772
1539731980983618,-0.3358815899900818,0.5624475471122299,-0.7520256351567864
1539731980999612,-0.3379568169680325,0.5647669184405277,-0.7455558098725872
1539731981015607,-0.3328297856107425,0.5640344853894863,-0.7467765316243229
1539731981031601,-0.3333180743114368,0.5595178149080642,-0.7484855420767529
1539731981047595,-0.34222934309910746,0.5593957427328906,-0.7438467994201572
1539731981063589,-0.349187457084001,0.5607385366597999,-0.74360265506981
1539731981079583,-0.355168993667506,0.559273670557717,-0.7426260776684215
1539731981095459,-0.3588311589227131,0.5615930418860149,-0.7467765316243229
1539731981111452,-0.3589532310978867,0.5640344853894863,-0.7479972533760586
1539731981127446,-0.3521171892881667,0.5659876401922634,-0.7517814908064393
1539731981143439,-0.3501640344853896,0.5681849393453877,-0.75556572823682
1539731981159433,-0.3463797970550089,0.5663538567177842,-0.75385671778439
1539731981175427,-0.3429617761501489,0.5662317845426106,-0.7484855420767529
1539731981191420,-0.33929961089494176,0.5648889906157013,-0.7483634699015793
1539731981207414,-0.33759060044251177,0.5612268253604942,-0.7476310368505379
1539731981223407,-0.33771267261768534,0.5613488975356677,-0.7454337376974136
1539731981239401,-0.3378347447928589,0.558419165331502,-0.7421377889677272
1539731981255395,-0.3403982604715039,0.5600061036087585,-0.74360265506981
1539731981271388,-0.3399099717708096,0.5580529488059813,-0.7448233768215458
1539731981287382,-0.34052033264667747,0.5591515983825435,-0.7447013046463722
1539731981303375,-0.34515907530327317,0.5607385366597999,-0.74702067597467
1539731981319369,-0.344914930952926,0.5620813305867092,-0.7475089646753643
1539731981335363,-0.3484550240329596,0.5619592584115356,-0.7484855420767529
1539731981351356,-0.34650186923018245,0.5642786297398334,-0.75043869687953
1539731981367350,-0.34308384832532246,0.5645227740901806,-0.7537346456092164
1539731981383343,-0.34528114747844674,0.5662317845426106,-0.7489738307774472
1539731981399337,-0.34613565270466173,0.5647669184405277,-0.7487296864271
1539731981415161,-0.3450370031280996,0.563546196688792,-0.7514152742809186
1539731981431153,-0.3438162813763639,0.5623254749370563,-0.7514152742809186
1539731981447146,-0.3411306935225453,0.5617151140611885,-0.7466544594491493
1539731981463139,-0.34186312657358675,0.5606164644846263,-0.7449454489967193
1539731981479131,-0.3441824979018846,0.5591515983825435,-0.7443350881208515
1539731981495124,-0.3441824979018846,0.5596398870832378,-0.747875181200885
1539731981511117,-0.34857709620813315,0.5597619592584113,-0.7457999542229343
1539731981527109,-0.35065232318608386,0.557564660105287,-0.7456778820477608
1539731981543102,-0.34772259098191816,0.5598840314335849,-0.7460440985732815
1539731981559095,-0.3478446631570917,0.5614709697108413,-0.7445792324711986
1539731981575087,-0.345769436179141,0.5631799801632713,-0.7477531090257115
1539731981591080,-0.34271763179980175,0.563546196688792,-0.7497062638284886
1539731981607072,-0.34235141527428103,0.5646448462653542,-0.7483634699015793
1539731981623065,-0.3411306935225453,0.5647669184405277,-0.7510490577553979
1539731981639058,-0.34186312657358675,0.563546196688792,-0.7511711299305714
1539731981655050,-0.34100862134737175,0.5628137636377506,-0.7511711299305714
1539731981671043,-0.33844510566872676,0.5622034027618827,-0.7492179751277943
1539731981687036,-0.34137483787289247,0.5619592584115356,-0.7455558098725872
1539731981703028,-0.34149691004806604,0.5598840314335849,-0.7437247272449836
1539731981719021,-0.34015411612115676,0.5596398870832378,-0.7433585107194629
1539731981734863,-0.34015411612115676,0.560982681010147,-0.7466544594491493
1539731981750855,-0.3396658274204625,0.5603723201342792,-0.7465323872739758
1539731981766847,-0.3411306935225453,0.5615930418860149,-0.7511711299305714
1539731981782839,-0.34308384832532246,0.5628137636377506,-0.7514152742809186
1539731981798832,-0.34442664225223174,0.5663538567177842,-0.749584191653315
1539731981814824,-0.345769436179141,0.5670862897688256,-0.7523918516823072
1539731981830816,-0.3467460135805296,0.565255207141222,-0.75214770733196
1539731981846808,-0.3484550240329596,0.5646448462653542,-0.7501945525291829
1539731981862800,-0.348332951857786,0.5664759288929577,-0.7489738307774472
1539731981878792,-0.3484550240329596,0.5648889906157013,-0.7479972533760586
1539731981894785,-0.348332951857786,0.5603723201342792,-0.7517814908064393
1539731981910777,-0.3493095292591746,0.5620813305867092,-0.7459220263981079
1539731981926769,-0.3496757457846953,0.5615930418860149,-0.7428702220187686
1539731981942761,-0.34564736400396745,0.5595178149080642,-0.7471427481498436
1539731981958753,-0.3441824979018846,0.5617151140611885,-0.7438467994201572
1539731981974745,-0.34430457007705817,0.5611047531853206,-0.7442130159456779
1539731981990738,-0.34528114747844674,0.560128175783932,-0.7457999542229343
1539731982006730,-0.3429617761501489,0.5597619592584113,-0.7479972533760586
1539731982022722,-0.3395437552452889,0.562691691462577,-0.7471427481498436
1539731982038714,-0.3408865491721982,0.5625696192874035,-0.7489738307774472
1539731982054626,-0.34186312657358675,0.563546196688792,-0.749584191653315
1539731982070618,-0.344060425726711,0.5637903410391392,-0.7536125734340429
1539731982086609,-0.34528114747844674,0.5665980010681313,-0.7517814908064393
1539731982102601,-0.34479285877775245,0.5665980010681313,-0.7520256351567864
1539731982118593,-0.3467460135805296,0.5648889906157013,-0.7499504081788357
1539731982134585,-0.34564736400396745,0.563546196688792,-0.7471427481498436
1539731982150576,-0.34393835355153746,0.5620813305867092,-0.7467765316243229
1539731982166568,-0.3438162813763639,0.5615930418860149,-0.7466544594491493
1539731982182560,-0.34528114747844674,0.5578088044556342,-0.7440909437705043
1539731982198551,-0.3450370031280996,0.5585412375066756,-0.7421377889677272
1539731982214543,-0.346623941405356,0.5587853818570228,-0.742748149843595
1539731982230535,-0.3438162813763639,0.5576867322804606,-0.7472648203250172
1539731982246526,-0.3416189822232396,0.5614709697108413,-0.7486076142519265
1539731982262518,-0.34564736400396745,0.5617151140611885,-0.7489738307774472
1539731982278510,-0.3462577248798353,0.5640344853894863,-0.7498283360036622
1539731982294501,-0.34479285877775245,0.5641565575646599,-0.7498283360036622
1539731982310493,-0.3429617761501489,0.5647669184405277,-0.75043869687953
1539731982326485,-0.3416189822232396,0.5647669184405277,-0.7497062638284886
1539731982342476,-0.3434500648508432,0.5637903410391392,-0.7519035629816129
1539731982358468,-0.3454032196536203,0.5625696192874035,-0.7514152742809186
1539731982374328,-0.345769436179141,0.5633020523384449,-0.74702067597467
1539731982390319,-0.34686808575570316,0.5617151140611885,-0.7464103150988022
1539731982406311,-0.3416189822232396,0.5625696192874035,-0.7471427481498436
1539731982422302,-0.33929961089494176,0.5617151140611885,-0.7494621194781415
1539731982438293,-0.3362478065156025,0.5623254749370563,-0.7487296864271
1539731982454284,-0.3369802395666439,0.5603723201342792,-0.7501945525291829
1539731982470276,-0.3383230334935532,0.5613488975356677,-0.7451895933470665
1539731982486267,-0.3388113221942475,0.5613488975356677,-0.74531166552224
1539731982502258,-0.33563744563973463,0.5591515983825435,-0.7483634699015793
1539731982518249,-0.3388113221942475,0.5623254749370563,-0.7486076142519265
1539731982534240,-0.34308384832532246,0.5619592584115356,-0.7471427481498436
1539731982550232,-0.3441824979018846,0.5619592584115356,-0.7486076142519265
1539731982566223,-0.3479667353322653,0.5640344853894863,-0.7511711299305714
1539731982582214,-0.3478446631570917,0.5640344853894863,-0.7489738307774472
1539731982598205,-0.35150682841229886,0.5625696192874035,-0.7501945525291829
1539731982614196,-0.353459983215076,0.5619592584115356,-0.7479972533760586
1539731982630188,-0.35321583886472885,0.5619592584115356,-0.7498283360036622
1539731982646179,-0.3467460135805296,0.5598840314335849,-0.749584191653315
1539731982662170,-0.346623941405356,0.560982681010147,-0.7440909437705043
1539731982678161,-0.34442664225223174,0.5612268253604942,-0.7460440985732815
1539731982694061,-0.3429617761501489,0.5612268253604942,-0.7462882429236286
1539731982710052,-0.3412527656977189,0.5622034027618827,-0.7464103150988022
1539731982726043,-0.3403982604715039,0.561837186236362,-0.7508049134050507
1539731982742035,-0.33929961089494176,0.5608606088349735,-0.75043869687953
1539731982758026,-0.34222934309910746,0.5612268253604942,-0.7462882429236286
1539731982774017,-0.3436942092011903,0.5624475471122299,-0.74702067597467
1539731982790008,-0.34357213702601674,0.5611047531853206,-0.7462882429236286
1539731982805999,-0.3463797970550089,0.5611047531853206,-0.7462882429236286
1539731982821991,-0.34906538490882744,0.560982681010147,-0.7450675211718929
1539731982837982,-0.349187457084001,0.5634241245136185,-0.7484855420767529
1539731982853973,-0.34479285877775245,0.5648889906157013,-0.7534905012588693
1539731982869964,-0.3421072709239339,0.5651331349660484,-0.7525139238574807
1539731982885955,-0.34723430228122387,0.5641565575646599,-0.7492179751277943
1539731982901947,-0.3486991683833067,0.5645227740901806,-0.7482413977264057
1539731982917938,-0.34857709620813315,0.5625696192874035,-0.7482413977264057
1539731982933929,-0.34991989013504243,0.5619592584115356,-0.7468986037994965
1539731982949920,-0.3488212405584803,0.560128175783932,-0.7451895933470665
1539731982965911,-0.34821087968261244,0.558419165331502,-0.7447013046463722
1539731982981903,-0.34442664225223174,0.5587853818570228,-0.7475089646753643
1539731982997894,-0.34271763179980175,0.5620813305867092,-0.7450675211718929
1539731983013794,-0.3450370031280996,0.5623254749370563,-0.7448233768215458
1539731983029784,-0.351750972762646,0.5614709697108413,-0.7493400473029679
1539731983045775,-0.3478446631570917,0.5622034027618827,-0.7501945525291829
1539731983061766,-0.344060425726711,0.5659876401922634,-0.7492179751277943
1539731983077757,-0.3433279926756696,0.565255207141222,-0.7514152742809186
1539731983093747,-0.3416189822232396,0.5662317845426106,-0.7483634699015793
1539731983109738,-0.34308384832532246,0.5642786297398334,-0.7487296864271
1539731983125729,-0.3467460135805296,0.5615930418860149,-0.7465323872739758
1539731983141719,-0.34857709620813315,0.5607385366597999,-0.7459220263981079
1539731983157710,-0.3495536736095217,0.5615930418860149,-0.7428702220187686
1539731983173701,-0.34735637445639744,0.5587853818570228,-0.7421377889677272
1539731983189692,-0.3471122301060503,0.5589074540321963,-0.7454337376974136
1539731983205682,-0.34699015793087673,0.5587853818570228,-0.7466544594491493
1539731983221673,-0.34613565270466173,0.5613488975356677,-0.7479972533760586
1539731983237664,-0.34393835355153746,0.5648889906157013,-0.747875181200885
1539731983253655,-0.3428397039749753,0.5654993514915692,-0.749584191653315
1539731983269645,-0.3434500648508432,0.5631799801632713,-0.7549553673609521
1539731983285636,-0.3438162813763639,0.5663538567177842,-0.7514152742809186
1539731983301627,-0.34650186923018245,0.5630579079880977,-0.7486076142519265
1539731983317618,-0.3488212405584803,0.5623254749370563,-0.7475089646753643
1539731983333526,-0.3471122301060503,0.5625696192874035,-0.7472648203250172
1539731983349516,-0.3429617761501489,0.5612268253604942,-0.7472648203250172
1539731983365507,-0.3369802395666439,0.5617151140611885,-0.7499504081788357
1539731983381497,-0.3411306935225453,0.5624475471122299,-0.746166170748455
1539731983397487,-0.3484550240329596,0.5628137636377506,-0.7404287785152972
1539731983413478,-0.35065232318608386,0.5613488975356677,-0.74360265506981
1539731983429468,-0.3513847562371253,0.5631799801632713,-0.7492179751277943
1539731983445458,-0.35321583886472885,0.563546196688792,-0.7519035629816129
1539731983461448,-0.3546807049668117,0.5674525062943463,-0.754711223010605
1539731983477439,-0.3572442206454567,0.5637903410391392,-0.7569085221637293
1539731983493429,-0.35480277714198527,0.5650110627908749,-0.7514152742809186
1539731983509419,-0.35236133363851385,0.562691691462577,-0.7457999542229343
1539731983525409,-0.34821087968261244,0.5608606088349735,-0.7404287785152972
1539731983541400,-0.3441824979018846,0.5590295262073699,-0.7398184176394293
1539731983557390,-0.34357213702601674,0.5545128557259478,-0.7394522011139086
1539731983573380,-0.34027618829633033,0.5550011444266421,-0.7437247272449836
1539731983589370,-0.3344167238879989,0.5564660105287249,-0.7429922941939422
1539731983605361,-0.3328297856107425,0.560128175783932,-0.7445792324711986
1539731983621351,-0.3345387960631725,0.5628137636377506,-0.7472648203250172
1539731983637341,-0.3383230334935532,0.5639124132143127,-0.7473868925001907
1539731983653228,-0.3408865491721982,0.561837186236362,-0.7492179751277943
1539731983669218,-0.34601358052948816,0.5648889906157013,-0.7457999542229343
1539731983685208,-0.35101853971160457,0.5598840314335849,-0.7479972533760586
1539731983701198,-0.349187457084001,0.5633020523384449,-0.7497062638284886
1539731983717188,-0.344914930952926,0.5646448462653542,-0.7468986037994965
1539731983733177,-0.3407644769970246,0.566964217593652,-0.7486076142519265
1539731983749167,-0.34308384832532246,0.5656214236667427,-0.7490959029526207
1539731983765157,-0.3530937666895553,0.5653772793163956,-0.753002212558175
1539731983781147,-0.3667658503089952,0.5600061036087585,-0.7517814908064393
1539731983797136,-0.37079423208972306,0.5600061036087585,-0.7454337376974136
1539731983813126,-0.3600518806744488,0.558419165331502,-0.7445792324711986
1539731983829116,-0.3476005188067446,0.5611047531853206,-0.7477531090257115
1539731983845106,-0.3416189822232396,0.5606164644846263,-0.7489738307774472
1539731983861096,-0.3434500648508432,0.5587853818570228,-0.7482413977264057
1539731983877085,-0.345769436179141,0.558419165331502,-0.7450675211718929
1539731983893075,-0.3340505073624782,0.5614709697108413,-0.7482413977264057
1539731983909065,-0.3299000534065768,0.5651331349660484,-0.746166170748455
1539731983925055,-0.33344014648661036,0.5614709697108413,-0.749584191653315
1539731983941044,-0.3399099717708096,0.5665980010681313,-0.744457160296025
1539731983957034,-0.34320592050049603,0.5667200732433049,-0.7473868925001907
1539731983972961,-0.34222934309910746,0.5651331349660484,-0.7595941100175478
1539731983988951,-0.34308384832532246,0.5640344853894863,-0.7559319447623407
1539731984004941,-0.34686808575570316,0.5650110627908749,-0.7511711299305714
1539731984020930,-0.3488212405584803,0.5620813305867092,-0.74189364461738
1539731984036920,-0.34991989013504243,0.5590295262073699,-0.7404287785152972
1539731984052910,-0.3496757457846953,0.5571984435797663,-0.7398184176394293
1539731984068900,-0.3496757457846953,0.5563439383535513,-0.7389639124132144
1539731984084890,-0.35187304493781957,0.5586633096818492,-0.7389639124132144
1539731984100879,-0.3512626840619517,0.5606164644846263,-0.7439688715953308
1539731984116869,-0.352605477988861,0.5630579079880977,-0.7500724803540093
1539731984132859,-0.3529716945143817,0.5637903410391392,-0.7514152742809186
1539731984148849,-0.35455863279163813,0.5659876401922634,-0.7522697795071336
1539731984164838,-0.353459983215076,0.5656214236667427,-0.7490959029526207
1539731984180828,-0.3476005188067446,0.5647669184405277,-0.7519035629816129
1539731984196818,-0.3421072709239339,0.5656214236667427,-0.7514152742809186
1539731984212808,-0.3399099717708096,0.5624475471122299,-0.7477531090257115
1539731984228798,-0.3417410543984132,0.5587853818570228,-0.7489738307774472
1539731984244787,-0.3371023117418175,0.5617151140611885,-0.7432364385442893
1539731984260777,-0.3428397039749753,0.5598840314335849,-0.7409170672159915
1539731984276767,-0.33893339436942105,0.5603723201342792,-0.7450675211718929
1539731984292663,-0.3407644769970246,0.5591515983825435,-0.74531166552224
1539731984308653,-0.3417410543984132,0.5620813305867092,-0.7422598611429008
1539731984324642,-0.34430457007705817,0.5620813305867092,-0.7428702220187686
1539731984340631,-0.3533379110399024,0.5602502479591056,-0.7468986037994965
1539731984356620,-0.3522392614633403,0.5589074540321963,-0.7511711299305714
1539731984372610,-0.34235141527428103,0.5689173723964291,-0.75385671778439
1539731984388599,-0.34564736400396745,0.5658655680170899,-0.7580071717402914
1539731984404588,-0.35150682841229886,0.5636682688639656,-0.758129243915465
1539731984420578,-0.35443656061646456,0.566964217593652,-0.7484855420767529
1539731984436567,-0.35455863279163813,0.5633020523384449,-0.7457999542229343
1539731984452556,-0.3516289005874724,0.5615930418860149,-0.7425040054932479
1539731984468546,-0.34699015793087673,0.5578088044556342,-0.7448233768215458
1539731984484535,-0.34308384832532246,0.5574425879301135,-0.7409170672159915
1539731984500524,-0.33929961089494176,0.5550011444266421,-0.7371328297856108
1539731984516513,-0.3371023117418175,0.5576867322804606,-0.7384756237125201
1539731984532503,-0.33551537346456106,0.556710154879072,-0.7438467994201572
1539731984548492,-0.34186312657358675,0.5529259174486914,-0.7479972533760586
1539731984564481,-0.3425955596246282,0.5576867322804606,-0.7437247272449836
1539731984580471,-0.3429617761501489,0.5570763714045928,-0.7440909437705043
1539731984596460,-0.3400320439459832,0.5578088044556342,-0.7456778820477608
1539731984612396,-0.34052033264667747,0.5617151140611885,-0.7457999542229343
1539731984628385,-0.3434500648508432,0.5611047531853206,-0.7487296864271
1539731984644374,-0.34515907530327317,0.5629358358129242,-0.7506828412298772
1539731984660362,-0.3419851987487603,0.5679407949950406,-0.7515373464560922
1539731984676351,-0.3395437552452889,0.571236743724727,-0.7566643778133821
1539731984692340,-0.34052033264667747,0.571236743724727,-0.7592278934920271
1539731984708329,-0.3429617761501489,0.5701380941481649,-0.7562981612878614
1539731984724318,-0.3403982604715039,0.5700160219729913,-0.754711223010605
1539731984740306,-0.33978789959563604,0.5683070115205613,-0.7508049134050507
1539731984756295,-0.33942168307011533,0.5679407949950406,-0.7497062638284886
1539731984772284,-0.34393835355153746,0.5653772793163956,-0.7481193255512322
1539731984788273,-0.34906538490882744,0.560128175783932,-0.7457999542229343
1539731984804262,-0.34686808575570316,0.5596398870832378,-0.7431143663691158
1539731984820251,-0.3471122301060503,0.5589074540321963,-0.7417715724422065
1539731984836239,-0.34808880750743887,0.5582970931563285,-0.7417715724422065
1539731984852228,-0.3445487144274053,0.5578088044556342,-0.7434805828946365
1539731984868217,-0.348332951857786,0.5615930418860149,-0.7425040054932479
1539731984884206,-0.35150682841229886,0.5620813305867092,-0.7433585107194629
1539731984900195,-0.353459983215076,0.5623254749370563,-0.7468986037994965
1539731984916184,-0.3533379110399024,0.5636682688639656,-0.7487296864271
1539731984932159,-0.3493095292591746,0.565255207141222,-0.7510490577553979
1539731984948148,-0.3471122301060503,0.565255207141222,-0.7528801403830014
1539731984964137,-0.346623941405356,0.5657434958419163,-0.7520256351567864
1539731984980126,-0.34650186923018245,0.5637903410391392,-0.7501945525291829
1539731984996114,-0.348332951857786,0.561837186236362,-0.7449454489967193
1539731985012103,-0.349187457084001,0.5602502479591056,-0.7404287785152972
1539731985028092,-0.3484550240329596,0.5603723201342792,-0.74189364461738
1539731985044081,-0.3445487144274053,0.5593957427328906,-0.7422598611429008
1539731985060070,-0.3428397039749753,0.5613488975356677,-0.7460440985732815
1539731985076058,-0.34149691004806604,0.564400701915007,-0.7497062638284886
1539731985092047,-0.33771267261768534,0.5683070115205613,-0.75043869687953
1539731985108036,-0.3302662699320975,0.5674525062943463,-0.7561760891126879
1539731985124025,-0.3291676203555354,0.5684290836957349,-0.7551995117112993
1539731985140014,-0.33563744563973463,0.5659876401922634,-0.7489738307774472
1539731985156003,-0.3388113221942475,0.5625696192874035,-0.7476310368505379
1539731985171991,-0.3407644769970246,0.5623254749370563,-0.7466544594491493
1539731985187980,-0.34479285877775245,0.5625696192874035,-0.7492179751277943
1539731985203969,-0.34821087968261244,0.5624475471122299,-0.74531166552224
1539731985219958,-0.35272755016403456,0.561837186236362,-0.7451895933470665
1539731985235947,-0.35187304493781957,0.5642786297398334,-0.7466544594491493
1539731985251861,-0.35321583886472885,0.563546196688792,-0.7447013046463722
1539731985267850,-0.356023498893721,0.5640344853894863,-0.7476310368505379
1539731985283838,-0.3584649423971924,0.5622034027618827,-0.7455558098725872
1539731985299826,-0.35565728236820027,0.5624475471122299,-0.7479972533760586
1539731985315815,-0.350896467536431,0.5604943923094527,-0.746166170748455
1539731985331803,-0.35101853971160457,0.560982681010147,-0.7443350881208515
1539731985347791,-0.35077439536125743,0.556710154879072,-0.7428702220187686
1539731985363780,-0.3486991683833067,0.560128175783932,-0.7406729228656443
1539731985379768,-0.3478446631570917,0.5607385366597999,-0.742748149843595
1539731985395756,-0.3454032196536203,0.5631799801632713,-0.74531166552224
1539731985411745,-0.34528114747844674,0.5647669184405277,-0.7472648203250172
1539731985427733,-0.3412527656977189,0.565255207141222,-0.7519035629816129
1539731985443721,-0.33380636301213107,0.5670862897688256,-0.75214770733196
1539731985459710,-0.33258564126039536,0.5658655680170899,-0.7539787899595636
1539731985475698,-0.33551537346456106,0.5662317845426106,-0.7527580682078279
1539731985491686,-0.3421072709239339,0.5634241245136185,-0.7477531090257115
1539731985507675,-0.344060425726711,0.5611047531853206,-0.74702067597467
1539731985523663,-0.34528114747844674,0.5615930418860149,-0.7450675211718929
1539731985539651,-0.3484550240329596,0.5608606088349735,-0.7451895933470665
1539731985555640,-0.3484550240329596,0.5608606088349735,-0.7429922941939422
1539731985571594,-0.3493095292591746,0.5589074540321963,-0.742748149843595
1539731985587582,-0.3516289005874724,0.5597619592584113,-0.7434805828946365
1539731985603571,-0.35199511711299314,0.5617151140611885,-0.7421377889677272
1539731985619559,-0.3516289005874724,0.5633020523384449,-0.7411612115663386
1539731985635547,-0.3546807049668117,0.5629358358129242,-0.74531166552224
1539731985651536,-0.3530937666895553,0.563546196688792,-0.7494621194781415
1539731985667524,-0.34906538490882744,0.5639124132143127,-0.7499504081788357
1539731985683512,-0.3484550240329596,0.5665980010681313,-0.7484855420767529
1539731985699501,-0.3530937666895553,0.5651331349660484,-0.75043869687953
1539731985715489,-0.35480277714198527,0.5640344853894863,-0.74702067597467
1539731985731477,-0.3539482719157703,0.564400701915007,-0.7437247272449836
1539731985747466,-0.3496757457846953,0.5608606088349735,-0.7439688715953308
1539731985763454,-0.344914930952926,0.5620813305867092,-0.7459220263981079
1539731985779442,-0.3429617761501489,0.5614709697108413,-0.7451895933470665
1539731985795431,-0.3412527656977189,0.5597619592584113,-0.7421377889677272
1539731985811419,-0.3421072709239339,0.5611047531853206,-0.7411612115663386
1539731985827407,-0.34149691004806604,0.5606164644846263,-0.7417715724422065
1539731985843396,-0.34100862134737175,0.5617151140611885,-0.7460440985732815
1539731985859384,-0.34027618829633033,0.5625696192874035,-0.7472648203250172
1539731985875373,-0.3399099717708096,0.5631799801632713,-0.7483634699015793
1539731985891296,-0.3412527656977189,0.5650110627908749,-0.7511711299305714
1539731985907284,-0.34430457007705817,0.5670862897688256,-0.751293202105745
1539731985923273,-0.34430457007705817,0.566109712367437,-0.7497062638284886
1539731985939261,-0.344914930952926,0.5663538567177842,-0.7494621194781415
1539731985955249,-0.3458915083543146,0.5647669184405277,-0.7471427481498436
1539731985971238,-0.34991989013504243,0.5630579079880977,-0.7456778820477608
1539731985987226,-0.35480277714198527,0.5596398870832378,-0.7431143663691158
1539731986003214,-0.3541924162661174,0.5606164644846263,-0.7410391393911651
1539731986019203,-0.35358205539024956,0.5590295262073699,-0.7382314793621729
1539731986035191,-0.35199511711299314,0.5597619592584113,-0.7400625619897765
1539731986051180,-0.34894331273365387,0.5623254749370563,-0.7437247272449836
1539731986067168,-0.348332951857786,0.5625696192874035,-0.7465323872739758
1539731986083156,-0.35101853971160457,0.5620813305867092,-0.7457999542229343
1539731986099145,-0.35321583886472885,0.5613488975356677,-0.7468986037994965
1539731986115133,-0.3479667353322653,0.5624475471122299,-0.7508049134050507
1539731986131121,-0.346623941405356,0.5640344853894863,-0.7468986037994965
1539731986147110,-0.3424734874494546,0.5651331349660484,-0.747875181200885
1539731986163098,-0.34149691004806604,0.566109712367437,-0.7447013046463722
1539731986179086,-0.34723430228122387,0.5637903410391392,-0.7481193255512322
1539731986195075,-0.349187457084001,0.5615930418860149,-0.7464103150988022
1539731986210998,-0.34857709620813315,0.5615930418860149,-0.7471427481498436
1539731986226986,-0.34442664225223174,0.5620813305867092,-0.7451895933470665
1539731986242974,-0.3399099717708096,0.563546196688792,-0.7489738307774472
1539731986258962,-0.3386892500190739,0.564400701915007,-0.7498283360036622
1539731986274950,-0.3396658274204625,0.561837186236362,-0.7457999542229343
1539731986290938,-0.3434500648508432,0.562691691462577,-0.7443350881208515
1539731986306925,-0.3445487144274053,0.5619592584115356,-0.7450675211718929
1539731986322913,-0.344914930952926,0.5639124132143127,-0.7421377889677272
1539731986338901,-0.34699015793087673,0.5629358358129242,-0.742748149843595
1539731986354889,-0.3478446631570917,0.5604943923094527,-0.7473868925001907
1539731986370877,-0.3501640344853896,0.560128175783932,-0.75043869687953
1539731986386865,-0.3513847562371253,0.561837186236362,-0.7499504081788357
1539731986402853,-0.350896467536431,0.5637903410391392,-0.7456778820477608
1539731986418841,-0.3501640344853896,0.5628137636377506,-0.7487296864271
1539731986434828,-0.3479667353322653,0.564400701915007,-0.7481193255512322
1539731986450816,-0.34686808575570316,0.5651331349660484,-0.7471427481498436
1539731986466804,-0.345769436179141,0.5651331349660484,-0.7483634699015793
1539731986482792,-0.349187457084001,0.5617151140611885,-0.7468986037994965
1539731986498780,-0.34821087968261244,0.5580529488059813,-0.7434805828946365
1539731986514768,-0.34479285877775245,0.5597619592584113,-0.7471427481498436
1539731986530731,-0.3386892500190739,0.561837186236362,-0.7475089646753643
1539731986546719,-0.3371023117418175,0.5633020523384449,-0.7462882429236286
1539731986562707,-0.3412527656977189,0.5613488975356677,-0.7466544594491493
1539731986578694,-0.3458915083543146,0.5628137636377506,-0.7473868925001907
1539731986594682,-0.3493095292591746,0.563546196688792,-0.7497062638284886
1539731986610670,-0.34821087968261244,0.5665980010681313,-0.7503166247043564
1539731986626658,-0.3479667353322653,0.5651331349660484,-0.7542229343099107
1539731986642646,-0.34308384832532246,0.5675745784695199,-0.7531242847333486
1539731986658634,-0.34222934309910746,0.5674525062943463,-0.7508049134050507
1539731986674622,-0.34052033264667747,0.5651331349660484,-0.7508049134050507
1539731986690610,-0.33856717784390034,0.5631799801632713,-0.7468986037994965
1539731986706597,-0.3369802395666439,0.5628137636377506,-0.7460440985732815
1539731986722585,-0.3335622186617839,0.5615930418860149,-0.74702067597467
1539731986738573,-0.3335622186617839,0.5600061036087585,-0.7438467994201572
1539731986754561,-0.33466086823834607,0.5589074540321963,-0.7454337376974136
1539731986770549,-0.3383230334935532,0.5581750209811549,-0.7467765316243229
1539731986786537,-0.3428397039749753,0.5573205157549399,-0.7450675211718929
1539731986802525,-0.3438162813763639,0.5595178149080642,-0.7434805828946365
1539731986818513,-0.34430457007705817,0.5623254749370563,-0.7415274280918593
1539731986834500,-0.3467460135805296,0.5604943923094527,-0.7493400473029679
1539731986850463,-0.3516289005874724,0.5640344853894863,-0.7488517586022736
1539731986866451,-0.351750972762646,0.5647669184405277,-0.7517814908064393
1539731986882439,-0.3493095292591746,0.5663538567177842,-0.7523918516823072
1539731986898427,-0.34723430228122387,0.566964217593652,-0.75214770733196
1539731986914415,-0.348332951857786,0.5656214236667427,-0.75214770733196
1539731986930403,-0.3488212405584803,0.563546196688792,-0.7511711299305714
1539731986946391,-0.3446707866025789,0.5628137636377506,-0.7490959029526207
1539731986962379,-0.3434500648508432,0.5622034027618827,-0.7455558098725872
1539731986978366,-0.34149691004806604,0.5617151140611885,-0.744457160296025
1539731986994354,-0.34149691004806604,0.5619592584115356,-0.7449454489967193
1539731987010342,-0.34100862134737175,0.559273670557717,-0.7429922941939422
1539731987026330,-0.34015411612115676,0.5591515983825435,-0.7457999542229343
1539731987042318,-0.3396658274204625,0.5620813305867092,-0.7442130159456779
1539731987058306,-0.34137483787289247,0.5629358358129242,-0.7500724803540093
1539731987074294,-0.3421072709239339,0.5628137636377506,-0.7471427481498436
1539731987090282,-0.34271763179980175,0.564400701915007,-0.7481193255512322
1539731987106269,-0.34320592050049603,0.5651331349660484,-0.7506828412298772
1539731987122257,-0.3441824979018846,0.5630579079880977,-0.7520256351567864
1539731987138245,-0.3446707866025789,0.5658655680170899,-0.75214770733196
1539731987154233,-0.34613565270466173,0.5657434958419163,-0.7475089646753643
1539731987170166,-0.3467460135805296,0.5647669184405277,-0.7492179751277943
1539731987186153,-0.34442664225223174,0.5620813305867092,-0.7488517586022736
1539731987202140,-0.3403982604715039,0.5634241245136185,-0.7486076142519265
1539731987218128,-0.3407644769970246,0.5640344853894863,-0.7460440985732815
1539731987234115,-0.3455252918287939,0.5604943923094527,-0.7425040054932479
1539731987250103,-0.34479285877775245,0.5607385366597999,-0.7414053559166858
1539731987266090,-0.34479285877775245,0.5597619592584113,-0.7438467994201572
1539731987282077,-0.34393835355153746,0.5604943923094527,-0.7479972533760586
1539731987298065,-0.3450370031280996,0.5614709697108413,-0.7486076142519265
1539731987314052,-0.34442664225223174,0.562691691462577,-0.7501945525291829
1539731987330040,-0.344914930952926,0.5656214236667427,-0.7517814908064393
1539731987346027,-0.34430457007705817,0.5685511558709084,-0.7489738307774472
1539731987362014,-0.3512626840619517,0.5653772793163956,-0.7493400473029679
1539731987378002,-0.35321583886472885,0.5647669184405277,-0.7462882429236286
1539731987393989,-0.3539482719157703,0.562691691462577,-0.7473868925001907
1539731987409977,-0.3476005188067446,0.5607385366597999,-0.7476310368505379
1539731987425964,-0.3399099717708096,0.5598840314335849,-0.7486076142519265
1539731987441951,-0.3391775387197682,0.5596398870832378,-0.7431143663691158
1539731987457939,-0.3396658274204625,0.5600061036087585,-0.7394522011139086
1539731987473926,-0.3411306935225453,0.5582970931563285,-0.7442130159456779
1539731987489898,-0.34064240482185104,0.558419165331502,-0.744457160296025
1539731987505886,-0.33856717784390034,0.5607385366597999,-0.7450675211718929
1539731987521873,-0.33759060044251177,0.5641565575646599,-0.7450675211718929
1539731987537860,-0.3425955596246282,0.5653772793163956,-0.7498283360036622
1539731987553848,-0.3421072709239339,0.5668421454184784,-0.7551995117112993
1539731987569835,-0.3454032196536203,0.5670862897688256,-0.7514152742809186
1539731987585823,-0.3495536736095217,0.5670862897688256,-0.75556572823682
1539731987601810,-0.3513847562371253,0.5665980010681313,-0.7571526665140764
1539731987617797,-0.35284962233920814,0.5665980010681313,-0.7533684290836957
1539731987633785,-0.353459983215076,0.5654993514915692,-0.7486076142519265
1539731987649772,-0.3533379110399024,0.5639124132143127,-0.7456778820477608
1539731987665760,-0.3521171892881667,0.5608606088349735,-0.7429922941939422
1539731987681747,-0.3476005188067446,0.5595178149080642,-0.7422598611429008
1539731987697734,-0.34186312657358675,0.5576867322804606,-0.7432364385442893
1539731987713722,-0.3399099717708096,0.556710154879072,-0.7412832837415122
1539731987729709,-0.34015411612115676,0.5556115053025099,-0.7387197680628672
1539731987745697,-0.34235141527428103,0.5559777218280306,-0.7404287785152972
1539731987761684,-0.3438162813763639,0.5578088044556342,-0.7447013046463722
1539731987777671,-0.34735637445639744,0.5600061036087585,-0.7445792324711986
1539731987793659,-0.3486991683833067,0.563546196688792,-0.747875181200885
1539731987809631,-0.35150682841229886,0.5683070115205613,-0.7515373464560922
1539731987825618,-0.3567559319447624,0.566109712367437,-0.7542229343099107
1539731987841606,-0.3554131380178531,0.5659876401922634,-0.7501945525291829
1539731987857593,-0.351750972762646,0.5690394445716027,-0.7467765316243229
1539731987873581,-0.352605477988861,0.5673304341191727,-0.7468986037994965
1539731987889568,-0.3429617761501489,0.5665980010681313,-0.7527580682078279
1539731987905555,-0.35077439536125743,0.5614709697108413,-0.7508049134050507
1539731987921543,-0.344060425726711,0.563546196688792,-0.7475089646753643
1539731987937530,-0.3436942092011903,0.5608606088349735,-0.7459220263981079
1539731987953518,-0.3369802395666439,0.5615930418860149,-0.7476310368505379
1539731987969505,-0.3379568169680325,0.5602502479591056,-0.7443350881208515
1539731987985492,-0.3395437552452889,0.5613488975356677,-0.7412832837415122
1539731988001480,-0.3411306935225453,0.5620813305867092,-0.7416495002670329
1539731988017467,-0.34528114747844674,0.5602502479591056,-0.7412832837415122
1539731988033455,-0.349187457084001,0.5593957427328906,-0.7406729228656443
1539731988049442,-0.3495536736095217,0.5600061036087585,-0.7406729228656443
1539731988065429,-0.35065232318608386,0.5603723201342792,-0.7392080567635615
1539731988081417,-0.35407034409094384,0.5606164644846263,-0.7404287785152972
1539731988097404,-0.3554131380178531,0.559273670557717,-0.7476310368505379
1539731988113392,-0.3567559319447624,0.5595178149080642,-0.7471427481498436
1539731988129333,-0.35663385976958883,0.5653772793163956,-0.7439688715953308
1539731988145320,-0.3554131380178531,0.5619592584115356,-0.7483634699015793
1539731988161307,-0.35114061188677814,0.5613488975356677,-0.74702067597467
1539731988177294,-0.34979781795986886,0.5631799801632713,-0.7425040054932479
1539731988193281,-0.35236133363851385,0.5613488975356677,-0.7400625619897765
1539731988209268,-0.35614557106889455,0.5578088044556342,-0.7417715724422065
1539731988225255,-0.3591973754482338,0.5571984435797663,-0.7420157167925536
1539731988241242,-0.35992980849927525,0.5591515983825435,-0.7372549019607844
1539731988257228,-0.350896467536431,0.5580529488059813,-0.7389639124132144
1539731988273215,-0.3571221484702831,0.5593957427328906,-0.7410391393911651
1539731988289202,-0.35858701457236597,0.5619592584115356,-0.74189364461738
1539731988305189,-0.35480277714198527,0.562691691462577,-0.7482413977264057
1539731988321176,-0.3504081788357367,0.5653772793163956,-0.7508049134050507
1539731988337163,-0.3436942092011903,0.5680628671702141,-0.7519035629816129
1539731988353150,-0.33563744563973463,0.5707484550240327,-0.75556572823682
1539731988369137,-0.3257495994506754,0.5719691767757684,-0.7556878004119936
1539731988385124,-0.3256275272755018,0.5713588158999006,-0.7519035629816129
1539731988401111,-0.3358815899900818,0.5662317845426106,-0.7514152742809186
1539731988417098,-0.3407644769970246,0.564400701915007,-0.74531166552224
1539731988433085,-0.34308384832532246,0.5623254749370563,-0.7449454489967193
1539731988449066,-0.34393835355153746,0.5585412375066756,-0.7471427481498436
1539731988465053,-0.3513847562371253,0.5564660105287249,-0.7409170672159915
1539731988481040,-0.35614557106889455,0.5589074540321963,-0.7381094071869994
1539731988497027,-0.3584649423971924,0.5598840314335849,-0.7399404898146029
1539731988513013,-0.3584649423971924,0.5620813305867092,-0.7426260776684215
1539731988529000,-0.3579766536964981,0.5622034027618827,-0.7420157167925536
1539731988544987,-0.35870908674753954,0.5667200732433049,-0.746166170748455
1539731988560974,-0.3596856641489281,0.5657434958419163,-0.7483634699015793
1539731988576961,-0.356878004119936,0.5672083619439992,-0.7475089646753643
1539731988592948,-0.34991989013504243,0.5675745784695199,-0.7481193255512322
1539731988608935,-0.34601358052948816,0.5672083619439992,-0.7459220263981079
1539731988624922,-0.34821087968261244,0.5622034027618827,-0.749584191653315
1539731988640909,-0.3488212405584803,0.5640344853894863,-0.7450675211718929
1539731988656896,-0.349187457084001,0.5620813305867092,-0.7420157167925536
1539731988672883,-0.3450370031280996,0.5613488975356677,-0.7421377889677272
1539731988688870,-0.3445487144274053,0.5593957427328906,-0.7448233768215458
1539731988704856,-0.34564736400396745,0.561837186236362,-0.7462882429236286
1539731988720843,-0.34857709620813315,0.5630579079880977,-0.7425040054932479
1539731988736830,-0.350896467536431,0.5648889906157013,-0.7456778820477608
1539731988752817,-0.3522392614633403,0.5645227740901806,-0.7442130159456779
1539731988768768,-0.35272755016403456,0.5631799801632713,-0.7481193255512322
1539731988784755,-0.3501640344853896,0.5637903410391392,-0.7459220263981079
1539731988800742,-0.350896467536431,0.565255207141222,-0.7468986037994965
1539731988816729,-0.3513847562371253,0.5642786297398334,-0.7437247272449836
1539731988832716,-0.350041962310216,0.5640344853894863,-0.7428702220187686
1539731988848703,-0.34699015793087673,0.5629358358129242,-0.7445792324711986
1539731988864689,-0.3419851987487603,0.5650110627908749,-0.7445792324711986
1539731988880676,-0.3391775387197682,0.5633020523384449,-0.7450675211718929
1539731988896663,-0.34015411612115676,0.5625696192874035,-0.7475089646753643
1539731988912650,-0.347478446631571,0.5614709697108413,-0.746166170748455
1539731988928637,-0.3512626840619517,0.5607385366597999,-0.7414053559166858
1539731988944624,-0.3496757457846953,0.564400701915007,-0.7396963454642558
1539731988960611,-0.34650186923018245,0.5629358358129242,-0.74702067597467
1539731988976598,-0.3463797970550089,0.5631799801632713,-0.751293202105745
1539731988992585,-0.3493095292591746,0.5657434958419163,-0.7499504081788357
1539731989008572,-0.355168993667506,0.5680628671702141,-0.7465323872739758
1539731989024559,-0.3563897154192417,0.5680628671702141,-0.7467765316243229
1539731989040546,-0.35199511711299314,0.5681849393453877,-0.7533684290836957
1539731989056532,-0.34699015793087673,0.5662317845426106,-0.7511711299305714
1539731989072519,-0.34430457007705817,0.5639124132143127,-0.7477531090257115
1539731989088531,-0.3455252918287939,0.5625696192874035,-0.7412832837415122
1539731989104518,-0.34686808575570316,0.5596398870832378,-0.7388418402380408
1539731989120505,-0.3512626840619517,0.5557335774776835,-0.7389639124132144
1539731989136492,-0.353459983215076,0.5576867322804606,-0.7390859845883879
1539731989152479,-0.3513847562371253,0.5578088044556342,-0.7414053559166858
1539731989168466,-0.3454032196536203,0.5619592584115356,-0.7410391393911651
1539731989184453,-0.34320592050049603,0.562691691462577,-0.7443350881208515
1539731989200440,-0.34686808575570316,0.5636682688639656,-0.744457160296025
1539731989216426,-0.349187457084001,0.562691691462577,-0.7443350881208515
1539731989232413,-0.3476005188067446,0.5657434958419163,-0.7484855420767529
1539731989248400,-0.35114061188677814,0.5680628671702141,-0.7481193255512322
1539731989264387,-0.3493095292591746,0.5656214236667427,-0.7515373464560922
1539731989280374,-0.34857709620813315,0.5673304341191727,-0.7526359960326543
1539731989296361,-0.349187457084001,0.5684290836957349,-0.7455558098725872
1539731989312348,-0.34894331273365387,0.5692835889219499,-0.7465323872739758
1539731989328335,-0.3467460135805296,0.5675745784695199,-0.7498283360036622
1539731989344322,-0.34271763179980175,0.5694056610971234,-0.7528801403830014
1539731989360309,-0.33722438391699106,0.570382238498512,-0.753002212558175
1539731989376296,-0.3278248264286261,0.5844205386434727,-0.7421377889677272
1539731989392283,-0.3433279926756696,0.5794155794613562,-0.7371328297856108
1539731989408233,-0.3512626840619517,0.5722133211261156,-0.7620355535210193
1539731989424220,-0.3576104371709774,0.5665980010681313,-0.7687495231555657
1539731989440207,-0.3635919737544824,0.5539024948500799,-0.7705806057831692
1539731989456194,-0.3504081788357367,0.5518272678721292,-0.758129243915465
1539731989472181,-0.3391775387197682,0.5598840314335849,-0.7227283131151294
1539731989488168,-0.33649195086594963,0.5513389791714349,-0.7165026321812773
1539731989504155,-0.3416189822232396,0.5379110399023421,-0.7229724574654766
1539731989520142,-0.3429617761501489,0.5409628442816814,-0.725413900968948
1539731989536129,-0.3424734874494546,0.5473105973907071,-0.7277332722972458
1539731989552116,-0.3407644769970246,0.5541466392004271,-0.7348134584573129
1539731989568102,-0.3388113221942475,0.5617151140611885,-0.7479972533760586
1539731989584089,-0.3382009613183796,0.5698939497978177,-0.7525139238574807
1539731989600076,-0.33893339436942105,0.576363775082017,-0.7571526665140764
1539731989616063,-0.3383230334935532,0.5785610742351412,-0.7608148317692836
1539731989632050,-0.3349050125886932,0.5775844968337527,-0.7680170901045242
1539731989648037,-0.3303883421072711,0.5768520637827113,-0.76752880140383
1539731989664024,-0.3257495994506754,0.5748989089799341,-0.7639887083237964
1539731989680011,-0.3253833829251547,0.5707484550240327,-0.75556572823682
1539731989695998,-0.33087663080796537,0.5665980010681313,-0.7487296864271
1539731989711985,-0.3350270847638668,0.5606164644846263,-0.7466544594491493
1539731989727935,-0.33942168307011533,0.5604943923094527,-0.7437247272449836
1539731989743922,-0.34149691004806604,0.5585412375066756,-0.7387197680628672
1539731989759908,-0.34320592050049603,0.5569542992294192,-0.7342030975814451
1539731989775895,-0.34357213702601674,0.5580529488059813,-0.7364003967345694
1539731989791881,-0.3438162813763639,0.5578088044556342,-0.7405508506904708
1539731989807868,-0.34393835355153746,0.5619592584115356,-0.7431143663691158
1539731989823854,-0.34393835355153746,0.5636682688639656,-0.7462882429236286
1539731989839841,-0.34308384832532246,0.566109712367437,-0.7494621194781415
1539731989855827,-0.345769436179141,0.5663538567177842,-0.7484855420767529
1539731989871813,-0.34699015793087673,0.5672083619439992,-0.7528801403830014
1539731989887800,-0.3495536736095217,0.5664759288929577,-0.7536125734340429
1539731989903786,-0.3478446631570917,0.566964217593652,-0.7514152742809186
1539731989919773,-0.34601358052948816,0.566964217593652,-0.7468986037994965
1539731989935759,-1.1347219043259327,-2.430273899443046,-1.4855573357747769
1539731989951746,0.6276340886549177,1.9479667353322654,-0.41840238040741573
1539731989967732,-0.45636682688639674,1.513389791714351,0.09637598229953426
1539731989983718,-0.5031204699778744,0.4425726710917832,-0.8670176241702907
1539731989999705,-0.8317387655451287,0.024841687647821686,-1.6823376821545737
1539731990015691,-0.4833447775997559,0.3721370260166319,-1.6939345387960634
1539731990031678,-0.26398107881284805,0.7790035858701456,-1.1592584115358204
1539731990047668,-0.2477454795147631,0.9010757610437174,-0.6819562066071563
1539731990063655,-0.28278019378957797,0.7682612344548714,-0.5624475471122299
1539731990079641,-0.33978789959563604,0.6260471503776612,-0.5259479667353322
1539731990095627,-0.3631036850537881,0.45416952773327246,-0.5818570229648281
1539731990111614,-0.3274586099031054,0.3423514152742806,-0.6184786755168994
1539731990127600,-0.2909590295262072,0.33490501258869276,-0.5838101777676052
1539731990143587,-0.2990157930876629,0.3743343251697562,-0.5258258945601586
1539731990159573,-0.33429465171282535,0.390569924467842,-0.5160601205462729
1539731990175560,-0.33002212558175037,0.4175478751812012,-0.5496299687190049
1539731990191546,-0.3399099717708096,0.458564126039521,-0.5827115281910431
1539731990207533,-0.35284962233920814,0.5071488517586022,-0.6293430991073472
1539731990223519,-0.36420233463035023,0.5474326695658807,-0.6988021667811095
1539731990239505,-0.3723811703669795,0.5658655680170899,-0.7912108033875027
1539731990255492,-0.3815365835049973,0.580636301213092,-0.88032349126421
1539731990271478,-0.38849469748989085,0.597970550087739,-0.939040207522698
1539731990287465,-0.3915465018692301,0.6060273136491947,-0.970046540016785
1539731990303451,-0.39276722362096583,0.607370107576104,-0.9730983443961243
1539731990319438,-0.38348973830777444,0.5993133440146483,-0.9528343633173115
1539731990335424,-0.3667658503089952,0.5905241474021512,-0.9134050507362477
1539731990351410,-0.3522392614633403,0.577218280308232,-0.8543221179522393
1539731990367370,-0.3396658274204625,0.561837186236362,-0.7920653086137177
1539731990383357,-0.3311207751583125,0.5447470817120621,-0.7304188601510644
1539731990399343,-0.3299000534065768,0.5243610284580758,-0.6836652170595863
1539731990415330,-0.32172121766994755,0.5056839856565194,-0.6659647516594185
1539731990431316,-0.30804913405050716,0.4927443350881209,-0.6648661020828563
1539731990447302,-0.3045090409704736,0.49286640726329445,-0.6728007934691385
1539731990463289,-0.3058518348973829,0.5039749752040894,-0.6895246814679181
1539731990479275,-0.3119554436560614,0.5238727397573815,-0.7071030746929123
1539731990495262,-0.3226977950713361,0.5471885252155335,-0.7230945296406501
1539731990511248,-0.3369802395666439,0.5589074540321963,-0.7560540169375143
1539731990527235,-0.34357213702601674,0.5731898985275041,-0.7859616998550392
1539731990543221,-0.35065232318608386,0.5902800030518041,-0.8037842374303805
1539731990559208,-0.35236133363851385,0.5991912718394747,-0.8140383001449609
1539731990575194,-0.35700007629510955,0.6010223544670783,-0.8130617227435724
1539731990591180,-0.3601739528496224,0.5956511787594412,-0.8075684748607612
1539731990607167,-0.3606622415503167,0.5849088273441669,-0.793408102540627
1539731990623153,-0.351750972762646,0.5736781872281984,-0.7699702449073014
1539731990639140,-0.34613565270466173,0.5634241245136185,-0.7520256351567864
1539731990655126,-0.3407644769970246,0.5475547417410542,-0.7368886854352636
1539731990671113,-0.3361257343404289,0.5379110399023421,-0.7230945296406501
1539731990687072,-0.33258564126039536,0.5307087815671014,-0.7135728999771116
1539731990703059,-0.3302662699320975,0.5313191424429693,-0.7093003738460366
1539731990719045,-0.34100862134737175,0.4859082932784009,-0.7188220035095751
1539731990735032,-0.3010910200656136,0.5556115053025099,-0.6956282902265967
1539731990751018,-0.3378347447928589,0.5714808880750741,-0.7116197451743345
1539731990767005,-0.34393835355153746,0.5365682459754328,-0.7793698023956663
1539731990782991,-0.34943160143434815,0.5452353704127564,-0.7871824216067749
1539731990798977,-0.34100862134737175,0.5897917143511098,-0.7511711299305714
1539731990814964,-0.33759060044251177,0.5883268482490269,-0.7702143892576485
1539731990830950,-0.3407644769970246,0.5691615167467763,-0.7946288242923627
1539731990846937,-0.33685816739147034,0.578072785534447,-0.7824216067750056
1539731990862923,-0.33514915693904035,0.5799038681620505,-0.768383306630045
1539731990878910,-0.33942168307011533,0.5662317845426106,-0.7593499656672007
1539731990894896,-0.3425955596246282,0.5582970931563285,-0.7515373464560922
1539731990910883,-0.34393835355153746,0.5554894331273363,-0.7387197680628672
1539731990926869,-0.33978789959563604,0.5524376287479971,-0.7340810254062715
1539731990942855,-0.34052033264667747,0.5481651026169221,-0.7355458915083544
1539731990958842,-0.3433279926756696,0.5475547417410542,-0.7356679636835279
1539731990974828,-0.3450370031280996,0.5499961852445256,-0.7337148088807508
1539731990990815,-0.34479285877775245,0.5563439383535513,-0.7400625619897765
1539731991006805,-0.3436942092011903,0.5602502479591056,-0.7454337376974136
1539731991022791,-0.34528114747844674,0.5651331349660484,-0.7569085221637293
1539731991038778,-0.34808880750743887,0.5654993514915692,-0.7656977187762264
1539731991054764,-0.34308384832532246,0.5673304341191727,-0.7677729457541771
1539731991070751,-0.3369802395666439,0.5674525062943463,-0.764965285725185
1539731991086737,-0.33466086823834607,0.5648889906157013,-0.7569085221637293
1539731991102724,-0.3353933012893875,0.5641565575646599,-0.7494621194781415
1539731991118710,-0.33929961089494176,0.5579308766308078,-0.7445792324711986
1539731991134697,-0.3419851987487603,0.5487754634927899,-0.7404287785152972
1539731991150683,-0.3434500648508432,0.5496299687190049,-0.7492179751277943
1539731991166669,-0.33514915693904035,0.563546196688792,-0.7356679636835279
1539731991182656,-0.3407644769970246,0.5653772793163956,-0.7396963454642558
1539731991198642,-0.3454032196536203,0.5604943923094527,-0.753002212558175
1539731991214629,-0.3446707866025789,0.5614709697108413,-0.7622796978713664
1539731991230615,-0.3379568169680325,0.5690394445716027,-0.7609369039444571
1539731991246602,-0.33173113603418036,0.5702601663233384,-0.7638666361486228
1539731991262588,-0.3357595178149082,0.5662317845426106,-0.7614251926451514
1539731991278575,-0.3433279926756696,0.5617151140611885,-0.7551995117112993
1539731991294561,-0.3479667353322653,0.5596398870832378,-0.7455558098725872
1539731991310547,-0.35150682841229886,0.5608606088349735,-0.7379873350118258
1539731991326538,-0.35199511711299314,0.5571984435797663,-0.7396963454642558
1539731991342524,-0.3530937666895553,0.5580529488059813,-0.74531166552224
1539731991358511,-0.35272755016403456,0.5581750209811549,-0.7459220263981079
1539731991374497,-0.34735637445639744,0.5598840314335849,-0.7528801403830014
1539731991390483,-0.3438162813763639,0.5617151140611885,-0.7503166247043564
1539731991406470,-0.34186312657358675,0.5617151140611885,-0.7534905012588693
1539731991422456,-0.3425955596246282,0.5612268253604942,-0.7515373464560922
1539731991438443,-0.3445487144274053,0.5636682688639656,-0.7477531090257115
1539731991454429,-0.34613565270466173,0.5606164644846263,-0.7509269855802243
1539731991470416,-0.3463797970550089,0.5600061036087585,-0.7525139238574807
1539731991486402,-0.344914930952926,0.560128175783932,-0.753002212558175
1539731991502389,-0.34320592050049603,0.559273670557717,-0.7494621194781415
1539731991518375,-0.3407644769970246,0.5579308766308078,-0.7455558098725872
1539731991534361,-0.34100862134737175,0.5552452887769892,-0.7411612115663386
1539731991550348,-0.34613565270466173,0.5571984435797663,-0.7405508506904708
1539731991566334,-0.3458915083543146,0.557564660105287,-0.7415274280918593
1539731991582321,-0.3463797970550089,0.5593957427328906,-0.7467765316243229
1539731991598307,-0.34601358052948816,0.5611047531853206,-0.7520256351567864
1539731991614294,-0.3425955596246282,0.5628137636377506,-0.7550774395361257
1539731991630280,-0.34149691004806604,0.5634241245136185,-0.758129243915465
1539731991646240,-0.3378347447928589,0.5641565575646599,-0.7586175326161593
1539731991662226,-0.3382009613183796,0.5670862897688256,-0.7567864499885557
1539731991678213,-0.3407644769970246,0.5636682688639656,-0.75556572823682
1539731991694199,-0.344060425726711,0.5602502479591056,-0.7503166247043564
1539731991710186,-0.3425955596246282,0.5597619592584113,-0.7443350881208515
1539731991726172,-0.34479285877775245,0.5578088044556342,-0.7454337376974136
1539731991742159,-0.34479285877775245,0.5547570000762949,-0.7415274280918593
1539731991758145,-0.34601358052948816,0.5559777218280306,-0.7393301289387351
1539731991774131,-0.34979781795986886,0.5582970931563285,-0.7432364385442893
1539731991790118,-0.34821087968261244,0.5578088044556342,-0.74531166552224
1539731991806104,-0.3479667353322653,0.560128175783932,-0.7506828412298772
1539731991822091,-0.3463797970550089,0.5641565575646599,-0.751293202105745
1539731991838077,-0.344914930952926,0.5639124132143127,-0.754711223010605
1539731991854064,-0.3400320439459832,0.5658655680170899,-0.7566643778133821
1539731991870050,-0.33929961089494176,0.5650110627908749,-0.7544670786602579
1539731991886036,-0.3396658274204625,0.5639124132143127,-0.7545891508354314
1539731991902023,-0.34015411612115676,0.5614709697108413,-0.75214770733196
1539731991918009,-0.34308384832532246,0.5571984435797663,-0.751293202105745
1539731991933996,-0.3425955596246282,0.5570763714045928,-0.74531166552224
1539731991949982,-0.3441824979018846,0.5571984435797663,-0.7471427481498436
1539731991965973,-0.3446707866025789,0.5560997940032042,-0.746166170748455
1539731991981959,-0.34430457007705817,0.5563439383535513,-0.74531166552224
1539731991997945,-0.3454032196536203,0.5568322270542456,-0.7442130159456779
1539731992013932,-0.34442664225223174,0.5602502479591056,-0.7459220263981079
1539731992029918,-0.344914930952926,0.5617151140611885,-0.7505607690547036
1539731992045905,-0.34613565270466173,0.5620813305867092,-0.7536125734340429
1539731992061891,-0.3458915083543146,0.5634241245136185,-0.7556878004119936
1539731992077878,-0.34528114747844674,0.5663538567177842,-0.7536125734340429
1539731992093864,-0.34442664225223174,0.5648889906157013,-0.7545891508354314
1539731992109851,-0.3434500648508432,0.5619592584115356,-0.7542229343099107
1539731992125837,-0.34137483787289247,0.5607385366597999,-0.7501945525291829
1539731992141823,-0.34308384832532246,0.5580529488059813,-0.7443350881208515
1539731992157810,-0.3428397039749753,0.5530479896238649,-0.74531166552224
1539731992173796,-0.3446707866025789,0.5532921339742121,-0.7400625619897765
1539731992189783,-0.3467460135805296,0.5536583504997328,-0.7404287785152972
1539731992205769,-0.34894331273365387,0.5550011444266421,-0.744457160296025
1539731992221756,-0.3505302510109103,0.557564660105287,-0.742748149843595
1539731992237742,-0.35199511711299314,0.5596398870832378,-0.7465323872739758
1539731992253728,-0.34735637445639744,0.5648889906157013,-0.7508049134050507
1539731992269715,-0.3458915083543146,0.565255207141222,-0.7532463569085222
1539731992285675,-0.3412527656977189,0.5656214236667427,-0.7553215838864729
1539731992301661,-0.33844510566872676,0.5663538567177842,-0.7565423056382086
1539731992317648,-0.33551537346456106,0.566109712367437,-0.7567864499885557
1539731992333634,-0.3358815899900818,0.5634241245136185,-0.7586175326161593
1539731992349620,-0.3358815899900818,0.5620813305867092,-0.7534905012588693
1539731992365607,-0.3353933012893875,0.5606164644846263,-0.7497062638284886
1539731992381593,-0.3357595178149082,0.5590295262073699,-0.7487296864271
1539731992397580,-0.33942168307011533,0.5564660105287249,-0.7447013046463722
1539731992413566,-0.3429617761501489,0.5565880827038985,-0.74531166552224
1539731992429553,-0.3428397039749753,0.557564660105287,-0.74702067597467
1539731992445539,-0.34650186923018245,0.5563439383535513,-0.7501945525291829
1539731992461526,-0.34906538490882744,0.5591515983825435,-0.7482413977264057
1539731992477512,-0.35101853971160457,0.559273670557717,-0.7486076142519265
1539731992493498,-0.34564736400396745,0.5579308766308078,-0.7503166247043564
1539731992509485,-0.34186312657358675,0.5611047531853206,-0.7489738307774472
1539731992525471,-0.34015411612115676,0.5614709697108413,-0.7498283360036622
1539731992541458,-0.3386892500190739,0.5641565575646599,-0.7523918516823072
1539731992557444,-0.3407644769970246,0.5625696192874035,-0.7511711299305714
1539731992573431,-0.34137483787289247,0.5611047531853206,-0.7522697795071336
1539731992589417,-0.34271763179980175,0.563546196688792,-0.749584191653315
1539731992605407,-0.3438162813763639,0.5617151140611885,-0.7511711299305714
1539731992621394,-0.3419851987487603,0.5608606088349735,-0.7503166247043564
1539731992637380,-0.34235141527428103,0.5615930418860149,-0.7499504081788357
1539731992653367,-0.3441824979018846,0.5611047531853206,-0.7489738307774472
1539731992669353,-0.3455252918287939,0.5597619592584113,-0.7516594186312657
1539731992685340,-0.34686808575570316,0.5587853818570228,-0.7508049134050507
1539731992701326,-0.347478446631571,0.5597619592584113,-0.7475089646753643
1539731992717312,-0.34528114747844674,0.5602502479591056,-0.7462882429236286
1539731992733299,-0.3396658274204625,0.5597619592584113,-0.7489738307774472
1539731992749285,-0.3352712291142139,0.5620813305867092,-0.7525139238574807
1539731992765272,-0.3361257343404289,0.561837186236362,-0.753002212558175
1539731992781258,-0.3390554665445946,0.559273670557717,-0.7522697795071336
1539731992797245,-0.3386892500190739,0.5607385366597999,-0.7489738307774472
1539731992813231,-0.34100862134737175,0.5598840314335849,-0.7465323872739758
1539731992829218,-0.3445487144274053,0.558419165331502,-0.7482413977264057
1539731992845204,-0.348332951857786,0.5581750209811549,-0.7486076142519265
1539731992861190,-0.34894331273365387,0.5591515983825435,-0.7472648203250172
1539731992877177,-0.3533379110399024,0.5602502479591056,-0.7475089646753643
1539731992893163,-0.35272755016403456,0.5611047531853206,-0.75043869687953
1539731992909150,-0.35480277714198527,0.5606164644846263,-0.7479972533760586
1539731992925109,-0.3533379110399024,0.5623254749370563,-0.7500724803540093
1539731992941095,-0.3524834058136874,0.5606164644846263,-0.7500724803540093
1539731992957081,-0.3407644769970246,0.560128175783932,-0.7514152742809186
1539731992973067,-0.33051041428244465,0.5624475471122299,-0.7498283360036622
1539731992989053,-0.33636987869077606,0.558419165331502,-0.7500724803540093
1539731993005039,-0.3416189822232396,0.5557335774776835,-0.7475089646753643
1539731993021025,-0.3419851987487603,0.5574425879301135,-0.7445792324711986
1539731993037011,-0.33600366216525535,0.5614709697108413,-0.7456778820477608
1539731993052997,-0.3336842908369575,0.5607385366597999,-0.7498283360036622
1539731993068983,-0.33478294041351964,0.560982681010147,-0.7515373464560922
1539731993084969,-0.3403982604715039,0.5631799801632713,-0.75043869687953
1539731993100955,-0.34528114747844674,0.5613488975356677,-0.7516594186312657
1539731993116941,-0.3476005188067446,0.5625696192874035,-0.7510490577553979
1539731993132927,-0.3467460135805296,0.562691691462577,-0.7554436560616464
1539731993148913,-0.3412527656977189,0.563546196688792,-0.7550774395361257
1539731993164899,-0.3412527656977189,0.5650110627908749,-0.7560540169375143
1539731993180885,-0.3438162813763639,0.5629358358129242,-0.7534905012588693
1539731993196871,-0.3462577248798353,0.5612268253604942,-0.7527580682078279
1539731993212857,-0.34515907530327317,0.560128175783932,-0.7498283360036622
1539731993228843,-0.344060425726711,0.5591515983825435,-0.7428702220187686
1539731993244812,-0.34393835355153746,0.5560997940032042,-0.7464103150988022
1539731993260798,-0.34357213702601674,0.5563439383535513,-0.7445792324711986
1539731993276784,-0.34186312657358675,0.5580529488059813,-0.7438467994201572
1539731993292770,-0.34271763179980175,0.5589074540321963,-0.7459220263981079
1539731993308755,-0.3462577248798353,0.5595178149080642,-0.7473868925001907
1539731993324741,-0.34943160143434815,0.5595178149080642,-0.7468986037994965
1539731993340727,-0.34686808575570316,0.5623254749370563,-0.7500724803540093
1539731993356713,-0.34137483787289247,0.563546196688792,-0.7514152742809186
1539731993372699,-0.3388113221942475,0.5633020523384449,-0.7573968108644236
1539731993388685,-0.3386892500190739,0.5636682688639656,-0.7534905012588693
1539731993404671,-0.34442664225223174,0.561837186236362,-0.754711223010605
1539731993420657,-0.3433279926756696,0.5607385366597999,-0.7526359960326543
1539731993436643,-0.33844510566872676,0.5617151140611885,-0.7486076142519265
1539731993452629,-0.3341725795376518,0.560982681010147,-0.7481193255512322
1539731993468615,-0.33551537346456106,0.5580529488059813,-0.7506828412298772
1539731993484601,-0.3383230334935532,0.5579308766308078,-0.7487296864271
1539731993500587,-0.34601358052948816,0.5578088044556342,-0.7454337376974136
1539731993516573,-0.34821087968261244,0.5576867322804606,-0.7439688715953308
1539731993532559,-0.34515907530327317,0.5614709697108413,-0.7450675211718929
1539731993548545,-0.344914930952926,0.5614709697108413,-0.7533684290836957
1539731993564575,-0.34735637445639744,0.561837186236362,-0.7514152742809186
1539731993580561,-0.353459983215076,0.5620813305867092,-0.7509269855802243
1539731993596548,-0.35370412756542313,0.564400701915007,-0.7509269855802243
1539731993612534,-0.35272755016403456,0.5629358358129242,-0.7511711299305714
1539731993628521,-0.34699015793087673,0.5625696192874035,-0.7531242847333486
1539731993644507,-0.34528114747844674,0.5625696192874035,-0.7516594186312657
1539731993660493,-0.34271763179980175,0.5597619592584113,-0.7517814908064393
1539731993676480,-0.34100862134737175,0.5606164644846263,-0.7482413977264057
1539731993692466,-0.3411306935225453,0.5585412375066756,-0.7464103150988022
1539731993708453,-0.3379568169680325,0.5586633096818492,-0.7473868925001907
1539731993724439,-0.33722438391699106,0.5589074540321963,-0.7475089646753643
1539731993740426,-0.3371023117418175,0.558419165331502,-0.7465323872739758
1539731993756412,-0.3383230334935532,0.5597619592584113,-0.7494621194781415
1539731993772399,-0.3411306935225453,0.5612268253604942,-0.7508049134050507
1539731993788385,-0.34393835355153746,0.561837186236362,-0.7516594186312657
1539731993804371,-0.348332951857786,0.5642786297398334,-0.7519035629816129
1539731993820358,-0.34894331273365387,0.565255207141222,-0.7548332951857786
1539731993836344,-0.34528114747844674,0.5650110627908749,-0.7526359960326543
1539731993852331,-0.34149691004806604,0.5636682688639656,-0.7570305943389029
1539731993868317,-0.3412527656977189,0.5629358358129242,-0.7543450064850843
1539731993884277,-0.3408865491721982,0.5606164644846263,-0.7527580682078279
1539731993900263,-0.34137483787289247,0.5606164644846263,-0.7490959029526207
1539731993916249,-0.3425955596246282,0.5600061036087585,-0.7473868925001907
1539731993932235,-0.3408865491721982,0.5587853818570228,-0.7483634699015793
1539731993948221,-0.34064240482185104,0.5571984435797663,-0.7476310368505379
1539731993964207,-0.3408865491721982,0.5582970931563285,-0.7466544594491493
1539731993980193,-0.3455252918287939,0.5603723201342792,-0.7440909437705043
1539731993996179,-0.3479667353322653,0.5570763714045928,-0.7464103150988022
1539731994012165,-0.35114061188677814,0.5587853818570228,-0.7508049134050507
1539731994028151,-0.3488212405584803,0.5598840314335849,-0.7488517586022736
1539731994044137,-0.3462577248798353,0.561837186236362,-0.7505607690547036
1539731994060123,-0.34528114747844674,0.5634241245136185,-0.7550774395361257
1539731994076109,-0.3471122301060503,0.5628137636377506,-0.7528801403830014
1539731994092095,-0.3471122301060503,0.5647669184405277,-0.7488517586022736
1539731994108080,-0.3445487144274053,0.565255207141222,-0.7516594186312657
1539731994124066,-0.3407644769970246,0.5640344853894863,-0.7528801403830014
1539731994140052,-0.33722438391699106,0.5620813305867092,-0.7537346456092164
1539731994156038,-0.33685816739147034,0.5611047531853206,-0.7510490577553979
1539731994172024,-0.33636987869077606,0.5600061036087585,-0.74702067597467
1539731994188010,-0.3366140230411232,0.558419165331502,-0.7464103150988022
1539731994203979,-0.3383230334935532,0.5574425879301135,-0.7475089646753643
1539731994219965,-0.3386892500190739,0.5580529488059813,-0.7476310368505379
1539731994235951,-0.3419851987487603,0.558419165331502,-0.746166170748455
1539731994251937,-0.3434500648508432,0.5612268253604942,-0.7482413977264057
1539731994267923,-0.3424734874494546,0.5624475471122299,-0.7516594186312657
1539731994283909,-0.34320592050049603,0.5630579079880977,-0.75214770733196
1539731994299895,-0.34235141527428103,0.562691691462577,-0.7541008621347371
1539731994315881,-0.3454032196536203,0.5614709697108413,-0.7539787899595636
1539731994331867,-0.3458915083543146,0.5615930418860149,-0.7527580682078279
1539731994347853,-0.34723430228122387,0.5602502479591056,-0.75214770733196
1539731994363839,-0.3471122301060503,0.5600061036087585,-0.7472648203250172
1539731994379825,-0.349187457084001,0.5593957427328906,-0.7473868925001907
1539731994395811,-0.34894331273365387,0.5587853818570228,-0.7464103150988022
1539731994411797,-0.35272755016403456,0.5560997940032042,-0.7429922941939422
1539731994427783,-0.3411306935225453,0.5596398870832378,-0.7468986037994965
1539731994443769,-0.3350270847638668,0.5570763714045928,-0.7509269855802243
1539731994459755,-0.3350270847638668,0.5593957427328906,-0.7492179751277943
1539731994475741,-0.3416189822232396,0.5595178149080642,-0.747875181200885
1539731994491727,-0.3450370031280996,0.559273670557717,-0.7493400473029679
1539731994507712,-0.3383230334935532,0.5619592584115356,-0.7558098725871671
1539731994523712,-0.33759060044251177,0.5634241245136185,-0.7554436560616464
1539731994539698,-0.33929961089494176,0.5645227740901806,-0.7573968108644236
1539731994555684,-0.3445487144274053,0.562691691462577,-0.7544670786602579
1539731994571670,-0.3429617761501489,0.5628137636377506,-0.7542229343099107
1539731994587656,-0.34137483787289247,0.5630579079880977,-0.753002212558175
1539731994603642,-0.3400320439459832,0.5622034027618827,-0.7508049134050507
1539731994619628,-0.3353933012893875,0.560128175783932,-0.7511711299305714
1539731994635614,-0.3357595178149082,0.5607385366597999,-0.7498283360036622
1539731994651600,-0.3419851987487603,0.559273670557717,-0.7468986037994965
1539731994667585,-0.34064240482185104,0.5606164644846263,-0.7482413977264057
1539731994683571,-0.34027618829633033,0.5582970931563285,-0.7465323872739758
1539731994699557,-0.34479285877775245,0.5582970931563285,-0.7473868925001907
1539731994715543,-0.35065232318608386,0.5593957427328906,-0.7483634699015793
1539731994731529,-0.35358205539024956,0.5606164644846263,-0.7471427481498436
1539731994747515,-0.3530937666895553,0.561837186236362,-0.7508049134050507
1539731994763501,-0.3584649423971924,0.5602502479591056,-0.7516594186312657
1539731994779487,-0.35992980849927525,0.5589074540321963,-0.7479972533760586
1539731994795473,-0.356878004119936,0.5591515983825435,-0.7520256351567864
1539731994811459,-0.350041962310216,0.5598840314335849,-0.7542229343099107
1539731994827445,-0.3419851987487603,0.5598840314335849,-0.7501945525291829
1539731994843414,-0.3391775387197682,0.5608606088349735,-0.7492179751277943
1539731994859400,-0.3350270847638668,0.5608606088349735,-0.7497062638284886
1539731994875386,-0.3328297856107425,0.5617151140611885,-0.7481193255512322
1539731994891372,-0.3324635690852218,0.563546196688792,-0.7506828412298772
1539731994907358,-0.3328297856107425,0.5608606088349735,-0.7531242847333486
1539731994923344,-0.3324635690852218,0.5597619592584113,-0.7519035629816129
1539731994939330,-0.3335622186617839,0.5613488975356677,-0.7505607690547036
1539731994955316,-0.33551537346456106,0.5615930418860149,-0.7493400473029679
1539731994971302,-0.34015411612115676,0.5611047531853206,-0.751293202105745
1539731994987288,-0.34564736400396745,0.5581750209811549,-0.7492179751277943
1539731995003274,-0.3467460135805296,0.5585412375066756,-0.7464103150988022
1539731995019260,-0.34601358052948816,0.559273670557717,-0.7467765316243229
1539731995035246,-0.34808880750743887,0.5589074540321963,-0.7454337376974136
1539731995051231,-0.3495536736095217,0.5600061036087585,-0.7429922941939422
1539731995067217,-0.354314488441291,0.5607385366597999,-0.7467765316243229
1539731995083203,-0.3486991683833067,0.561837186236362,-0.7516594186312657
1539731995099189,-0.34320592050049603,0.5613488975356677,-0.7548332951857786
1539731995115175,-0.34100862134737175,0.5617151140611885,-0.7569085221637293
1539731995131161,-0.3412527656977189,0.561837186236362,-0.7537346456092164
1539731995147147,-0.34027618829633033,0.5625696192874035,-0.75214770733196
1539731995163116,-0.34064240482185104,0.5625696192874035,-0.7472648203250172
1539731995179102,-0.3396658274204625,0.5604943923094527,-0.7490959029526207
1539731995195088,-0.344914930952926,0.5602502479591056,-0.746166170748455
1539731995211074,-0.3458915083543146,0.558419165331502,-0.7455558098725872
1539731995227060,-0.34699015793087673,0.5582970931563285,-0.7451895933470665
1539731995243046,-0.34894331273365387,0.5589074540321963,-0.7449454489967193
1539731995259032,-0.3484550240329596,0.5595178149080642,-0.7462882429236286
1539731995275018,-0.34699015793087673,0.5603723201342792,-0.7472648203250172
1539731995291004,-0.3411306935225453,0.5591515983825435,-0.7509269855802243
1539731995306990,-0.3408865491721982,0.5620813305867092,-0.7515373464560922
1539731995322976,-0.3411306935225453,0.5646448462653542,-0.7519035629816129
1539731995338962,-0.3419851987487603,0.5611047531853206,-0.7514152742809186
1539731995354948,-0.3396658274204625,0.5620813305867092,-0.7525139238574807
1539731995370934,-0.3400320439459832,0.562691691462577,-0.7503166247043564
1539731995386920,-0.3416189822232396,0.5640344853894863,-0.7517814908064393
1539731995402906,-0.34186312657358675,0.5581750209811549,-0.7506828412298772
1539731995418892,-0.3433279926756696,0.5597619592584113,-0.7482413977264057
1539731995434877,-0.3450370031280996,0.560128175783932,-0.7451895933470665
1539731995450863,-0.3412527656977189,0.5608606088349735,-0.7462882429236286
1539731995466849,-0.3436942092011903,0.5602502479591056,-0.7477531090257115
1539731995482879,-0.34943160143434815,0.5593957427328906,-0.7466544594491493
1539731995498865,-0.3513847562371253,0.559273670557717,-0.7459220263981079
1539731995514851,-0.35529106584267955,0.559273670557717,-0.7482413977264057
1539731995530837,-0.3488212405584803,0.5619592584115356,-0.7517814908064393
1539731995546823,-0.344914930952926,0.5634241245136185,-0.75385671778439
1539731995562809,-0.34100862134737175,0.5642786297398334,-0.7523918516823072
1539731995578795,-0.33978789959563604,0.5641565575646599,-0.75214770733196
1539731995594781,-0.3399099717708096,0.563546196688792,-0.7511711299305714
1539731995610767,-0.3399099717708096,0.5607385366597999,-0.7501945525291829
1539731995626753,-0.3379568169680325,0.5606164644846263,-0.747875181200885
1539731995642739,-0.3408865491721982,0.5569542992294192,-0.7466544594491493
1539731995658725,-0.3441824979018846,0.5574425879301135,-0.744457160296025
1539731995674711,-0.34723430228122387,0.558419165331502,-0.7412832837415122
1539731995690697,-0.34772259098191816,0.5598840314335849,-0.7431143663691158
1539731995706683,-0.3484550240329596,0.561837186236362,-0.7494621194781415
1539731995722669,-0.34821087968261244,0.5633020523384449,-0.747875181200885
1539731995738655,-0.34857709620813315,0.5642786297398334,-0.753002212558175
1539731995754641,-0.3479667353322653,0.5664759288929577,-0.751293202105745
1539731995770627,-0.34735637445639744,0.5645227740901806,-0.75214770733196
1539731995786613,-0.34320592050049603,0.562691691462577,-0.7533684290836957
1539731995802581,-0.3407644769970246,0.5615930418860149,-0.75385671778439
1539731995818567,-0.3400320439459832,0.5603723201342792,-0.7503166247043564
1539731995834553,-0.3378347447928589,0.5593957427328906,-0.7492179751277943
1539731995850539,-0.3362478065156025,0.5591515983825435,-0.7459220263981079
1539731995866525,-0.33685816739147034,0.5595178149080642,-0.7465323872739758
1539731995882511,-0.3396658274204625,0.5603723201342792,-0.7465323872739758
1539731995898497,-0.34357213702601674,0.5608606088349735,-0.7471427481498436
1539731995914483,-0.3433279926756696,0.5608606088349735,-0.751293202105745
1539731995930469,-0.344914930952926,0.5617151140611885,-0.7514152742809186
1539731995946455,-0.3433279926756696,0.5633020523384449,-0.7500724803540093
1539731995962441,-0.3436942092011903,0.5625696192874035,-0.7500724803540093
1539731995978427,-0.344914930952926,0.5613488975356677,-0.7514152742809186
1539731995994413,-0.3458915083543146,0.5628137636377506,-0.7492179751277943
1539731996010399,-0.345769436179141,0.5617151140611885,-0.7492179751277943
1539731996026385,-0.344914930952926,0.5613488975356677,-0.7500724803540093
1539731996042371,-0.34235141527428103,0.5628137636377506,-0.75043869687953
1539731996058357,-0.3416189822232396,0.5625696192874035,-0.7501945525291829
1539731996074343,-0.34515907530327317,0.5620813305867092,-0.7472648203250172
1539731996090329,-0.34686808575570316,0.5613488975356677,-0.7493400473029679
1539731996106315,-0.3455252918287939,0.5614709697108413,-0.7481193255512322
1539731996122314,-0.34320592050049603,0.5613488975356677,-0.7450675211718929
1539731996138300,-0.3434500648508432,0.5589074540321963,-0.7486076142519265
1539731996154286,-0.34357213702601674,0.5578088044556342,-0.7494621194781415
1539731996170272,-0.3408865491721982,0.5595178149080642,-0.7493400473029679
1539731996186258,-0.3373464560921646,0.5639124132143127,-0.7476310368505379
1539731996202244,-0.33478294041351964,0.5646448462653542,-0.753002212558175
1539731996218230,-0.3352712291142139,0.5659876401922634,-0.75556572823682
1539731996234216,-0.3425955596246282,0.5648889906157013,-0.7537346456092164
1539731996250202,-0.34528114747844674,0.5647669184405277,-0.7511711299305714
1539731996266188,-0.34528114747844674,0.5647669184405277,-0.7505607690547036
1539731996282174,-0.3445487144274053,0.5639124132143127,-0.7522697795071336
1539731996298160,-0.34235141527428103,0.5634241245136185,-0.7503166247043564
1539731996314146,-0.3458915083543146,0.5622034027618827,-0.7460440985732815
1539731996330132,-0.3504081788357367,0.558419165331502,-0.74531166552224
1539731996346118,-0.3529716945143817,0.5571984435797663,-0.7439688715953308
1539731996362104,-0.3516289005874724,0.5545128557259478,-0.7425040054932479
1539731996378090,-0.3476005188067446,0.5589074540321963,-0.7439688715953308
1539731996394075,-0.345769436179141,0.5581750209811549,-0.7451895933470665
1539731996410061,-0.34308384832532246,0.5603723201342792,-0.7501945525291829
1539731996426047,-0.34052033264667747,0.5629358358129242,-0.753002212558175
1539731996442016,-0.3388113221942475,0.5622034027618827,-0.75043869687953
1539731996458002,-0.3388113221942475,0.5650110627908749,-0.7510490577553979
1539731996473988,-0.33929961089494176,0.5631799801632713,-0.7523918516823072
1539731996489974,-0.34064240482185104,0.5625696192874035,-0.7531242847333486
1539731996505960,-0.3400320439459832,0.562691691462577,-0.7550774395361257
1539731996521946,-0.3429617761501489,0.563546196688792,-0.7499504081788357
1539731996537932,-0.3441824979018846,0.5628137636377506,-0.749584191653315
1539731996553918,-0.34479285877775245,0.5646448462653542,-0.7459220263981079
1539731996569904,-0.3455252918287939,0.5633020523384449,-0.7487296864271
1539731996585890,-0.34528114747844674,0.5607385366597999,-0.7498283360036622
1539731996601876,-0.34650186923018245,0.560982681010147,-0.7467765316243229
1539731996617862,-0.347478446631571,0.5622034027618827,-0.747875181200885
1539731996633848,-0.34320592050049603,0.5608606088349735,-0.7477531090257115
1539731996649834,-0.3383230334935532,0.560982681010147,-0.7501945525291829
1539731996665820,-0.3344167238879989,0.5600061036087585,-0.7542229343099107
1539731996681806,-0.3323414969100482,0.562691691462577,-0.7498283360036622
1539731996697792,-0.3353933012893875,0.5629358358129242,-0.7477531090257115
1539731996713778,-0.3378347447928589,0.561837186236362,-0.747875181200885
1539731996729764,-0.3396658274204625,0.5625696192874035,-0.7506828412298772
1539731996745750,-0.3416189822232396,0.5646448462653542,-0.7508049134050507
1539731996761749,-0.3446707866025789,0.5650110627908749,-0.7482413977264057
1539731996777735,-0.34735637445639744,0.566964217593652,-0.7472648203250172
1539731996793721,-0.34699015793087673,0.563546196688792,-0.7509269855802243
1539731996809707,-0.3462577248798353,0.563546196688792,-0.7505607690547036
1539731996825693,-0.344060425726711,0.5617151140611885,-0.7499504081788357
1539731996841679,-0.34320592050049603,0.5597619592584113,-0.7490959029526207
1539731996857665,-0.3438162813763639,0.5603723201342792,-0.7483634699015793
1539731996873651,-0.3416189822232396,0.5608606088349735,-0.7486076142519265
1539731996889637,-0.3400320439459832,0.561837186236362,-0.7468986037994965
1539731996905623,-0.3373464560921646,0.5634241245136185,-0.7497062638284886
1539731996921609,-0.3378347447928589,0.5624475471122299,-0.7493400473029679
1539731996937595,-0.3379568169680325,0.562691691462577,-0.7523918516823072
1539731996953580,-0.3396658274204625,0.5642786297398334,-0.7479972533760586
1539731996969566,-0.3421072709239339,0.5625696192874035,-0.7484855420767529
1539731996985552,-0.34137483787289247,0.5615930418860149,-0.7484855420767529
1539731997001538,-0.3429617761501489,0.5619592584115356,-0.7487296864271
1539731997017524,-0.3450370031280996,0.5604943923094527,-0.7510490577553979
1539731997033510,-0.3441824979018846,0.5615930418860149,-0.7505607690547036
1539731997049496,-0.34515907530327317,0.5629358358129242,-0.7492179751277943
1539731997065482,-0.3438162813763639,0.563546196688792,-0.7503166247043564
1539731997081451,-0.3454032196536203,0.5645227740901806,-0.7501945525291829
1539731997097437,-0.344914930952926,0.5634241245136185,-0.7511711299305714
1539731997113423,-0.3436942092011903,0.5636682688639656,-0.7515373464560922
1539731997129409,-0.34015411612115676,0.5630579079880977,-0.7501945525291829
1539731997145395,-0.3391775387197682,0.5611047531853206,-0.7506828412298772
1539731997161381,-0.3425955596246282,0.5613488975356677,-0.7472648203250172
1539731997177367,-0.3446707866025789,0.560128175783932,-0.7448233768215458
1539731997193353,-0.3458915083543146,0.559273670557717,-0.7457999542229343
1539731997209339,-0.34650186923018245,0.5598840314335849,-0.7500724803540093
1539731997225325,-0.344914930952926,0.5593957427328906,-0.7508049134050507
1539731997241311,-0.3438162813763639,0.5628137636377506,-0.7476310368505379
1539731997257297,-0.34528114747844674,0.564400701915007,-0.751293202105745
1539731997273283,-0.34650186923018245,0.5634241245136185,-0.7522697795071336
1539731997289269,-0.3458915083543146,0.5642786297398334,-0.7487296864271
1539731997305255,-0.346623941405356,0.5640344853894863,-0.7484855420767529
1539731997321241,-0.3445487144274053,0.5630579079880977,-0.7494621194781415
1539731997337226,-0.33929961089494176,0.5617151140611885,-0.7488517586022736
1539731997353212,-0.3357595178149082,0.5598840314335849,-0.7499504081788357
1539731997369198,-0.33600366216525535,0.5593957427328906,-0.7510490577553979
1539731997385184,-0.33563744563973463,0.560128175783932,-0.7486076142519265
1539731997401184,-0.3362478065156025,0.5590295262073699,-0.7487296864271
1539731997417170,-0.3345387960631725,0.5625696192874035,-0.7450675211718929
1539731997433156,-0.33636987869077606,0.5613488975356677,-0.7450675211718929
1539731997449142,-0.3361257343404289,0.5622034027618827,-0.7493400473029679
1539731997465128,-0.3416189822232396,0.5633020523384449,-0.747875181200885
1539731997481114,-0.344914930952926,0.5634241245136185,-0.747875181200885
1539731997497100,-0.350041962310216,0.5612268253604942,-0.7451895933470665
1539731997513085,-0.3486991683833067,0.5595178149080642,-0.7500724803540093
1539731997529071,-0.34735637445639744,0.5591515983825435,-0.7536125734340429
1539731997545057,-0.344914930952926,0.5611047531853206,-0.7515373464560922
1539731997561043,-0.34613565270466173,0.5625696192874035,-0.7468986037994965
1539731997577029,-0.3471122301060503,0.5625696192874035,-0.7476310368505379
1539731997593015,-0.34601358052948816,0.5639124132143127,-0.7475089646753643
1539731997609001,-0.34271763179980175,0.563546196688792,-0.7497062638284886
1539731997624987,-0.34186312657358675,0.5647669184405277,-0.7508049134050507
1539731997640973,-0.3395437552452889,0.5654993514915692,-0.75214770733196
1539731997656959,-0.33929961089494176,0.5623254749370563,-0.7497062638284886
1539731997672945,-0.33685816739147034,0.5613488975356677,-0.746166170748455
1539731997688931,-0.34064240482185104,0.5595178149080642,-0.7445792324711986
1539731997704917,-0.3454032196536203,0.5576867322804606,-0.74702067597467
1539731997720886,-0.3493095292591746,0.5573205157549399,-0.7439688715953308
1539731997736872,-0.35028610666056315,0.5582970931563285,-0.7479972533760586
1539731997752858,-0.3513847562371253,0.560128175783932,-0.7493400473029679
1539731997768844,-0.349187457084001,0.5617151140611885,-0.7509269855802243
1539731997784830,-0.3462577248798353,0.5633020523384449,-0.7515373464560922
1539731997800816,-0.3428397039749753,0.5637903410391392,-0.7536125734340429
1539731997816802,-0.3388113221942475,0.5647669184405277,-0.7490959029526207
1539731997832788,-0.33514915693904035,0.5650110627908749,-0.7523918516823072
1539731997848774,-0.3378347447928589,0.5637903410391392,-0.75385671778439
1539731997864760,-0.33893339436942105,0.5622034027618827,-0.7489738307774472
1539731997880746,-0.34308384832532246,0.5611047531853206,-0.7498283360036622
1539731997896731,-0.3434500648508432,0.5611047531853206,-0.7501945525291829
1539731997912717,-0.3428397039749753,0.5593957427328906,-0.7481193255512322
1539731997928703,-0.3417410543984132,0.559273670557717,-0.7497062638284886
1539731997944689,-0.34320592050049603,0.5623254749370563,-0.7471427481498436
1539731997960675,-0.3454032196536203,0.5615930418860149,-0.7477531090257115
1539731997976661,-0.3441824979018846,0.561837186236362,-0.7460440985732815
1539731997992647,-0.3445487144274053,0.5624475471122299,-0.7483634699015793
1539731998008633,-0.34564736400396745,0.5624475471122299,-0.7484855420767529
1539731998024619,-0.3428397039749753,0.562691691462577,-0.7550774395361257
1539731998040619,-0.3434500648508432,0.5631799801632713,-0.7525139238574807
1539731998056604,-0.3395437552452889,0.5630579079880977,-0.7539787899595636
1539731998072590,-0.3419851987487603,0.5629358358129242,-0.7541008621347371
1539731998088576,-0.3441824979018846,0.5623254749370563,-0.7506828412298772
1539731998104562,-0.34515907530327317,0.5636682688639656,-0.7484855420767529
1539731998120548,-0.34991989013504243,0.5600061036087585,-0.7493400473029679
1539731998136534,-0.3488212405584803,0.5628137636377506,-0.7517814908064393
1539731998152520,-0.34601358052948816,0.5608606088349735,-0.7473868925001907
1539731998168506,-0.3421072709239339,0.5612268253604942,-0.7487296864271
1539731998184492,-0.34222934309910746,0.5620813305867092,-0.7494621194781415
1539731998200478,-0.34528114747844674,0.5607385366597999,-0.7481193255512322
1539731998216464,-0.3436942092011903,0.5608606088349735,-0.7487296864271
1539731998232450,-0.3446707866025789,0.562691691462577,-0.7479972533760586
1539731998248436,-0.344060425726711,0.5615930418860149,-0.7497062638284886
1539731998264422,-0.3429617761501489,0.561837186236362,-0.7523918516823072
1539731998280408,-0.3421072709239339,0.5713588158999006,-0.7531242847333486
1539731998296394,-0.34564736400396745,0.5757534142061491,-0.7576409552147707
1539731998312380,-0.3471122301060503,0.5748989089799341,-0.7669184405279621
1539731998328366,-0.3476005188067446,0.5799038681620505,-0.7667963683527885
1539731998344352,-0.344914930952926,0.5907682917524983,-0.7648432135500114
1539731998360321,-0.33221942473487465,0.6041962310215911,-0.7522697795071336
1539731998376307,-0.3672541390096895,0.5394979781795985,-0.7924315251392384
1539731998392293,-0.37372396429388877,0.5253376058594643,-0.781445029373617
1539731998408279,-0.33673609521629677,0.5523155565728235,-0.7257801174944687
1539731998424265,-0.31793698023956685,0.5506065461203935,-0.7013656824597545
1539731998440250,-0.3209887846189061,0.532539864194705,-0.7112535286488137
1539731998456236,-0.32086671244373255,0.5309529259174486,-0.7197985809109637
1539731998472222,-0.3209887846189061,0.5388876173037307,-0.7217517357137408
1539731998488208,-0.32257572289616254,0.5492637521934842,-0.7283436331731137
1539731998504194,-0.33014419775692394,0.5565880827038985,-0.74531166552224
1539731998520180,-0.33380636301213107,0.5625696192874035,-0.7576409552147707
1539731998536166,-0.3358815899900818,0.5713588158999006,-0.7693598840314335
1539731998552152,-0.3383230334935532,0.5794155794613562,-0.7749752040894178
1539731998568138,-0.3479667353322653,0.5817349507896541,-0.7777828641184099
1539731998584124,-0.35236133363851385,0.5792935072861827,-0.7757076371404592
1539731998600110,-0.34735637445639744,0.5794155794613562,-0.7709468223086899
1539731998616096,-0.34052033264667747,0.5751430533302813,-0.7647211413748378
1539731998632082,-0.33942168307011533,0.567818722819867,-0.7536125734340429
1539731998648068,-0.3369802395666439,0.5606164644846263,-0.7479972533760586
1539731998664054,-0.3344167238879989,0.5543907835507742,-0.7381094071869994
1539731998680053,-0.3290455481803618,0.5507286182955671,-0.7348134584573129
1539731998696039,-0.32599374380102253,0.5498741130693521,-0.7357900358587015
1539731998712025,-0.3285572594796675,0.5477988860914014,-0.7351796749828337
1539731998728011,-0.33002212558175037,0.5510948348210878,-0.7382314793621729
1539731998743997,-0.3362478065156025,0.5548790722514685,-0.7417715724422065
1539731998759983,-0.3411306935225453,0.5598840314335849,-0.7456778820477608
1539731998775969,-0.3434500648508432,0.5628137636377506,-0.7542229343099107
1539731998791955,-0.3450370031280996,0.5674525062943463,-0.7605706874189364
1539731998807941,-0.3438162813763639,0.5724574654764627,-0.7613031204699778
1539731998823927,-1.2288395513847563,-2.792095826657511,-1.576989394979782
1539731998839913,0.7302967879758908,2.1205767910276947,-0.4315861753261614
1539731998855899,-0.47394522011139095,1.5973754482337679,0.04315251392385733
1539731998871885,-0.6260471503776608,0.3788509956511792,-0.7049057755397881
1539731998887871,-0.8291752498664837,0.28033875028610655,-1.4025482566567482
1539731998903857,-0.5089799343862058,0.37738612954909634,-1.6859998474097808
1539731998919843,-0.2533607995727474,0.6920881971465631,-1.3819180590524147
1539731998935829,-0.25763332570382236,0.849439230945296,-0.8841077286945906
1539731998951815,-0.24713511863889526,0.7744869153887235,-0.6942854962996874
1539731998967801,-0.2850995651178758,0.6620584420538647,-0.568795300221256
1539731998983787,-0.3458915083543146,0.5072709239337758,-0.5423056382085907
1539731998999755,-0.3428397039749753,0.3800717174029149,-0.5537804226749063
1539731999015741,-0.3074387731746393,0.3313649195086592,-0.5492637521934842
1539731999031727,-0.3032883192187379,0.35419241626611697,-0.5121538109407187
1539731999047713,-0.3324635690852218,0.3670099946593419,-0.5012893873502708
1539731999063699,-0.319890135042344,0.3988708323796448,-0.5382772564278628
1539731999079685,-0.3290455481803618,0.43952086671244395,-0.565377279316396
1539731999095671,-0.3455252918287939,0.4956740672922866,-0.6148165102616923
1539731999111657,-0.3589532310978867,0.5473105973907071,-0.6847638666361484
1539731999127643,-0.3677424277103838,0.5786831464103148,-0.7737544823376821
1539731999143629,-0.3748226138704509,0.6027313649195083,-0.8621347371633479
1539731999159615,-0.38043793392843517,0.6238498512245361,-0.9274433508812083
1539731999175601,-0.3866636148622873,0.6303196765087362,-0.9754177157244222
1539731999191587,-0.3954528114747844,0.6225070572976268,-0.9934843976501107
1539731999207573,-0.39276722362096583,0.6087129015030133,-0.9782253757534143
1539731999223559,-0.3748226138704509,0.5940642404821848,-0.9359884031433583
1539731999239545,-0.350896467536431,0.5805142290379184,-0.8733653772793164
1539731999255531,-0.3239185168230718,0.5714808880750741,-0.7926756694895856
1539731999271517,-0.3134203097581447,0.5550011444266421,-0.7141832608529795
1539731999287503,-0.31024643320363143,0.5241168841077286,-0.6726787212939649
1539731999303489,-0.3020675974670022,0.5016556038757916,-0.6575417715724421
1539731999319488,-0.2993820096131836,0.48688487067978947,-0.652170595864805
1539731999335474,-0.2998702983138779,0.48700694285496304,-0.6583962767986571
1539731999351460,-0.30634012359807716,0.4984817273212787,-0.6747539482719156
1539731999367446,-0.318181124589914,0.5158159761959258,-0.7017318989852752
1539731999383432,-0.33380636301213107,0.5371786068513007,-0.7316395819028001
1539731999399418,-0.3433279926756696,0.5620813305867092,-0.76069275959411
1539731999415404,-0.3486991683833067,0.5891813534752419,-0.7829098954756999
1539731999431390,-0.3572442206454567,0.6027313649195083,-0.8041504539559012
1539731999447376,-0.3539482719157703,0.6102998397802697,-0.8244144350347145
1539731999463362,-0.34943160143434815,0.6095674067292283,-0.8340581368734266
1539731999479348,-0.34564736400396745,0.6037079423208969,-0.8242923628595409
1539731999495334,-0.3463797970550089,0.5369344625009536,-0.8020752269779505
1539731999511320,-0.3161058976119633,0.6188448920424197,-0.7186999313344016
1539731999527306,-0.3425955596246282,0.5786831464103148,-0.7261463340199894
1539731999543292,-0.3463797970550089,0.5094682230869001,-0.7658197909514
1539731999559278,-0.3400320439459832,0.5336385137712671,-0.7255359731441215
1539731999575264,-0.3285572594796675,0.5529259174486914,-0.696116578927291
1539731999591250,-0.32794689860379966,0.5331502250705729,-0.7146715495536737
1539731999607236,-0.33173113603418036,0.5281452658884564,-0.7348134584573129
1539731999623221,-0.32794689860379966,0.5435263599603264,-0.7328603036545358
1539731999639190,-0.3278248264286261,0.5496299687190049,-0.7406729228656443
1539731999655176,-0.32965590905622966,0.5559777218280306,-0.749584191653315
1539731999671162,-0.3361257343404289,0.5685511558709084,-0.7548332951857786
1539731999687148,-0.348332951857786,0.5735561150530248,-0.7669184405279621
1539731999703134,-0.35284962233920814,0.5764858472571905,-0.7776607919432363
1539731999719120,-0.3479667353322653,0.5817349507896541,-0.7781490806439306
1539731999735106,-0.3421072709239339,0.5840543221179519,-0.7791256580453192
1539731999751092,-0.33600366216525535,0.5784390020599677,-0.7793698023956663
1539731999767078,-0.3285572594796675,0.5707484550240327,-0.7733882658121614
1539731999783064,-0.3240405889982454,0.5645227740901806,-0.7610589761196307
1539731999799050,-0.3283131151293204,0.556710154879072,-0.7450675211718929
1539731999815036,-0.3316090638590068,0.5498741130693521,-0.7337148088807508
1539731999831022,-0.3362478065156025,0.5425497825589378,-0.7290760662241551
1539731999847008,-0.3412527656977189,0.5430380712596321,-0.726268406195163
1539731999862994,-0.3428397039749753,0.5486533913176164,-0.7311512932021058
1539731999878980,-0.3463797970550089,0.5521934843976499,-0.7371328297856108
1539731999894966,-0.34699015793087673,0.5589074540321963,-0.7464103150988022
1539731999910952,-0.34601358052948816,0.5653772793163956,-0.7562981612878614
1539731999926938,-0.3412527656977189,0.5698939497978177,-0.7678950179293507
1539731999942924,-0.33722438391699106,0.5718471046005948,-0.7703364614328221
1539731999958923,-0.3335622186617839,0.573800259403372,-0.7707026779583428
1539731999974909,-0.33380636301213107,0.5700160219729913,-0.7680170901045242
1539731999990895,-0.3362478065156025,0.5668421454184784,-0.7660639353017471
1539732000006881,-0.33466086823834607,0.5615930418860149,-0.756420233463035
1539732000022867,-0.3335622186617839,0.5571984435797663,-0.7487296864271
1539732000038853,-0.33392843518730464,0.5545128557259478,-0.7400625619897765
1539732000054839,-0.33185320820935393,0.5550011444266421,-0.7364003967345694
1539732000070825,-0.3374685282673382,0.5524376287479971,-0.7349355306324865
1539732000086811,-0.3390554665445946,0.5535362783245592,-0.7443350881208515
1539732000102797,-0.33856717784390034,0.5571984435797663,-0.7465323872739758
1539732000118783,-0.34149691004806604,0.5606164644846263,-0.75214770733196
1539732000134769,-0.34064240482185104,0.5629358358129242,-0.7558098725871671
1539732000150755,-0.33636987869077606,0.5685511558709084,-0.7594720378423743
1539732000166741,-0.3340505073624782,0.5675745784695199,-0.7613031204699778
1539732000182726,-0.3320973525597011,0.5683070115205613,-0.7613031204699778
1539732000198712,-0.3382009613183796,0.5694056610971234,-0.756420233463035
1539732000214698,-0.34149691004806604,0.5653772793163956,-0.7542229343099107
1539732000230684,-0.3378347447928589,0.562691691462577,-0.75385671778439
1539732000246670,-0.33978789959563604,0.5634241245136185,-0.7509269855802243
1539732000262656,-0.33978789959563604,0.5598840314335849,-0.7490959029526207
1539732000278625,-0.344914930952926,0.5564660105287249,-0.7468986037994965
1539732000294611,-0.3463797970550089,0.5547570000762949,-0.7456778820477608
1539732000310597,-0.34479285877775245,0.5574425879301135,-0.7438467994201572
1539732000326583,-0.346623941405356,0.5580529488059813,-0.7440909437705043
1539732000342569,-0.34650186923018245,0.5573205157549399,-0.7471427481498436
1539732000358555,-0.3419851987487603,0.558419165331502,-0.75214770733196
1539732000374541,-0.34137483787289247,0.5622034027618827,-0.751293202105745
1539732000390527,-0.3412527656977189,0.5628137636377506,-0.75556572823682
1539732000406513,-0.34137483787289247,0.5636682688639656,-0.7534905012588693
1539732000422499,-0.3417410543984132,0.5636682688639656,-0.7522697795071336
1539732000438485,-0.3373464560921646,0.5651331349660484,-0.7545891508354314
1539732000454471,-0.33636987869077606,0.5657434958419163,-0.7562981612878614
1539732000470457,-0.3350270847638668,0.5637903410391392,-0.7525139238574807
1539732000486443,-0.33380636301213107,0.5604943923094527,-0.75385671778439
1539732000502429,-0.3344167238879989,0.5585412375066756,-0.7486076142519265
1539732000518415,-0.33380636301213107,0.5598840314335849,-0.7450675211718929
1539732000534401,-0.3345387960631725,0.5585412375066756,-0.7450675211718929
1539732000550387,-0.34015411612115676,0.5552452887769892,-0.7454337376974136
1539732000566372,-0.3434500648508432,0.5586633096818492,-0.7477531090257115
1539732000582358,-0.3429617761501489,0.5628137636377506,-0.7457999542229343
1539732000598358,-0.3463797970550089,0.5613488975356677,-0.7515373464560922
1539732000614344,-0.3445487144274053,0.5653772793163956,-0.7525139238574807
1539732000630330,-0.3403982604715039,0.5658655680170899,-0.7551995117112993
1539732000646316,-0.33942168307011533,0.5641565575646599,-0.7559319447623407
1539732000662302,-0.34052033264667747,0.5625696192874035,-0.7549553673609521
1539732000678288,-0.34137483787289247,0.5636682688639656,-0.7506828412298772
1539732000694274,-0.34015411612115676,0.5617151140611885,-0.7510490577553979
1539732000710260,-0.33636987869077606,0.5625696192874035,-0.7509269855802243
1539732000726246,-0.33563744563973463,0.562691691462577,-0.7532463569085222
1539732000742231,-0.33722438391699106,0.5642786297398334,-0.753002212558175
1539732000758217,-0.3399099717708096,0.5606164644846263,-0.7525139238574807
1539732000774203,-0.34320592050049603,0.5613488975356677,-0.74702067597467
1539732000790189,-0.34271763179980175,0.5628137636377506,-0.7498283360036622
1539732000806175,-0.3412527656977189,0.5615930418860149,-0.7503166247043564
1539732000822161,-0.34149691004806604,0.5622034027618827,-0.7519035629816129
1539732000838147,-0.3419851987487603,0.561837186236362,-0.7492179751277943
1539732000854133,-0.34271763179980175,0.5611047531853206,-0.7477531090257115
1539732000870119,-0.3396658274204625,0.5591515983825435,-0.7515373464560922
1539732000886105,-0.3358815899900818,0.5611047531853206,-0.7505607690547036
1539732000902091,-0.3331960021362632,0.5606164644846263,-0.7497062638284886
1539732000918090,-0.3357595178149082,0.560982681010147,-0.7503166247043564
1539732000934076,-0.34064240482185104,0.5615930418860149,-0.7490959029526207
1539732000950062,-0.34515907530327317,0.5615930418860149,-0.7515373464560922
1539732000966048,-0.34613565270466173,0.5623254749370563,-0.7506828412298772
1539732000982034,-0.34528114747844674,0.5629358358129242,-0.7527580682078279
1539732000998020,-0.3438162813763639,0.5624475471122299,-0.7543450064850843
1539732001014006,-0.3450370031280996,0.5603723201342792,-0.7527580682078279
1539732001029992,-0.3419851987487603,0.5608606088349735,-0.75043869687953
1539732001045978,-0.3395437552452889,0.5614709697108413,-0.7511711299305714
1539732001061964,-0.33978789959563604,0.560982681010147,-0.7476310368505379
1539732001077950,-0.33929961089494176,0.5591515983825435,-0.7484855420767529
1539732001093936,-0.3361257343404289,0.5611047531853206,-0.7481193255512322
1539732001109922,-0.33478294041351964,0.5563439383535513,-0.7489738307774472
1539732001125908,-0.33514915693904035,0.5589074540321963,-0.7479972533760586
1539732001141894,-0.33978789959563604,0.5597619592584113,-0.7487296864271
1539732001157880,-0.3403982604715039,0.5613488975356677,-0.7497062638284886
1539732001173866,-0.3434500648508432,0.5623254749370563,-0.7501945525291829
1539732001189852,-0.34564736400396745,0.5629358358129242,-0.7523918516823072
1539732001205838,-0.34650186923018245,0.5646448462653542,-0.7517814908064393
1539732001221824,-0.3454032196536203,0.5650110627908749,-0.7505607690547036
1539732001237793,-0.3458915083543146,0.5651331349660484,-0.7534905012588693
1539732001253779,-0.344914930952926,0.5613488975356677,-0.75556572823682
1539732001269765,-0.3411306935225453,0.5634241245136185,-0.7537346456092164
1539732001285750,-0.3383230334935532,0.5637903410391392,-0.7531242847333486
1539732001301736,-0.3391775387197682,0.5624475471122299,-0.7494621194781415
1539732001317722,-0.3396658274204625,0.5606164644846263,-0.7487296864271
1539732001333708,-0.3366140230411232,0.5603723201342792,-0.7482413977264057
1539732001349694,-0.33514915693904035,0.5606164644846263,-0.747875181200885
1539732001365680,-0.3378347447928589,0.5589074540321963,-0.7450675211718929
1539732001381666,-0.3396658274204625,0.5580529488059813,-0.7468986037994965
1539732001397652,-0.3399099717708096,0.5581750209811549,-0.7457999542229343
1539732001413638,-0.33807888914320605,0.5587853818570228,-0.7493400473029679
1539732001429624,-0.33636987869077606,0.5595178149080642,-0.7506828412298772
1539732001445610,-0.34137483787289247,0.5615930418860149,-0.7493400473029679
1539732001461596,-0.3436942092011903,0.5608606088349735,-0.749584191653315
1539732001477582,-0.34430457007705817,0.5617151140611885,-0.7531242847333486
1539732001493568,-0.34430457007705817,0.5637903410391392,-0.7520256351567864
1539732001509554,-0.344914930952926,0.562691691462577,-0.7525139238574807
1539732001525540,-0.3433279926756696,0.5617151140611885,-0.7525139238574807
1539732001541526,-0.3433279926756696,0.5624475471122299,-0.7514152742809186
1539732001557525,-0.3407644769970246,0.5591515983825435,-0.7549553673609521
1539732001573511,-0.33759060044251177,0.559273670557717,-0.7508049134050507
1539732001589497,-0.33722438391699106,0.5608606088349735,-0.7460440985732815
1539732001605483,-0.34137483787289247,0.5615930418860149,-0.7439688715953308
1539732001621469,-0.3450370031280996,0.5615930418860149,-0.7440909437705043
1539732001637455,-0.3421072709239339,0.5625696192874035,-0.7468986037994965
1539732001653441,-0.3400320439459832,0.5647669184405277,-0.7534905012588693
1539732001669427,-0.33771267261768534,0.5639124132143127,-0.7548332951857786
1539732001685413,-0.33807888914320605,0.562691691462577,-0.7559319447623407
1539732001701399,-0.3411306935225453,0.562691691462577,-0.751293202105745
1539732001717385,-0.34137483787289247,0.560982681010147,-0.7508049134050507
1539732001733371,-0.3428397039749753,0.5611047531853206,-0.7508049134050507
1539732001749357,-0.34027618829633033,0.561837186236362,-0.7509269855802243
1539732001765343,-0.3399099717708096,0.5622034027618827,-0.7519035629816129
1539732001781329,-0.34308384832532246,0.5623254749370563,-0.7498283360036622
1539732001797315,-0.34149691004806604,0.562691691462577,-0.7492179751277943
1539732001813301,-0.3438162813763639,0.5620813305867092,-0.7501945525291829
1539732001829287,-0.34186312657358675,0.5608606088349735,-0.7498283360036622
1539732001845273,-0.3412527656977189,0.5600061036087585,-0.7493400473029679
1539732001861259,-0.33759060044251177,0.5600061036087585,-0.7492179751277943
1539732001877227,-0.3386892500190739,0.5598840314335849,-0.7448233768215458
1539732001893213,-0.3400320439459832,0.5596398870832378,-0.744457160296025
1539732001909199,-0.3411306935225453,0.5585412375066756,-0.7497062638284886
1539732001925185,-0.3416189822232396,0.5591515983825435,-0.7508049134050507
1539732001941171,-0.3436942092011903,0.5611047531853206,-0.7520256351567864
1539732001957157,-0.3434500648508432,0.5631799801632713,-0.7533684290836957
1539732001973143,-0.3450370031280996,0.5645227740901806,-0.7533684290836957
1539732001989129,-0.344914930952926,0.564400701915007,-0.7527580682078279
1539732002005115,-0.3429617761501489,0.566109712367437,-0.751293202105745
1539732002021101,-0.33893339436942105,0.5641565575646599,-0.7522697795071336
1539732002037087,-0.3369802395666439,0.5631799801632713,-0.7542229343099107
1539732002053073,-0.3361257343404289,0.5612268253604942,-0.7534905012588693
1539732002069059,-0.3345387960631725,0.5604943923094527,-0.749584191653315
1539732002085045,-0.33478294041351964,0.5613488975356677,-0.7462882429236286
1539732002101031,-0.3341725795376518,0.5600061036087585,-0.747875181200885
1539732002117017,-0.3328297856107425,0.5611047531853206,-0.7476310368505379
1539732002133003,-0.33270771343556893,0.560982681010147,-0.7467765316243229
1539732002148989,-0.33258564126039536,0.5623254749370563,-0.7506828412298772
1539732002164975,-0.3336842908369575,0.5622034027618827,-0.7516594186312657
1539732002180961,-0.3362478065156025,0.5628137636377506,-0.754711223010605
1539732002196960,-0.3386892500190739,0.5634241245136185,-0.7541008621347371
1539732002212946,-0.34027618829633033,0.5659876401922634,-0.7533684290836957
1539732002228932,-0.3419851987487603,0.5639124132143127,-0.7531242847333486
1539732002244918,-0.34479285877775245,0.5633020523384449,-0.7543450064850843
1539732002260904,-0.3484550240329596,0.5606164644846263,-0.7525139238574807
1539732002276890,-0.3504081788357367,0.5602502479591056,-0.75043869687953
1539732002292876,-0.3486991683833067,0.5597619592584113,-0.7447013046463722
1539732002308862,-0.34601358052948816,0.5602502479591056,-0.7449454489967193
1539732002324848,-0.34308384832532246,0.559273670557717,-0.7442130159456779
1539732002340834,-0.34320592050049603,0.5591515983825435,-0.7473868925001907
1539732002356820,-0.3416189822232396,0.5602502479591056,-0.7479972533760586
1539732002372806,-0.3428397039749753,0.5603723201342792,-0.7514152742809186
1539732002388792,-0.3391775387197682,0.5598840314335849,-0.7494621194781415
1539732002404778,-0.3366140230411232,0.561837186236362,-0.7527580682078279
1539732002420764,-0.33466086823834607,0.561837186236362,-0.7532463569085222
1539732002436750,-0.33600366216525535,0.5636682688639656,-0.7516594186312657
1539732002452736,-0.3408865491721982,0.564400701915007,-0.7515373464560922
1539732002468721,-0.34320592050049603,0.5639124132143127,-0.7508049134050507
1539732002484707,-0.344914930952926,0.5615930418860149,-0.7517814908064393
1539732002500693,-0.344914930952926,0.5637903410391392,-0.7531242847333486
1539732002516662,-0.3407644769970246,0.5622034027618827,-0.7520256351567864
1539732002532648,-0.34149691004806604,0.561837186236362,-0.7522697795071336
1539732002548634,-0.33844510566872676,0.5612268253604942,-0.7511711299305714
1539732002564620,-0.3362478065156025,0.5620813305867092,-0.7501945525291829
1539732002580606,-0.3341725795376518,0.5628137636377506,-0.7486076142519265
1539732002596592,-0.3341725795376518,0.5624475471122299,-0.7467765316243229
1539732002612578,-0.33514915693904035,0.562691691462577,-0.7472648203250172
1539732002628564,-0.3352712291142139,0.5637903410391392,-0.7498283360036622
1539732002644550,-0.33478294041351964,0.563546196688792,-0.7505607690547036
1539732002660536,-0.33771267261768534,0.5613488975356677,-0.7488517586022736
1539732002676522,-0.34027618829633033,0.5639124132143127,-0.7490959029526207
1539732002692508,-0.3429617761501489,0.5615930418860149,-0.7481193255512322
1539732002708494,-0.3429617761501489,0.5630579079880977,-0.7519035629816129
1539732002724480,-0.3419851987487603,0.5611047531853206,-0.7514152742809186
1539732002740466,-0.34186312657358675,0.5620813305867092,-0.7523918516823072
1539732002756452,-0.3416189822232396,0.5600061036087585,-0.7514152742809186
1539732002772438,-0.3412527656977189,0.5641565575646599,-0.7486076142519265
1539732002788424,-0.34393835355153746,0.5624475471122299,-0.7505607690547036
1539732002804410,-0.34528114747844674,0.5623254749370563,-0.7503166247043564
1539732002820396,-0.3476005188067446,0.5619592584115356,-0.7481193255512322
1539732002836395,-0.34723430228122387,0.563546196688792,-0.7488517586022736
1539732002852381,-0.34821087968261244,0.5629358358129242,-0.7487296864271
1539732002868367,-0.34308384832532246,0.5615930418860149,-0.7486076142519265
1539732002884353,-0.344914930952926,0.5623254749370563,-0.7457999542229343
1539732002900339,-0.34613565270466173,0.5578088044556342,-0.7476310368505379
1539732002916325,-0.3433279926756696,0.5595178149080642,-0.7483634699015793
1539732002932311,-0.3429617761501489,0.5603723201342792,-0.7472648203250172
1539732002948297,-0.33893339436942105,0.5629358358129242,-0.7483634699015793
1539732002964283,-0.33929961089494176,0.5617151140611885,-0.7492179751277943
1539732002980269,-0.3412527656977189,0.5620813305867092,-0.7486076142519265
1539732002996255,-0.3412527656977189,0.5624475471122299,-0.7525139238574807
1539732003012241,-0.34052033264667747,0.5622034027618827,-0.75043869687953
1539732003028226,-0.3395437552452889,0.5645227740901806,-0.7522697795071336
1539732003044212,-0.3374685282673382,0.5617151140611885,-0.75385671778439
1539732003060198,-0.3357595178149082,0.563546196688792,-0.7516594186312657
1539732003076184,-0.3362478065156025,0.5642786297398334,-0.7482413977264057
1539732003092170,-0.33514915693904035,0.562691691462577,-0.7510490577553979
1539732003108156,-0.33270771343556893,0.564400701915007,-0.75043869687953
1539732003124142,-0.3341725795376518,0.5631799801632713,-0.7517814908064393
1539732003140128,-0.33807888914320605,0.5619592584115356,-0.7511711299305714
1539732003156097,-0.3403982604715039,0.5622034027618827,-0.7498283360036622
1539732003172083,-0.34308384832532246,0.561837186236362,-0.7459220263981079
1539732003188069,-0.34479285877775245,0.5595178149080642,-0.74702067597467
1539732003204055,-0.3441824979018846,0.5587853818570228,-0.74702067597467
1539732003220041,-0.34650186923018245,0.5597619592584113,-0.7484855420767529
1539732003236027,-0.34613565270466173,0.5591515983825435,-0.746166170748455
1539732003252013,-0.34515907530327317,0.5581750209811549,-0.7483634699015793
1539732003267999,-0.3458915083543146,0.5608606088349735,-0.7483634699015793
1539732003283985,-0.3454032196536203,0.5598840314335849,-0.7475089646753643
1539732003299971,-0.3476005188067446,0.5607385366597999,-0.7473868925001907
1539732003315957,-0.3463797970550089,0.560128175783932,-0.747875181200885
1539732003331943,-0.34393835355153746,0.560982681010147,-0.749584191653315
1539732003347929,-0.3388113221942475,0.5629358358129242,-0.7503166247043564
1539732003363915,-0.3379568169680325,0.5629358358129242,-0.7514152742809186
1539732003379901,-0.3374685282673382,0.5625696192874035,-0.749584191653315
1539732003395887,-0.3374685282673382,0.5639124132143127,-0.751293202105745
1539732003411872,-0.33929961089494176,0.5647669184405277,-0.7525139238574807
1539732003427858,-0.3391775387197682,0.5650110627908749,-0.7515373464560922
1539732003443844,-0.34149691004806604,0.5628137636377506,-0.7499504081788357
1539732003459830,-0.33978789959563604,0.5637903410391392,-0.7484855420767529
1539732003475830,-0.3379568169680325,0.5623254749370563,-0.7519035629816129
1539732003491816,-0.33380636301213107,0.5631799801632713,-0.7514152742809186
1539732003507802,-0.33807888914320605,0.5631799801632713,-0.7476310368505379
1539732003523788,-0.3412527656977189,0.5603723201342792,-0.7464103150988022
1539732003539774,-0.34393835355153746,0.5611047531853206,-0.7497062638284886
1539732003555760,-0.3417410543984132,0.5606164644846263,-0.7484855420767529
1539732003571745,-0.33978789959563604,0.5613488975356677,-0.7475089646753643
1539732003587731,-0.3395437552452889,0.5620813305867092,-0.7499504081788357
1539732003603717,-0.3391775387197682,0.5606164644846263,-0.7501945525291829
1539732003619703,-0.3378347447928589,0.5629358358129242,-0.7515373464560922
1539732003635689,-0.33893339436942105,0.561837186236362,-0.7506828412298772
1539732003651675,-0.3391775387197682,0.562691691462577,-0.7490959029526207
1539732003667661,-0.34052033264667747,0.5639124132143127,-0.7475089646753643
1539732003683647,-0.34235141527428103,0.5631799801632713,-0.7479972533760586
1539732003699633,-0.344060425726711,0.560982681010147,-0.7528801403830014
1539732003715619,-0.3421072709239339,0.5623254749370563,-0.7516594186312657
1539732003731605,-0.3424734874494546,0.561837186236362,-0.7514152742809186
1539732003747591,-0.34564736400396745,0.5624475471122299,-0.7506828412298772
1539732003763577,-0.3512626840619517,0.5606164644846263,-0.7448233768215458
1539732003779563,-0.34991989013504243,0.5633020523384449,-0.7466544594491493
1539732003795532,-0.347478446631571,0.5629358358129242,-0.7484855420767529
1539732003811518,-0.34442664225223174,0.5625696192874035,-0.7493400473029679
1539732003827504,-0.3417410543984132,0.561837186236362,-0.7511711299305714
1539732003843490,-0.34271763179980175,0.5617151140611885,-0.7493400473029679
1539732003859476,-0.3391775387197682,0.5611047531853206,-0.7465323872739758
1539732003875462,-0.33722438391699106,0.5602502479591056,-0.7498283360036622
1539732003891448,-0.3357595178149082,0.5603723201342792,-0.7506828412298772
1539732003907434,-0.33087663080796537,0.5607385366597999,-0.75214770733196
1539732003923420,-0.3324635690852218,0.5615930418860149,-0.7509269855802243
1539732003939406,-0.33270771343556893,0.5631799801632713,-0.7472648203250172
1539732003955392,-0.3353933012893875,0.5636682688639656,-0.7475089646753643
1539732003971377,-0.33551537346456106,0.5615930418860149,-0.7548332951857786
1539732003987363,-0.33722438391699106,0.5634241245136185,-0.7519035629816129
1539732004003349,-0.3366140230411232,0.5641565575646599,-0.7527580682078279
1539732004019335,-0.3395437552452889,0.5637903410391392,-0.7499504081788357
1539732004035321,-0.3424734874494546,0.5625696192874035,-0.7522697795071336
1539732004051307,-0.3408865491721982,0.5633020523384449,-0.7503166247043564
1539732004067293,-0.344060425726711,0.5619592584115356,-0.7494621194781415
