Timestamp (microseconds),Gyro X (°/s),Gyro Y (°/s),Gyro Z (°/s)
1539731978856842,-0.7629510948347615,1.0681315327688026,-2.227817196917613
1539731978872838,-0.7019150072480898,1.2512397955290453,-2.4719615472647547
1539731978888835,-0.5798428320745188,1.1291676203554744,-1.8005645838102282
1539731978904831,-0.213626306553806,1.3122758831159445,-1.0681315327688026
1539731978920827,-0.15259021896690683,1.3122758831159445,-0.6408789196611906
1539731978936824,0.15259021896690683,0.7019150072480898,-0.2746623941404778
1539731978952820,0.03051804379333589,0.15259021896690683,-0.45777065690094787
1539731978968817,0.03051804379333589,-0.15259021896690683,-0.3967345693140487
1539731978984813,0.15259021896690683,-0.03051804379333589,-0.213626306553806
1539731979000810,0.3967345693140487,-0.03051804379333589,-0.15259021896690683
1539731979016806,0.45777065690094787,-0.09155413138023505,-0.45777065690094787
1539731979032803,0.45777065690094787,0.09155413138023505,-0.7019150072480898
1539731979048799,0.45777065690094787,0.2746623941404778,-0.7629510948347615
1539731979064796,0.5188067444876197,0.5188067444876197,-0.7629510948347615
1539731979080792,0.6408789196611906,0.6408789196611906,-0.8239871824216607
1539731979096789,0.3967345693140487,0.8239871824216607,-1.1291676203554744
1539731979112785,0.33569848172737693,0.6408789196611906,-1.3122758831159445
1539731979128781,0.33569848172737693,0.7019150072480898,-1.0681315327688026
1539731979144778,0.5188067444876197,0.6408789196611906,-0.7019150072480898
1539731979160774,0.5188067444876197,0.5798428320745188,-0.5798428320745188
1539731979176788,0.213626306553806,0.7019150072480898,-0.5188067444876197
1539731979192784,-0.03051804379333589,0.45777065690094787,-0.7019150072480898
1539731979208781,-0.15259021896690683,0.15259021896690683,-1.1902037079423735
1539731979224777,-0.213626306553806,0.2746623941404778,-1.1902037079423735
1539731979240774,-0.2746623941404778,0.7019150072480898,-0.9460593575952316
1539731979256770,-0.15259021896690683,0.7629510948347615,-0.8850232700083325
1539731979272767,-0.15259021896690683,0.9460593575952316,-1.0681315327688026
1539731979288763,-0.2746623941404778,1.0681315327688026,-1.1291676203554744
1539731979304760,-0.09155413138023505,1.4953841458761872,-0.5798428320745188
1539731979320756,0.09155413138023505,1.1291676203554744,-0.6408789196611906
1539731979336753,-0.2746623941404778,0.8850232700083325,-1.1291676203554744
1539731979352749,-0.213626306553806,0.45777065690094787,-1.4343480582895154
1539731979368745,0.03051804379333589,0.5188067444876197,-1.3122758831159445
1539731979384742,0.03051804379333589,0.45777065690094787,-1.0681315327688026
1539731979400738,-0.15259021896690683,0.45777065690094787,-0.8850232700083325
1539731979416735,-0.213626306553806,0.3967345693140487,-0.9460593575952316
1539731979432731,-0.09155413138023505,0.33569848172737693,-1.1291676203554744
1539731979448728,-0.15259021896690683,0.33569848172737693,-1.3122758831159445
1539731979464724,-0.09155413138023505,0.2746623941404778,-1.3122758831159445
1539731979480721,0.09155413138023505,0.45777065690094787,-1.1291676203554744
1539731979496704,0.213626306553806,0.5188067444876197,-0.8850232700083325
1539731979512700,0.09155413138023505,0.5188067444876197,-0.8850232700083325
1539731979528697,0.09155413138023505,0.2746623941404778,-1.1291676203554744
1539731979544693,0.213626306553806,0.03051804379333589,-1.2512397955290453
1539731979560690,0.213626306553806,-0.03051804379333589,-1.1291676203554744
1539731979576686,0.2746623941404778,-0.03051804379333589,-0.9460593575952316
1539731979592682,0.213626306553806,-0.03051804379333589,-0.7629510948347615
1539731979608679,0.15259021896690683,0.213626306553806,-0.7629510948347615
1539731979624675,0.03051804379333589,0.15259021896690683,-0.8850232700083325
1539731979640672,-0.03051804379333589,0.2746623941404778,-1.0681315327688026
1539731979656668,-0.15259021896690683,0.6408789196611906,-1.1291676203554744
1539731979672665,-0.09155413138023505,1.0070954451819034,-1.0681315327688026
1539731979688661,0.09155413138023505,1.1902037079423735,-1.2512397955290453
1539731979704658,0.15259021896690683,1.2512397955290453,-1.6174563210497581
1539731979720654,0.15259021896690683,1.3122758831159445,-1.739528496223329
1539731979736651,0.213626306553806,1.4343480582895154,-1.6784924086366573
1539731979752647,0.3967345693140487,1.3122758831159445,-1.6174563210497581
1539731979768643,0.45777065690094787,1.1902037079423735,-1.6174563210497581
1539731979784640,0.213626306553806,1.0681315327688026,-1.4953841458761872
1539731979800636,0.15259021896690683,1.2512397955290453,-1.0681315327688026
1539731979816497,0.45777065690094787,1.0070954451819034,-0.7019150072480898
1539731979832493,0.2746623941404778,0.6408789196611906,-1.0070954451819034
1539731979848489,0.03051804379333589,-0.03051804379333589,-1.2512397955290453
1539731979864485,-0.09155413138023505,-0.03051804379333589,-1.2512397955290453
1539731979880481,-0.15259021896690683,0.09155413138023505,-0.8239871824216607
1539731979896477,0.09155413138023505,-0.03051804379333589,-0.5798428320745188
1539731979912473,0.03051804379333589,0.03051804379333589,-0.7019150072480898
1539731979928469,-0.15259021896690683,0.09155413138023505,-0.8239871824216607
1539731979944465,-0.2746623941404778,0.09155413138023505,-1.1902037079423735
1539731979960461,-0.213626306553806,0.5188067444876197,-1.3733119707026162
1539731979976457,-0.2746623941404778,0.6408789196611906,-1.3733119707026162
1539731979992453,-0.33569848172737693,0.7019150072480898,-1.4953841458761872
1539731980008449,-0.2746623941404778,0.7019150072480898,-1.6174563210497581
1539731980024445,-0.03051804379333589,0.7019150072480898,-1.5564202334630863
1539731980040441,0.09155413138023505,0.7629510948347615,-1.1291676203554744
1539731980056437,0.2746623941404778,0.5798428320745188,-0.7629510948347615
1539731980072433,0.213626306553806,0.15259021896690683,-0.8239871824216607
1539731980088429,0.03051804379333589,-0.15259021896690683,-0.7629510948347615
1539731980104425,0.03051804379333589,-0.33569848172737693,-0.45777065690094787
1539731980120421,0.09155413138023505,-0.45777065690094787,-0.2746623941404778
1539731980136230,-0.03051804379333589,-0.5798428320745188,-0.2746623941404778
1539731980152226,-0.213626306553806,-0.5188067444876197,-0.33569848172737693
1539731980168221,-0.33569848172737693,-0.5188067444876197,-0.5798428320745188
1539731980184217,-0.213626306553806,-0.45777065690094787,-0.8239871824216607
1539731980200212,-0.09155413138023505,-0.15259021896690683,-1.0070954451819034
1539731980216208,-0.09155413138023505,0.15259021896690683,-1.0070954451819034
1539731980232203,-0.09155413138023505,0.5188067444876197,-0.9460593575952316
1539731980248199,-0.03051804379333589,1.0070954451819034,-0.9460593575952316
1539731980264194,0.15259021896690683,1.2512397955290453,-0.8850232700083325
1539731980280190,0.15259021896690683,1.0681315327688026,-1.1902037079423735
1539731980296185,-0.15259021896690683,1.0070954451819034,-1.3733119707026162
1539731980312181,-0.213626306553806,0.7019150072480898,-1.5564202334630863
1539731980328176,-0.15259021896690683,0.7019150072480898,-1.4953841458761872
1539731980344172,-0.15259021896690683,0.5798428320745188,-1.1291676203554744
1539731980360167,-0.09155413138023505,0.2746623941404778,-0.8239871824216607
1539731980376163,-0.09155413138023505,0.33569848172737693,-0.7019150072480898
1539731980392158,-0.15259021896690683,0.213626306553806,-0.7019150072480898
1539731980408154,-0.09155413138023505,0.09155413138023505,-0.7629510948347615
1539731980424149,-0.03051804379333589,0.09155413138023505,-0.8239871824216607
1539731980440145,0.03051804379333589,0.15259021896690683,-0.6408789196611906
1539731980455993,0.213626306553806,0.45777065690094787,-0.45777065690094787
1539731980471988,0.213626306553806,0.5188067444876197,-0.5798428320745188
1539731980487982,0.09155413138023505,0.45777065690094787,-0.8850232700083325
1539731980503977,-0.03051804379333589,0.5188067444876197,-1.0681315327688026
1539731980519971,-0.03051804379333589,0.6408789196611906,-0.8850232700083325
1539731980535966,0.2746623941404778,0.8239871824216607,-0.7629510948347615
1539731980551961,0.2746623941404778,0.7629510948347615,-0.8239871824216607
1539731980567955,0.09155413138023505,0.5798428320745188,-1.0070954451819034
1539731980583950,0.03051804379333589,0.33569848172737693,-1.1291676203554744
1539731980599944,0.15259021896690683,0.5188067444876197,-0.8239871824216607
1539731980615939,0.09155413138023505,0.45777065690094787,-0.5798428320745188
1539731980631933,0.15259021896690683,0.3967345693140487,-0.45777065690094787
1539731980647928,0.15259021896690683,0.213626306553806,-0.3967345693140487
1539731980663922,0.33569848172737693,0.213626306553806,-0.2746623941404778
1539731980679917,0.3967345693140487,0.213626306553806,-0.15259021896690683
1539731980695912,0.33569848172737693,0.15259021896690683,-0.2746623941404778
1539731980711906,0.213626306553806,-0.15259021896690683,-0.3967345693140487
1539731980727901,0.2746623941404778,-0.15259021896690683,-0.3967345693140487
1539731980743895,0.5188067444876197,-0.03051804379333589,-0.33569848172737693
1539731980759890,0.5188067444876197,0.09155413138023505,-0.213626306553806
1539731980775695,0.3967345693140487,0.09155413138023505,-0.09155413138023505
1539731980791689,0.33569848172737693,0.15259021896690683,-0.213626306553806
1539731980807684,0.213626306553806,0.213626306553806,-0.45777065690094787
1539731980823678,0.15259021896690683,0.33569848172737693,-0.7019150072480898
1539731980839672,0.03051804379333589,0.5798428320745188,-0.8850232700083325
1539731980855666,-0.15259021896690683,0.5798428320745188,-1.1291676203554744
1539731980871660,-0.213626306553806,0.5798428320745188,-1.1902037079423735
1539731980887654,-0.213626306553806,0.8239871824216607,-1.0681315327688026
1539731980903648,-0.15259021896690683,1.0070954451819034,-1.1291676203554744
1539731980919642,-0.2746623941404778,1.0070954451819034,-1.2512397955290453
1539731980935636,-0.2746623941404778,1.0070954451819034,-1.3122758831159445
1539731980951630,-0.03051804379333589,1.0681315327688026,-1.1902037079423735
1539731980967624,-0.03051804379333589,1.0681315327688026,-1.0681315327688026
1539731980983618,0.213626306553806,0.7629510948347615,-1.0681315327688026
1539731980999612,0.45777065690094787,0.33569848172737693,-1.0070954451819034
1539731981015607,0.33569848172737693,0.03051804379333589,-1.0070954451819034
1539731981031601,0.33569848172737693,-0.03051804379333589,-0.5798428320745188
1539731981047595,0.5188067444876197,0.03051804379333589,-0.15259021896690683
1539731981063589,0.3967345693140487,-0.03051804379333589,0.03051804379333589
1539731981079583,0.15259021896690683,-0.09155413138023505,-0.09155413138023505
1539731981095459,0.03051804379333589,0.03051804379333589,-0.5188067444876197
1539731981111452,-0.09155413138023505,0.15259021896690683,-0.9460593575952316
1539731981127446,-0.15259021896690683,0.2746623941404778,-1.2512397955290453
1539731981143439,0.03051804379333589,0.6408789196611906,-1.2512397955290453
1539731981159433,0.213626306553806,0.8239871824216607,-1.0681315327688026
1539731981175427,0.3967345693140487,0.9460593575952316,-1.0681315327688026
1539731981191420,0.3967345693140487,0.9460593575952316,-1.0070954451819034
1539731981207414,0.45777065690094787,0.8850232700083325,-0.8850232700083325
1539731981223407,0.5798428320745188,0.8850232700083325,-0.7629510948347615
1539731981239401,0.5188067444876197,0.7019150072480898,-0.6408789196611906
1539731981255395,0.33569848172737693,0.5798428320745188,-0.5798428320745188
1539731981271388,0.213626306553806,0.33569848172737693,-0.5798428320745188
1539731981287382,0.15259021896690683,0.213626306553806,-0.5798428320745188
1539731981303375,0.09155413138023505,0.2746623941404778,-0.5188067444876197
1539731981319369,0.03051804379333589,0.213626306553806,-0.5188067444876197
1539731981335363,-0.09155413138023505,0.213626306553806,-0.5798428320745188
1539731981351356,-0.09155413138023505,0.03051804379333589,-0.8239871824216607
1539731981367350,-0.03051804379333589,0.09155413138023505,-0.8239871824216607
1539731981383343,0.2746623941404778,0.33569848172737693,-0.7019150072480898
1539731981399337,0.33569848172737693,0.45777065690094787,-0.5798428320745188
1539731981415161,0.2746623941404778,0.5188067444876197,-0.6408789196611906
1539731981431153,0.3967345693140487,0.45777065690094787,-0.7019150072480898
1539731981447146,0.5188067444876197,0.6408789196611906,-0.6408789196611906
1539731981463139,0.5188067444876197,0.5798428320745188,-0.3967345693140487
1539731981479131,0.33569848172737693,0.5798428320745188,-0.3967345693140487
1539731981495124,0.3967345693140487,0.6408789196611906,-0.3967345693140487
1539731981511117,0.2746623941404778,0.6408789196611906,-0.33569848172737693
1539731981527109,0.15259021896690683,0.6408789196611906,-0.33569848172737693
1539731981543102,0.15259021896690683,0.45777065690094787,-0.5798428320745188
1539731981559095,0.09155413138023505,0.5798428320745188,-0.7629510948347615
1539731981575087,-0.03051804379333589,0.5188067444876197,-0.8850232700083325
1539731981591080,-0.03051804379333589,0.5188067444876197,-0.9460593575952316
1539731981607072,-0.03051804379333589,0.7019150072480898,-0.9460593575952316
1539731981623065,0.03051804379333589,0.7629510948347615,-0.8239871824216607
1539731981639058,0.15259021896690683,0.6408789196611906,-0.8239871824216607
1539731981655050,0.213626306553806,0.5798428320745188,-0.8239871824216607
1539731981671043,0.33569848172737693,0.5188067444876197,-0.7629510948347615
1539731981687036,0.3967345693140487,0.5188067444876197,-0.7019150072480898
1539731981703028,0.2746623941404778,0.3967345693140487,-0.5798428320745188
1539731981719021,0.09155413138023505,0.213626306553806,-0.7019150072480898
1539731981734863,-0.03051804379333589,0.09155413138023505,-0.7019150072480898
1539731981750855,-0.09155413138023505,0.03051804379333589,-0.6408789196611906
1539731981766847,-0.09155413138023505,0.03051804379333589,-0.6408789196611906
1539731981782839,-0.03051804379333589,0.03051804379333589,-0.5798428320745188
1539731981798832,0.03051804379333589,-0.03051804379333589,-0.5188067444876197
1539731981814824,0.09155413138023505,-0.03051804379333589,-0.5188067444876197
1539731981830816,0.15259021896690683,-0.03051804379333589,-0.5188067444876197
1539731981846808,0.213626306553806,-0.03051804379333589,-0.6408789196611906
1539731981862800,0.45777065690094787,-0.03051804379333589,-0.8239871824216607
1539731981878792,0.45777065690094787,0.15259021896690683,-0.8850232700083325
1539731981894785,0.45777065690094787,0.33569848172737693,-0.7019150072480898
1539731981910777,0.5798428320745188,0.45777065690094787,-0.7629510948347615
1539731981926769,0.5188067444876197,0.5188067444876197,-0.8850232700083325
1539731981942761,0.2746623941404778,0.45777065690094787,-1.0070954451819034
1539731981958753,0.213626306553806,0.45777065690094787,-1.0070954451819034
1539731981974745,0.2746623941404778,0.5188067444876197,-0.9460593575952316
1539731981990738,0.09155413138023505,0.5188067444876197,-1.0070954451819034
1539731982006730,0.03051804379333589,0.33569848172737693,-1.1291676203554744
1539731982022722,0.03051804379333589,0.33569848172737693,-1.0681315327688026
1539731982038714,0.03051804379333589,0.3967345693140487,-0.8850232700083325
1539731982054626,-0.03051804379333589,0.33569848172737693,-0.7629510948347615
1539731982070618,0.09155413138023505,0.33569848172737693,-0.7019150072480898
1539731982086609,0.15259021896690683,0.2746623941404778,-0.7019150072480898
1539731982102601,0.33569848172737693,0.33569848172737693,-0.7019150072480898
1539731982118593,0.3967345693140487,0.3967345693140487,-0.7629510948347615
1539731982134585,0.45777065690094787,0.3967345693140487,-0.8239871824216607
1539731982150576,0.45777065690094787,0.45777065690094787,-0.8850232700083325
1539731982166568,0.45777065690094787,0.6408789196611906,-0.7629510948347615
1539731982182560,0.3967345693140487,0.6408789196611906,-0.7019150072480898
1539731982198551,0.33569848172737693,0.5798428320745188,-0.7019150072480898
1539731982214543,0.09155413138023505,0.5798428320745188,-0.8239871824216607
1539731982230535,-0.09155413138023505,0.45777065690094787,-1.0070954451819034
1539731982246526,-0.09155413138023505,0.5188067444876197,-0.9460593575952316
1539731982262518,0.03051804379333589,0.8239871824216607,-0.8239871824216607
1539731982278510,0.03051804379333589,0.7019150072480898,-0.8239871824216607
1539731982294501,-0.03051804379333589,0.3967345693140487,-1.0681315327688026
1539731982310493,0.03051804379333589,0.3967345693140487,-1.1902037079423735
1539731982326485,0.15259021896690683,0.5188067444876197,-1.1291676203554744
1539731982342476,0.15259021896690683,0.5798428320745188,-1.0070954451819034
1539731982358468,0.15259021896690683,0.7019150072480898,-0.9460593575952316
1539731982374328,0.15259021896690683,0.8850232700083325,-1.0070954451819034
1539731982390319,0.15259021896690683,0.8239871824216607,-1.0681315327688026
1539731982406311,0.15259021896690683,0.7629510948347615,-1.1902037079423735
1539731982422302,0.15259021896690683,0.7019150072480898,-1.2512397955290453
1539731982438293,0.2746623941404778,0.6408789196611906,-1.0681315327688026
1539731982454284,0.45777065690094787,0.5798428320745188,-0.8239871824216607
1539731982470276,0.5188067444876197,0.3967345693140487,-0.8239871824216607
1539731982486267,0.2746623941404778,0.213626306553806,-0.8850232700083325
1539731982502258,0.213626306553806,0.03051804379333589,-0.8239871824216607
1539731982518249,0.33569848172737693,0.03051804379333589,-0.5798428320745188
1539731982534240,0.3967345693140487,-0.09155413138023505,-0.45777065690094787
1539731982550232,0.33569848172737693,-0.15259021896690683,-0.45777065690094787
1539731982566223,0.2746623941404778,-0.09155413138023505,-0.6408789196611906
1539731982582214,0.15259021896690683,-0.213626306553806,-0.7019150072480898
1539731982598205,0.213626306553806,-0.09155413138023505,-0.6408789196611906
1539731982614196,0.33569848172737693,0.03051804379333589,-0.7629510948347615
1539731982630188,0.213626306553806,0.09155413138023505,-1.0070954451819034
1539731982646179,0.213626306553806,0.15259021896690683,-1.1902037079423735
1539731982662170,0.09155413138023505,0.3967345693140487,-1.2512397955290453
1539731982678161,0.15259021896690683,0.33569848172737693,-1.1902037079423735
1539731982694061,0.15259021896690683,0.3967345693140487,-1.2512397955290453
1539731982710052,0.09155413138023505,0.45777065690094787,-1.1291676203554744
1539731982726043,0.03051804379333589,0.33569848172737693,-1.0681315327688026
1539731982742035,0.03051804379333589,0.2746623941404778,-0.9460593575952316
1539731982758026,0.15259021896690683,0.213626306553806,-0.8239871824216607
1539731982774017,0.15259021896690683,0.09155413138023505,-0.8850232700083325
1539731982790008,-0.03051804379333589,-0.09155413138023505,-0.9460593575952316
1539731982805999,-0.09155413138023505,-0.15259021896690683,-1.0070954451819034
1539731982821991,-0.15259021896690683,-0.03051804379333589,-0.9460593575952316
1539731982837982,-0.213626306553806,0.15259021896690683,-1.1291676203554744
1539731982853973,-0.15259021896690683,-0.15259021896690683,-1.3122758831159445
1539731982869964,0.09155413138023505,0.03051804379333589,-1.1291676203554744
1539731982885955,0.2746623941404778,0.3967345693140487,-0.8850232700083325
1539731982901947,0.2746623941404778,0.213626306553806,-0.8850232700083325
1539731982917938,0.2746623941404778,0.2746623941404778,-1.0070954451819034
1539731982933929,0.2746623941404778,0.2746623941404778,-1.0681315327688026
1539731982949920,0.2746623941404778,0.33569848172737693,-1.0681315327688026
1539731982965911,0.213626306553806,0.33569848172737693,-1.1902037079423735
1539731982981903,0.15259021896690683,0.2746623941404778,-1.3122758831159445
1539731982997894,0.09155413138023505,0.3967345693140487,-1.3122758831159445
1539731983013794,-0.09155413138023505,0.5188067444876197,-1.0681315327688026
1539731983029784,-0.15259021896690683,0.45777065690094787,-0.9460593575952316
1539731983045775,-0.15259021896690683,0.2746623941404778,-1.1902037079423735
1539731983061766,-0.09155413138023505,0.2746623941404778,-1.3122758831159445
1539731983077757,0.03051804379333589,0.33569848172737693,-1.3122758831159445
1539731983093747,0.15259021896690683,0.2746623941404778,-1.1291676203554744
1539731983109738,0.2746623941404778,0.45777065690094787,-0.8850232700083325
1539731983125729,0.33569848172737693,0.5798428320745188,-0.6408789196611906
1539731983141719,0.33569848172737693,0.45777065690094787,-0.7019150072480898
1539731983157710,0.2746623941404778,0.45777065690094787,-0.9460593575952316
1539731983173701,0.09155413138023505,0.5188067444876197,-1.0681315327688026
1539731983189692,-0.03051804379333589,0.5188067444876197,-1.0681315327688026
1539731983205682,-0.213626306553806,0.45777065690094787,-1.0681315327688026
1539731983221673,-0.15259021896690683,0.3967345693140487,-1.1291676203554744
1539731983237664,-0.09155413138023505,0.2746623941404778,-1.1902037079423735
1539731983253655,-0.09155413138023505,0.45777065690094787,-1.0681315327688026
1539731983269645,-0.03051804379333589,0.3967345693140487,-0.9460593575952316
1539731983285636,0.213626306553806,0.45777065690094787,-0.7629510948347615
1539731983301627,0.2746623941404778,0.6408789196611906,-0.5798428320745188
1539731983317618,0.2746623941404778,0.5188067444876197,-0.5798428320745188
1539731983333526,0.3967345693140487,0.45777065690094787,-0.8850232700083325
1539731983349516,0.15259021896690683,0.3967345693140487,-1.1291676203554744
1539731983365507,0.2746623941404778,0.03051804379333589,-1.0070954451819034
1539731983381497,0.5188067444876197,0.213626306553806,-0.6408789196611906
1539731983397487,0.45777065690094787,0.33569848172737693,-0.33569848172737693
1539731983413478,0.15259021896690683,0.03051804379333589,-0.5188067444876197
1539731983429468,-0.09155413138023505,0.09155413138023505,-0.7019150072480898
1539731983445458,-0.09155413138023505,0.2746623941404778,-0.6408789196611906
1539731983461448,-0.03051804379333589,0.45777065690094787,-0.7629510948347615
1539731983477439,0.15259021896690683,0.8239871824216607,-0.8239871824216607
1539731983493429,0.33569848172737693,1.0070954451819034,-0.9460593575952316
1539731983509419,0.5798428320745188,1.0681315327688026,-1.1291676203554744
1539731983525409,0.5798428320745188,1.1902037079423735,-1.1902037079423735
1539731983541400,0.45777065690094787,1.3733119707026162,-1.1902037079423735
1539731983557390,0.213626306553806,1.3122758831159445,-1.1291676203554744
1539731983573380,0.03051804379333589,1.1291676203554744,-1.1902037079423735
1539731983589370,-0.09155413138023505,0.8239871824216607,-1.3122758831159445
1539731983605361,-0.15259021896690683,0.7019150072480898,-1.1902037079423735
1539731983621351,-0.15259021896690683,0.5188067444876197,-0.8850232700083325
1539731983637341,-0.03051804379333589,0.33569848172737693,-0.6408789196611906
1539731983653228,0.03051804379333589,0.15259021896690683,-0.5188067444876197
1539731983669218,0.09155413138023505,-0.03051804379333589,-0.33569848172737693
1539731983685208,-0.09155413138023505,-0.2746623941404778,-0.5188067444876197
1539731983701198,-0.03051804379333589,-0.5798428320745188,-1.0681315327688026
1539731983717188,0.15259021896690683,-0.6408789196611906,-1.4953841458761872
1539731983733177,0.2746623941404778,-0.5798428320745188,-1.2512397955290453
1539731983749167,0.33569848172737693,-0.09155413138023505,-0.7019150072480898
1539731983765157,0.3967345693140487,0.45777065690094787,-0.09155413138023505
1539731983781147,0.6408789196611906,1.0681315327688026,0.15259021896690683
1539731983797136,0.5188067444876197,1.1291676203554744,-0.45777065690094787
1539731983813126,0.2746623941404778,0.8239871824216607,-1.5564202334630863
1539731983829116,0.09155413138023505,0.7019150072480898,-2.105745021744042
1539731983845106,-0.03051804379333589,0.8239871824216607,-1.739528496223329
1539731983861096,0.03051804379333589,1.1291676203554744,-1.1902037079423735
1539731983877085,-0.15259021896690683,1.0681315327688026,-1.4343480582895154
1539731983893075,-0.213626306553806,0.2746623941404778,-1.6784924086366573
1539731983909065,-0.33569848172737693,0.45777065690094787,-1.5564202334630863
1539731983925055,-0.09155413138023505,0.3967345693140487,-0.8239871824216607
1539731983941044,0.15259021896690683,0.33569848172737693,-0.5798428320745188
1539731983957034,-0.15259021896690683,0.03051804379333589,-0.7019150072480898
1539731983972961,-0.33569848172737693,-0.15259021896690683,-0.7019150072480898
1539731983988951,0.15259021896690683,0.03051804379333589,-0.5798428320745188
1539731984004941,0.6408789196611906,0.2746623941404778,-0.33569848172737693
1539731984020930,0.8239871824216607,0.2746623941404778,-0.33569848172737693
1539731984036920,0.7019150072480898,0.213626306553806,-0.45777065690094787
1539731984052910,0.5798428320745188,0.15259021896690683,-0.5798428320745188
1539731984068900,0.3967345693140487,0.2746623941404778,-0.5798428320745188
1539731984084890,0.15259021896690683,0.33569848172737693,-0.6408789196611906
1539731984100879,-0.09155413138023505,0.45777065690094787,-0.7019150072480898
1539731984116869,-0.15259021896690683,0.5188067444876197,-0.7019150072480898
1539731984132859,0.03051804379333589,0.7629510948347615,-0.7019150072480898
1539731984148849,0.03051804379333589,0.8239871824216607,-0.8239871824216607
1539731984164838,0.03051804379333589,0.8850232700083325,-1.0070954451819034
1539731984180828,0.09155413138023505,0.8239871824216607,-1.3122758831159445
1539731984196818,0.2746623941404778,0.8239871824216607,-1.3122758831159445
1539731984212808,0.3967345693140487,0.9460593575952316,-1.1291676203554744
1539731984228798,0.45777065690094787,1.0681315327688026,-1.0070954451819034
1539731984244787,0.8239871824216607,0.9460593575952316,-0.7019150072480898
1539731984260777,0.3967345693140487,1.1902037079423735,-0.7629510948347615
1539731984276767,0.2746623941404778,0.3967345693140487,-0.7629510948347615
1539731984292663,0.33569848172737693,0.5188067444876197,-0.7629510948347615
1539731984308653,0.3967345693140487,0.5188067444876197,-0.5188067444876197
1539731984324642,0.213626306553806,0.5188067444876197,-0.33569848172737693
1539731984340631,-0.15259021896690683,0.7019150072480898,-0.2746623941404778
1539731984356620,-0.09155413138023505,0.33569848172737693,-0.7629510948347615
1539731984372610,-0.213626306553806,0.2746623941404778,-1.1902037079423735
1539731984388599,-0.2746623941404778,0.8850232700083325,-0.7019150072480898
1539731984404588,0.33569848172737693,1.3122758831159445,-0.09155413138023505
1539731984420578,0.8239871824216607,1.5564202334630863,-0.213626306553806
1539731984436567,0.8239871824216607,1.4953841458761872,-0.5798428320745188
1539731984452556,0.7629510948347615,1.4343480582895154,-0.9460593575952316
1539731984468546,0.6408789196611906,1.3733119707026162,-1.2512397955290453
1539731984484535,0.5798428320745188,1.1902037079423735,-1.3733119707026162
1539731984500524,0.33569848172737693,0.9460593575952316,-1.4343480582895154
1539731984516513,-0.09155413138023505,0.8239871824216607,-1.3733119707026162
1539731984532503,-0.33569848172737693,0.8239871824216607,-1.1291676203554744
1539731984548492,-0.213626306553806,0.8850232700083325,-0.8239871824216607
1539731984564481,-0.09155413138023505,0.8239871824216607,-0.8239871824216607
1539731984580471,-0.33569848172737693,0.5798428320745188,-0.9460593575952316
1539731984596460,-0.5798428320745188,0.5188067444876197,-1.0681315327688026
1539731984612396,-0.8239871824216607,0.5188067444876197,-1.0070954451819034
1539731984628385,-1.0070954451819034,0.5188067444876197,-0.6408789196611906
1539731984644374,-0.8850232700083325,0.3967345693140487,-0.8239871824216607
1539731984660362,-0.7019150072480898,0.03051804379333589,-1.1902037079423735
1539731984676351,-0.8850232700083325,0.03051804379333589,-1.1291676203554744
1539731984692340,-0.6408789196611906,0.03051804379333589,-0.9460593575952316
1539731984708329,-0.213626306553806,0.03051804379333589,-0.9460593575952316
1539731984724318,0.15259021896690683,-0.213626306553806,-1.0681315327688026
1539731984740306,0.45777065690094787,-0.03051804379333589,-1.0681315327688026
1539731984756295,0.6408789196611906,0.03051804379333589,-0.8850232700083325
1539731984772284,0.5798428320745188,0.2746623941404778,-0.5188067444876197
1539731984788273,0.6408789196611906,0.2746623941404778,-0.45777065690094787
1539731984804262,0.7019150072480898,-0.03051804379333589,-0.8850232700083325
1539731984820251,0.5188067444876197,-0.03051804379333589,-0.8850232700083325
1539731984836239,0.213626306553806,-0.03051804379333589,-0.8850232700083325
1539731984852228,0.15259021896690683,-0.213626306553806,-0.9460593575952316
1539731984868217,0.03051804379333589,0.03051804379333589,-0.8850232700083325
1539731984884206,-0.2746623941404778,-0.03051804379333589,-0.8239871824216607
1539731984900195,-0.33569848172737693,0.03051804379333589,-0.9460593575952316
1539731984916184,-0.33569848172737693,0.15259021896690683,-1.2512397955290453
1539731984932159,-0.213626306553806,0.213626306553806,-1.4343480582895154
1539731984948148,-0.09155413138023505,0.3967345693140487,-1.4343480582895154
1539731984964137,0.03051804379333589,0.5798428320745188,-1.3122758831159445
1539731984980126,0.213626306553806,0.7629510948347615,-1.1902037079423735
1539731984996114,0.3967345693140487,0.8239871824216607,-1.1902037079423735
1539731985012103,0.33569848172737693,0.8850232700083325,-1.3122758831159445
1539731985028092,0.15259021896690683,0.7629510948347615,-1.4953841458761872
1539731985044081,-0.03051804379333589,0.7019150072480898,-1.6174563210497581
1539731985060070,-0.2746623941404778,0.7019150072480898,-1.6174563210497581
1539731985076058,-0.3967345693140487,0.6408789196611906,-1.5564202334630863
1539731985092047,-0.33569848172737693,0.45777065690094787,-1.5564202334630863
1539731985108036,-0.2746623941404778,0.2746623941404778,-1.5564202334630863
1539731985124025,0.03051804379333589,0.213626306553806,-0.8850232700083325
1539731985140014,0.3967345693140487,0.33569848172737693,-0.3967345693140487
1539731985156003,0.45777065690094787,-0.09155413138023505,-0.2746623941404778
1539731985171991,0.45777065690094787,-0.2746623941404778,-0.33569848172737693
1539731985187980,0.5798428320745188,-0.3967345693140487,-0.33569848172737693
1539731985203969,0.5798428320745188,-0.3967345693140487,-0.3967345693140487
1539731985219958,0.5188067444876197,-0.3967345693140487,-0.3967345693140487
1539731985235947,0.33569848172737693,-0.2746623941404778,-0.5798428320745188
1539731985251861,0.2746623941404778,-0.15259021896690683,-0.5798428320745188
1539731985267850,0.33569848172737693,0.15259021896690683,-0.5798428320745188
1539731985283838,0.2746623941404778,0.33569848172737693,-0.7019150072480898
1539731985299826,0.15259021896690683,0.3967345693140487,-1.0681315327688026
1539731985315815,0.213626306553806,0.45777065690094787,-1.1902037079423735
1539731985331803,0.213626306553806,0.6408789196611906,-1.0681315327688026
1539731985347791,0.15259021896690683,0.8239871824216607,-1.0681315327688026
1539731985363780,0.03051804379333589,0.8239871824216607,-1.1902037079423735
1539731985379768,-0.15259021896690683,0.8239871824216607,-1.3122758831159445
1539731985395756,-0.213626306553806,0.7019150072480898,-1.4343480582895154
1539731985411745,-0.33569848172737693,0.6408789196611906,-1.4953841458761872
1539731985427733,-0.2746623941404778,0.5188067444876197,-1.5564202334630863
1539731985443721,-0.15259021896690683,0.3967345693140487,-1.6174563210497581
1539731985459710,-0.03051804379333589,0.15259021896690683,-1.3122758831159445
1539731985475698,0.2746623941404778,0.213626306553806,-0.7629510948347615
1539731985491686,0.45777065690094787,0.213626306553806,-0.3967345693140487
1539731985507675,0.5188067444876197,-0.09155413138023505,-0.33569848172737693
1539731985523663,0.45777065690094787,-0.09155413138023505,-0.5188067444876197
1539731985539651,0.33569848172737693,-0.213626306553806,-0.5188067444876197
1539731985555640,0.45777065690094787,-0.15259021896690683,-0.5188067444876197
1539731985571594,0.3967345693140487,-0.09155413138023505,-0.45777065690094787
1539731985587582,0.33569848172737693,0.03051804379333589,-0.5188067444876197
1539731985603571,0.213626306553806,0.03051804379333589,-0.5798428320745188
1539731985619559,-0.03051804379333589,0.09155413138023505,-0.7019150072480898
1539731985635547,-0.213626306553806,0.213626306553806,-0.7629510948347615
1539731985651536,-0.09155413138023505,0.15259021896690683,-0.8850232700083325
1539731985667524,0.03051804379333589,0.213626306553806,-1.0681315327688026
1539731985683512,0.15259021896690683,0.45777065690094787,-1.0070954451819034
1539731985699501,0.2746623941404778,0.7019150072480898,-0.8239871824216607
1539731985715489,0.45777065690094787,0.9460593575952316,-0.8239871824216607
1539731985731477,0.3967345693140487,1.0681315327688026,-1.0070954451819034
1539731985747466,0.2746623941404778,0.8239871824216607,-1.1902037079423735
1539731985763454,0.213626306553806,0.8850232700083325,-1.3122758831159445
1539731985779442,0.33569848172737693,0.8850232700083325,-1.2512397955290453
1539731985795431,0.33569848172737693,0.8850232700083325,-0.9460593575952316
1539731985811419,0.213626306553806,0.7629510948347615,-0.8850232700083325
1539731985827407,-0.03051804379333589,0.5798428320745188,-1.0070954451819034
1539731985843396,-0.15259021896690683,0.3967345693140487,-0.9460593575952316
1539731985859384,-0.15259021896690683,0.2746623941404778,-0.8239871824216607
1539731985875373,0.03051804379333589,0.213626306553806,-0.7629510948347615
1539731985891296,0.09155413138023505,0.09155413138023505,-0.7019150072480898
1539731985907284,0.15259021896690683,0.09155413138023505,-0.5798428320745188
1539731985923273,0.3967345693140487,0.03051804379333589,-0.45777065690094787
1539731985939261,0.5188067444876197,-0.09155413138023505,-0.5188067444876197
1539731985955249,0.5188067444876197,0.03051804379333589,-0.2746623941404778
1539731985971238,0.6408789196611906,0.15259021896690683,-0.15259021896690683
1539731985987226,0.7019150072480898,0.213626306553806,-0.213626306553806
1539731986003214,0.6408789196611906,0.15259021896690683,-0.3967345693140487
1539731986019203,0.45777065690094787,0.213626306553806,-0.6408789196611906
1539731986035191,0.15259021896690683,0.15259021896690683,-0.8850232700083325
1539731986051180,-0.03051804379333589,0.33569848172737693,-0.9460593575952316
1539731986067168,-0.15259021896690683,0.45777065690094787,-0.8239871824216607
1539731986083156,-0.03051804379333589,0.7019150072480898,-0.5798428320745188
1539731986099145,-0.09155413138023505,0.7629510948347615,-0.8239871824216607
1539731986115133,-0.09155413138023505,0.3967345693140487,-1.0681315327688026
1539731986131121,0.15259021896690683,0.6408789196611906,-1.1291676203554744
1539731986147110,0.2746623941404778,0.5188067444876197,-1.0070954451819034
1539731986163098,0.2746623941404778,0.6408789196611906,-0.7629510948347615
1539731986179086,0.213626306553806,0.8239871824216607,-0.5798428320745188
1539731986195075,0.33569848172737693,0.8239871824216607,-0.5188067444876197
1539731986210998,0.33569848172737693,0.7019150072480898,-0.7019150072480898
1539731986226986,0.2746623941404778,0.5798428320745188,-0.8850232700083325
1539731986242974,0.2746623941404778,0.45777065690094787,-1.0070954451819034
1539731986258962,0.3967345693140487,0.45777065690094787,-0.6408789196611906
1539731986274950,0.45777065690094787,0.5188067444876197,-0.33569848172737693
1539731986290938,0.3967345693140487,0.45777065690094787,-0.2746623941404778
1539731986306925,0.3967345693140487,0.2746623941404778,-0.33569848172737693
1539731986322913,0.45777065690094787,0.2746623941404778,-0.33569848172737693
1539731986338901,0.2746623941404778,0.33569848172737693,-0.33569848172737693
1539731986354889,0.03051804379333589,0.33569848172737693,-0.213626306553806
1539731986370877,0.15259021896690683,0.33569848172737693,-0.2746623941404778
1539731986386865,0.45777065690094787,0.3967345693140487,-0.33569848172737693
1539731986402853,0.3967345693140487,0.6408789196611906,-0.45777065690094787
1539731986418841,0.2746623941404778,0.7629510948347615,-0.5798428320745188
1539731986434828,0.213626306553806,0.8239871824216607,-0.6408789196611906
1539731986450816,0.2746623941404778,0.9460593575952316,-0.5188067444876197
1539731986466804,0.2746623941404778,1.0070954451819034,-0.45777065690094787
1539731986482792,0.2746623941404778,1.0070954451819034,-0.45777065690094787
1539731986498780,0.2746623941404778,1.0070954451819034,-0.5798428320745188
1539731986514768,0.213626306553806,0.8850232700083325,-0.8239871824216607
1539731986530731,0.15259021896690683,0.8850232700083325,-0.8850232700083325
1539731986546719,0.09155413138023505,1.0681315327688026,-0.5188067444876197
1539731986562707,0.15259021896690683,1.2512397955290453,-0.15259021896690683
1539731986578694,0.15259021896690683,1.1902037079423735,-0.09155413138023505
1539731986594682,0.09155413138023505,1.1291676203554744,-0.2746623941404778
1539731986610670,-0.03051804379333589,0.9460593575952316,-0.5798428320745188
1539731986626658,0.09155413138023505,0.8239871824216607,-0.8239871824216607
1539731986642646,0.3967345693140487,0.8850232700083325,-0.8850232700083325
1539731986658634,0.3967345693140487,1.0681315327688026,-0.8850232700083325
1539731986674622,0.45777065690094787,1.1291676203554744,-0.7629510948347615
1539731986690610,0.45777065690094787,1.0681315327688026,-0.7019150072480898
1539731986706597,0.5188067444876197,0.9460593575952316,-0.8239871824216607
1539731986722585,0.6408789196611906,0.5798428320745188,-0.8239871824216607
1539731986738573,0.7019150072480898,0.3967345693140487,-0.6408789196611906
1539731986754561,0.5798428320745188,0.2746623941404778,-0.3967345693140487
1539731986770549,0.45777065690094787,0.15259021896690683,-0.2746623941404778
1539731986786537,0.2746623941404778,0.03051804379333589,-0.2746623941404778
1539731986802525,0.2746623941404778,-0.15259021896690683,-0.45777065690094787
1539731986818513,0.15259021896690683,-0.33569848172737693,-0.5188067444876197
1539731986834500,0.03051804379333589,-0.213626306553806,-0.5188067444876197
1539731986850463,-0.03051804379333589,-0.15259021896690683,-0.5798428320745188
1539731986866451,0.03051804379333589,-0.03051804379333589,-0.8239871824216607
1539731986882439,0.03051804379333589,0.03051804379333589,-0.9460593575952316
1539731986898427,0.09155413138023505,0.213626306553806,-0.9460593575952316
1539731986914415,0.213626306553806,0.45777065690094787,-0.8850232700083325
1539731986930403,0.2746623941404778,0.6408789196611906,-0.9460593575952316
1539731986946391,0.33569848172737693,0.6408789196611906,-1.1291676203554744
1539731986962379,0.3967345693140487,0.7019150072480898,-1.1902037079423735
1539731986978366,0.33569848172737693,0.7019150072480898,-1.1291676203554744
1539731986994354,0.213626306553806,0.6408789196611906,-1.0681315327688026
1539731987010342,0.03051804379333589,0.6408789196611906,-1.0681315327688026
1539731987026330,-0.03051804379333589,0.45777065690094787,-1.0681315327688026
1539731987042318,0.03051804379333589,0.3967345693140487,-1.0070954451819034
1539731987058306,-0.09155413138023505,0.33569848172737693,-0.9460593575952316
1539731987074294,-0.15259021896690683,0.213626306553806,-0.9460593575952316
1539731987090282,-0.09155413138023505,0.213626306553806,-1.0070954451819034
1539731987106269,-0.09155413138023505,0.213626306553806,-1.0070954451819034
1539731987122257,-0.03051804379333589,0.213626306553806,-0.9460593575952316
1539731987138245,0.09155413138023505,0.213626306553806,-0.8850232700083325
1539731987154233,0.213626306553806,0.5188067444876197,-0.9460593575952316
1539731987170166,0.213626306553806,0.45777065690094787,-1.0070954451819034
1539731987186153,0.2746623941404778,0.2746623941404778,-1.1902037079423735
1539731987202140,0.33569848172737693,0.213626306553806,-1.1902037079423735
1539731987218128,0.45777065690094787,0.2746623941404778,-0.9460593575952316
1539731987234115,0.3967345693140487,0.2746623941404778,-0.8850232700083325
1539731987250103,0.213626306553806,0.15259021896690683,-1.0070954451819034
1539731987266090,-0.03051804379333589,0.09155413138023505,-1.1291676203554744
1539731987282077,-0.15259021896690683,0.03051804379333589,-1.0681315327688026
1539731987298065,-0.09155413138023505,0.03051804379333589,-1.0681315327688026
1539731987314052,0.03051804379333589,0.03051804379333589,-1.1291676203554744
1539731987330040,0.03051804379333589,-0.03051804379333589,-1.2512397955290453
1539731987346027,0.213626306553806,-0.03051804379333589,-1.1291676203554744
1539731987362014,0.2746623941404778,0.33569848172737693,-0.8850232700083325
1539731987378002,0.33569848172737693,0.3967345693140487,-0.8850232700083325
1539731987393989,0.15259021896690683,0.45777065690094787,-1.3122758831159445
1539731987409977,0.09155413138023505,0.33569848172737693,-1.739528496223329
1539731987425964,0.15259021896690683,0.45777065690094787,-1.739528496223329
1539731987441951,0.2746623941404778,0.5798428320745188,-1.4343480582895154
1539731987457939,0.15259021896690683,0.5798428320745188,-1.3122758831159445
1539731987473926,-0.09155413138023505,0.3967345693140487,-1.2512397955290453
1539731987489898,-0.2746623941404778,0.213626306553806,-1.3122758831159445
1539731987505886,-0.2746623941404778,0.09155413138023505,-1.3733119707026162
1539731987521873,-0.2746623941404778,-0.03051804379333589,-1.2512397955290453
1539731987537860,-0.3967345693140487,-0.213626306553806,-1.0070954451819034
1539731987553848,-0.33569848172737693,-0.33569848172737693,-0.8850232700083325
1539731987569835,-0.03051804379333589,-0.33569848172737693,-0.8239871824216607
1539731987585823,0.15259021896690683,-0.3967345693140487,-0.8239871824216607
1539731987601810,0.3967345693140487,-0.2746623941404778,-0.9460593575952316
1539731987617797,0.5798428320745188,-0.03051804379333589,-1.0681315327688026
1539731987633785,0.7019150072480898,0.09155413138023505,-1.0681315327688026
1539731987649772,0.7019150072480898,0.2746623941404778,-1.1902037079423735
1539731987665760,0.5798428320745188,0.2746623941404778,-1.4343480582895154
1539731987681747,0.5188067444876197,0.15259021896690683,-1.5564202334630863
1539731987697734,0.33569848172737693,0.09155413138023505,-1.6784924086366573
1539731987713722,0.33569848172737693,0.03051804379333589,-1.4953841458761872
1539731987729709,0.15259021896690683,-0.03051804379333589,-1.2512397955290453
1539731987745697,-0.09155413138023505,-0.213626306553806,-1.1291676203554744
1539731987761684,-0.33569848172737693,-0.2746623941404778,-1.0070954451819034
1539731987777671,-0.45777065690094787,-0.2746623941404778,-1.0070954451819034
1539731987793659,-0.3967345693140487,-0.3967345693140487,-1.0070954451819034
1539731987809631,-0.3967345693140487,-0.213626306553806,-1.0070954451819034
1539731987825618,-0.2746623941404778,0.03051804379333589,-1.0070954451819034
1539731987841606,-0.09155413138023505,0.09155413138023505,-1.1291676203554744
1539731987857593,-0.09155413138023505,0.2746623941404778,-1.1291676203554744
1539731987873581,-0.15259021896690683,0.5188067444876197,-1.0681315327688026
1539731987889568,-0.45777065690094787,0.7629510948347615,-1.1902037079423735
1539731987905555,0.09155413138023505,1.0070954451819034,-0.7629510948347615
1539731987921543,0.33569848172737693,0.7629510948347615,-1.0070954451819034
1539731987937530,0.213626306553806,0.3967345693140487,-1.4343480582895154
1539731987953518,0.33569848172737693,-0.09155413138023505,-1.3733119707026162
1539731987969505,0.5798428320745188,0.09155413138023505,-1.1291676203554744
1539731987985492,0.5188067444876197,-0.09155413138023505,-0.8850232700083325
1539731988001480,0.3967345693140487,-0.2746623941404778,-0.6408789196611906
1539731988017467,0.3967345693140487,-0.3967345693140487,-0.45777065690094787
1539731988033455,0.3967345693140487,-0.45777065690094787,-0.45777065690094787
1539731988049442,0.3967345693140487,-0.45777065690094787,-0.5188067444876197
1539731988065429,0.2746623941404778,-0.2746623941404778,-0.5188067444876197
1539731988081417,-0.03051804379333589,-0.213626306553806,-0.5188067444876197
1539731988097404,-0.213626306553806,-0.09155413138023505,-0.5188067444876197
1539731988113392,-0.09155413138023505,-0.03051804379333589,-0.5798428320745188
1539731988129333,-0.09155413138023505,0.213626306553806,-0.6408789196611906
1539731988145320,-0.09155413138023505,0.15259021896690683,-0.7629510948347615
1539731988161307,0.15259021896690683,0.03051804379333589,-1.0070954451819034
1539731988177294,0.2746623941404778,0.09155413138023505,-1.0681315327688026
1539731988193281,0.213626306553806,0.213626306553806,-0.7019150072480898
1539731988209268,0.03051804379333589,0.3967345693140487,-0.5188067444876197
1539731988225255,0.09155413138023505,0.45777065690094787,-0.6408789196611906
1539731988241242,0.03051804379333589,0.7019150072480898,-0.9460593575952316
1539731988257228,-0.33569848172737693,0.8850232700083325,-1.1291676203554744
1539731988273215,-0.2746623941404778,1.1902037079423735,-0.8850232700083325
1539731988289202,-0.5188067444876197,1.3122758831159445,-1.0070954451819034
1539731988305189,-0.9460593575952316,1.2512397955290453,-1.4343480582895154
1539731988321176,-0.9460593575952316,1.2512397955290453,-1.739528496223329
1539731988337163,-0.7019150072480898,1.0070954451819034,-1.9226367589837992
1539731988353150,-0.6408789196611906,0.7629510948347615,-2.04470893415737
1539731988369137,-0.33569848172737693,0.45777065690094787,-1.8005645838102282
1539731988385124,-0.03051804379333589,0.6408789196611906,-0.9460593575952316
1539731988401111,0.3967345693140487,0.5798428320745188,-0.213626306553806
1539731988417098,0.7629510948347615,0.213626306553806,-0.03051804379333589
1539731988433085,0.7019150072480898,-0.15259021896690683,-0.213626306553806
1539731988449066,0.5188067444876197,-0.33569848172737693,-0.213626306553806
1539731988465053,0.6408789196611906,-0.15259021896690683,-0.03051804379333589
1539731988481040,0.5798428320745188,-0.09155413138023505,-0.03051804379333589
1539731988497027,0.2746623941404778,-0.213626306553806,-0.2746623941404778
1539731988513013,-0.09155413138023505,-0.213626306553806,-0.45777065690094787
1539731988529000,-0.09155413138023505,-0.03051804379333589,-0.5798428320745188
1539731988544987,-0.09155413138023505,0.09155413138023505,-0.7629510948347615
1539731988560974,-0.09155413138023505,0.45777065690094787,-0.8239871824216607
1539731988576961,0.09155413138023505,0.5188067444876197,-1.1902037079423735
1539731988592948,0.15259021896690683,0.5188067444876197,-1.3122758831159445
1539731988608935,0.2746623941404778,0.7629510948347615,-1.1291676203554744
1539731988624922,0.45777065690094787,0.8850232700083325,-0.7019150072480898
1539731988640909,0.5798428320745188,1.0070954451819034,-0.7019150072480898
1539731988656896,0.5798428320745188,0.8239871824216607,-0.9460593575952316
1539731988672883,0.213626306553806,0.7019150072480898,-0.9460593575952316
1539731988688870,0.15259021896690683,0.5798428320745188,-0.8239871824216607
1539731988704856,0.2746623941404778,0.6408789196611906,-0.5798428320745188
1539731988720843,0.33569848172737693,0.6408789196611906,-0.3967345693140487
1539731988736830,0.15259021896690683,0.5188067444876197,-0.3967345693140487
1539731988752817,0.09155413138023505,0.5798428320745188,-0.5188067444876197
1539731988768768,0.15259021896690683,0.7019150072480898,-0.7019150072480898
1539731988784755,0.15259021896690683,0.7019150072480898,-0.8239871824216607
1539731988800742,0.2746623941404778,0.8239871824216607,-0.7629510948347615
1539731988816729,0.33569848172737693,0.9460593575952316,-0.6408789196611906
1539731988832716,0.213626306553806,0.9460593575952316,-0.8239871824216607
1539731988848703,0.33569848172737693,0.8239871824216607,-1.1291676203554744
1539731988864689,0.2746623941404778,0.6408789196611906,-1.1902037079423735
1539731988880676,0.15259021896690683,0.5188067444876197,-0.9460593575952316
1539731988896663,0.213626306553806,0.7019150072480898,-0.45777065690094787
1539731988912650,0.45777065690094787,0.7629510948347615,-0.09155413138023505
1539731988928637,0.5188067444876197,0.7019150072480898,-0.213626306553806
1539731988944624,0.2746623941404778,0.3967345693140487,-0.7019150072480898
1539731988960611,-0.03051804379333589,0.15259021896690683,-0.9460593575952316
1539731988976598,0.03051804379333589,0.09155413138023505,-0.8239871824216607
1539731988992585,0.213626306553806,0.33569848172737693,-0.5188067444876197
1539731989008572,0.33569848172737693,0.5188067444876197,-0.45777065690094787
1539731989024559,0.09155413138023505,0.5188067444876197,-0.8239871824216607
1539731989040546,0.03051804379333589,0.45777065690094787,-1.1902037079423735
1539731989056532,0.213626306553806,0.5188067444876197,-1.1902037079423735
1539731989072519,0.6408789196611906,0.6408789196611906,-0.8850232700083325
1539731989088531,0.7019150072480898,0.8850232700083325,-0.7629510948347615
1539731989104518,0.5798428320745188,0.8850232700083325,-0.5188067444876197
1539731989120505,0.45777065690094787,0.9460593575952316,-0.45777065690094787
1539731989136492,0.2746623941404778,0.8850232700083325,-0.7019150072480898
1539731989152479,0.03051804379333589,0.5188067444876197,-1.1291676203554744
1539731989168466,-0.09155413138023505,0.2746623941404778,-1.4343480582895154
1539731989184453,-0.15259021896690683,0.3967345693140487,-1.1902037079423735
1539731989200440,-0.03051804379333589,0.45777065690094787,-0.8850232700083325
1539731989216426,0.03051804379333589,0.45777065690094787,-0.8850232700083325
1539731989232413,0.09155413138023505,0.3967345693140487,-1.0070954451819034
1539731989248400,-0.15259021896690683,0.5188067444876197,-1.0681315327688026
1539731989264387,-0.15259021896690683,0.45777065690094787,-1.0070954451819034
1539731989280374,0.03051804379333589,0.7019150072480898,-1.0070954451819034
1539731989296361,0.213626306553806,0.9460593575952316,-0.8850232700083325
1539731989312348,0.03051804379333589,1.1902037079423735,-0.8239871824216607
1539731989328335,-0.213626306553806,1.2512397955290453,-0.9460593575952316
1539731989344322,-0.15259021896690683,1.1291676203554744,-1.0681315327688026
1539731989360309,0.15259021896690683,1.3733119707026162,-0.9460593575952316
1539731989376296,-0.03051804379333589,2.166781109330941,-0.33569848172737693
1539731989392283,-1.4343480582895154,4.180971999694748,0.5188067444876197
1539731989408233,-2.288853284504512,3.814755474174035,1.0681315327688026
1539731989424220,-1.4343480582895154,3.6316472114137923,0.5798428320745188
1539731989440207,0.2746623941404778,3.0212863355459376,0.09155413138023505
1539731989456194,2.410925459678083,1.8005645838102282,-0.6408789196611906
1539731989472181,3.3875028610666504,1.9226367589837992,-0.9460593575952316
1539731989488168,2.105745021744042,2.227817196917613,-0.5798428320745188
1539731989504155,0.8850232700083325,2.04470893415737,-0.213626306553806
1539731989520142,0.45777065690094787,1.739528496223329,-0.5188067444876197
1539731989536129,-0.2746623941404778,1.3122758831159445,-1.0681315327688026
1539731989552116,-1.1291676203554744,0.9460593575952316,-1.4343480582895154
1539731989568102,-1.4953841458761872,0.7019150072480898,-1.6174563210497581
1539731989584089,-1.4343480582895154,0.7629510948347615,-1.4953841458761872
1539731989600076,-1.1902037079423735,0.8239871824216607,-1.2512397955290453
1539731989616063,-0.8850232700083325,0.7629510948347615,-1.2512397955290453
1539731989632050,-0.45777065690094787,0.7629510948347615,-1.2512397955290453
1539731989648037,0.09155413138023505,0.8850232700083325,-1.1902037079423735
1539731989664024,0.7629510948347615,0.8850232700083325,-0.8239871824216607
1539731989680011,1.1291676203554744,0.8850232700083325,-0.33569848172737693
1539731989695998,1.3122758831159445,0.8850232700083325,0.15259021896690683
1539731989711985,1.4953841458761872,0.6408789196611906,0.33569848172737693
1539731989727935,1.4343480582895154,0.6408789196611906,0.2746623941404778
1539731989743922,1.1902037079423735,0.45777065690094787,0.15259021896690683
1539731989759908,0.8850232700083325,0.213626306553806,-0.15259021896690683
1539731989775895,0.5188067444876197,0.213626306553806,-0.3967345693140487
1539731989791881,0.15259021896690683,0.09155413138023505,-0.45777065690094787
1539731989807868,-0.09155413138023505,0.03051804379333589,-0.5188067444876197
1539731989823854,-0.09155413138023505,0.09155413138023505,-0.6408789196611906
1539731989839841,-0.15259021896690683,0.213626306553806,-0.7019150072480898
1539731989855827,-0.09155413138023505,0.3967345693140487,-0.6408789196611906
1539731989871813,-0.09155413138023505,0.45777065690094787,-0.6408789196611906
1539731989887800,0.09155413138023505,0.5188067444876197,-0.8239871824216607
1539731989903786,0.213626306553806,0.7019150072480898,-0.8850232700083325
1539731989919773,0.33569848172737693,0.8850232700083325,-1.0681315327688026
1539731989935759,25.665674830243233,-19.439993896391115,0.213626306553806
1539731989951746,98.72587167162601,-81.75783932249942,-21.27107652399468
1539731989967732,-15.167467765316132,71.8699931334404,-23.468375677118956
1539731989983718,-88.41077286945892,25.543602655069662,37.32356755931937
1539731989999705,-61.615930418860216,-29.38887617303726,27.069504844739413
1539731990015691,40.1312275883115,-71.07652399481185,-6.256198977645454
1539731990031678,95.67406729228651,-43.79339284351886,-25.543602655069662
1539731990047668,99.45830472266744,-0.03051804379333589,-18.097199969481835
1539731990063655,78.21774624246609,14.312962539101136,1.1902037079423735
1539731990079641,52.88776989394955,17.914091706721592,9.185931181811156
1539731990095627,32.13550011444249,12.848096437018285,6.927595941100208
1539731990111614,22.67490653849086,5.279621576256886,2.410925459678083
1539731990127600,19.745174334325156,2.7771419851987957,0.7629510948347615
1539731990143587,13.031204699778755,5.523765926604028,1.3122758831159445
1539731990159573,0.8239871824216607,5.76791027695117,1.739528496223329
1539731990175560,-12.054627298390187,1.5564202334630863,1.0070954451819034
1539731990191546,-24.628061341267994,1.8005645838102282,-0.7629510948347615
1539731990207533,-37.01838712138556,2.7161058976118966,-1.983672846570471
1539731990223519,-48.85938811322194,3.570611123826893,-2.7771419851987957
1539731990239505,-56.61097123674381,4.303044174868319,-3.1433585107195086
1539731990255492,-57.404440375371905,4.974441138323073,-2.7771419851987957
1539731990271478,-52.033264667734784,5.889982452124741,-2.166781109330941
1539731990287465,-42.75577935454339,7.17174029144735,-1.8616006713969
1539731990303451,-31.403067063401295,8.209353780422589,-2.04470893415737
1539731990319438,-19.1348134584573,8.026245517662346,-2.04470893415737
1539731990335424,-7.476920729381163,7.2938124666209205,-1.5564202334630863
1539731990351410,1.8616006713969,7.660028992141633,-0.8239871824216607
1539731990367370,7.843137254901876,8.026245517662346,0.15259021896690683
1539731990383357,10.101472495613052,8.51453421835663,0.7019150072480898
1539731990399343,9.063859006637585,8.148317692835917,0.33569848172737693
1539731990415330,6.378271152819025,5.645838101777599,-0.45777065690094787
1539731990431316,3.3875028610666504,3.0212863355459376,-1.1902037079423735
1539731990447302,0.6408789196611906,1.5564202334630863,-1.5564202334630863
1539731990463289,-1.739528496223329,0.2746623941404778,-1.4953841458761872
1539731990479275,-3.814755474174035,-0.8239871824216607,-1.0681315327688026
1539731990495262,-5.828946364538069,-1.0681315327688026,-0.8850232700083325
1539731990511248,-7.354848554207592,-1.739528496223329,-0.7019150072480898
1539731990527235,-7.354848554207592,-2.227817196917613,-0.9460593575952316
1539731990543221,-6.134126802471883,-1.983672846570471,-1.1902037079423735
1539731990559208,-4.42511635004189,-1.4953841458761872,-1.0070954451819034
1539731990575194,-2.4719615472647547,-0.5798428320745188,-0.6408789196611906
1539731990591180,-0.2746623941404778,0.45777065690094787,-0.33569848172737693
1539731990607167,1.6784924086366573,1.0681315327688026,-0.2746623941404778
1539731990623153,3.2043945983061803,1.5564202334630863,-0.5188067444876197
1539731990639140,3.875791561760934,2.105745021744042,-0.6408789196611906
1539731990655126,3.7537193865873633,2.227817196917613,-0.7629510948347615
1539731990671113,3.3264667734797513,2.105745021744042,-0.9460593575952316
1539731990687072,2.4719615472647547,1.8005645838102282,-1.0070954451819034
1539731990703059,1.3733119707026162,1.3122758831159445,-1.0070954451819034
1539731990719045,0.3967345693140487,0.5798428320745188,-1.1291676203554744
1539731990735032,0.8239871824216607,-1.6174563210497581,-1.6784924086366573
1539731990751018,-3.936827649347606,1.6174563210497581,-1.6784924086366573
1539731990767005,-5.889982452124741,-0.6408789196611906,0.15259021896690683
1539731990782991,-2.7161058976118966,-1.0681315327688026,-0.8239871824216607
1539731990798977,-1.0070954451819034,-0.8850232700083325,-2.166781109330941
1539731990814964,-2.4719615472647547,-1.0681315327688026,-1.6174563210497581
1539731990830950,-2.166781109330941,-0.7019150072480898,-1.0070954451819034
1539731990846937,-0.03051804379333589,-0.213626306553806,-1.1902037079423735
1539731990862923,1.0070954451819034,0.213626306553806,-0.9460593575952316
1539731990878910,1.4953841458761872,0.2746623941404778,-0.2746623941404778
1539731990894896,1.983672846570471,0.33569848172737693,-0.213626306553806
1539731990910883,2.04470893415737,0.2746623941404778,-0.5798428320745188
1539731990926869,1.5564202334630863,0.213626306553806,-0.8850232700083325
1539731990942855,1.0070954451819034,-0.03051804379333589,-0.8239871824216607
1539731990958842,0.45777065690094787,-0.03051804379333589,-0.7629510948347615
1539731990974828,-0.09155413138023505,-0.03051804379333589,-1.0070954451819034
1539731990990815,-0.7019150072480898,-0.15259021896690683,-1.2512397955290453
1539731991006805,-1.2512397955290453,-0.09155413138023505,-1.3122758831159445
1539731991022791,-1.6174563210497581,-0.03051804379333589,-1.1902037079423735
1539731991038778,-1.5564202334630863,0.09155413138023505,-1.3733119707026162
1539731991054764,-0.8850232700083325,-0.03051804379333589,-1.6174563210497581
1539731991070751,-0.09155413138023505,-0.03051804379333589,-1.6784924086366573
1539731991086737,0.5798428320745188,0.09155413138023505,-1.3122758831159445
1539731991102724,0.9460593575952316,0.33569848172737693,-0.9460593575952316
1539731991118710,1.0070954451819034,0.3967345693140487,-0.7019150072480898
1539731991134697,1.0070954451819034,0.09155413138023505,-0.7629510948347615
1539731991150683,1.1291676203554744,-1.1291676203554744,-1.0681315327688026
1539731991166669,1.0070954451819034,-0.7629510948347615,-1.6174563210497581
1539731991182656,-0.33569848172737693,0.03051804379333589,-1.1902037079423735
1539731991198642,-1.3733119707026162,-0.213626306553806,-0.9460593575952316
1539731991214629,-1.2512397955290453,-0.5188067444876197,-1.3733119707026162
1539731991230615,-0.7629510948347615,-0.7019150072480898,-1.8616006713969
1539731991246602,-0.45777065690094787,-0.8850232700083325,-1.5564202334630863
1539731991262588,0.15259021896690683,-0.45777065690094787,-0.7019150072480898
1539731991278575,0.8239871824216607,-0.09155413138023505,-0.15259021896690683
1539731991294561,1.1902037079423735,-0.03051804379333589,-0.03051804379333589
1539731991310547,1.0681315327688026,-0.03051804379333589,-0.45777065690094787
1539731991326538,0.45777065690094787,0.09155413138023505,-0.7019150072480898
1539731991342524,0.03051804379333589,0.33569848172737693,-0.8239871824216607
1539731991358511,-0.15259021896690683,0.45777065690094787,-1.1902037079423735
1539731991374497,-0.15259021896690683,0.213626306553806,-1.3733119707026162
1539731991390483,0.03051804379333589,0.33569848172737693,-1.3733119707026162
1539731991406470,0.15259021896690683,0.45777065690094787,-1.1291676203554744
1539731991422456,0.2746623941404778,0.45777065690094787,-1.0070954451819034
1539731991438443,0.15259021896690683,0.5188067444876197,-0.8850232700083325
1539731991454429,0.03051804379333589,0.5188067444876197,-0.8239871824216607
1539731991470416,0.03051804379333589,0.3967345693140487,-0.9460593575952316
1539731991486402,0.2746623941404778,0.3967345693140487,-1.0681315327688026
1539731991502389,0.5188067444876197,0.33569848172737693,-1.0681315327688026
1539731991518375,0.7019150072480898,0.33569848172737693,-0.9460593575952316
1539731991534361,0.6408789196611906,0.5798428320745188,-0.7019150072480898
1539731991550348,0.2746623941404778,0.7629510948347615,-0.5188067444876197
1539731991566334,-0.03051804379333589,0.6408789196611906,-0.6408789196611906
1539731991582321,-0.2746623941404778,0.6408789196611906,-0.9460593575952316
1539731991598307,-0.33569848172737693,0.5798428320745188,-1.0070954451819034
1539731991614294,-0.33569848172737693,0.5188067444876197,-1.0070954451819034
1539731991630280,-0.213626306553806,0.45777065690094787,-1.1291676203554744
1539731991646240,0.09155413138023505,0.3967345693140487,-1.0681315327688026
1539731991662226,0.213626306553806,0.5188067444876197,-0.8239871824216607
1539731991678213,0.33569848172737693,0.5798428320745188,-0.45777065690094787
1539731991694199,0.6408789196611906,0.3967345693140487,-0.45777065690094787
1539731991710186,0.7019150072480898,0.2746623941404778,-0.5798428320745188
1539731991726172,0.5798428320745188,0.2746623941404778,-0.5798428320745188
1539731991742159,0.5798428320745188,0.33569848172737693,-0.6408789196611906
1539731991758145,0.45777065690094787,0.33569848172737693,-0.7019150072480898
1539731991774131,-0.03051804379333589,0.5188067444876197,-0.7629510948347615
1539731991790118,-0.2746623941404778,0.5798428320745188,-0.8850232700083325
1539731991806104,-0.213626306553806,0.7019150072480898,-0.9460593575952316
1539731991822091,-0.213626306553806,0.7629510948347615,-1.1291676203554744
1539731991838077,-0.09155413138023505,0.6408789196611906,-1.2512397955290453
1539731991854064,0.15259021896690683,0.5188067444876197,-1.1902037079423735
1539731991870050,0.33569848172737693,0.5188067444876197,-1.0070954451819034
1539731991886036,0.33569848172737693,0.5798428320745188,-0.8239871824216607
1539731991902023,0.45777065690094787,0.5188067444876197,-0.7019150072480898
1539731991918009,0.5798428320745188,0.5188067444876197,-0.6408789196611906
1539731991933996,0.7019150072480898,0.33569848172737693,-0.6408789196611906
1539731991949982,0.6408789196611906,0.45777065690094787,-0.6408789196611906
1539731991965973,0.33569848172737693,0.33569848172737693,-0.7629510948347615
1539731991981959,0.15259021896690683,0.213626306553806,-0.7629510948347615
1539731991997945,0.09155413138023505,0.213626306553806,-0.8239871824216607
1539731992013932,-0.03051804379333589,0.15259021896690683,-0.8239871824216607
1539731992029918,-0.213626306553806,0.2746623941404778,-0.8850232700083325
1539731992045905,-0.15259021896690683,0.45777065690094787,-0.7629510948347615
1539731992061891,-0.03051804379333589,0.45777065690094787,-0.8239871824216607
1539731992077878,0.15259021896690683,0.45777065690094787,-0.9460593575952316
1539731992093864,0.15259021896690683,0.5798428320745188,-0.9460593575952316
1539731992109851,0.45777065690094787,0.5188067444876197,-0.8850232700083325
1539731992125837,0.7019150072480898,0.6408789196611906,-0.8239871824216607
1539731992141823,0.7629510948347615,0.7019150072480898,-0.6408789196611906
1539731992157810,0.5188067444876197,0.5188067444876197,-0.5798428320745188
1539731992173796,0.33569848172737693,0.3967345693140487,-0.7629510948347615
1539731992189783,0.15259021896690683,0.45777065690094787,-0.7629510948347615
1539731992205769,-0.03051804379333589,0.5798428320745188,-0.7019150072480898
1539731992221756,-0.15259021896690683,0.7019150072480898,-0.7629510948347615
1539731992237742,-0.3967345693140487,0.8239871824216607,-1.0070954451819034
1539731992253728,-0.5188067444876197,0.8850232700083325,-1.2512397955290453
1539731992269715,-0.5188067444876197,0.9460593575952316,-1.3733119707026162
1539731992285675,-0.2746623941404778,0.8850232700083325,-1.4343480582895154
1539731992301661,-0.03051804379333589,0.8850232700083325,-1.4343480582895154
1539731992317648,0.09155413138023505,0.9460593575952316,-1.2512397955290453
1539731992333634,0.33569848172737693,0.8850232700083325,-1.0681315327688026
1539731992349620,0.5798428320745188,0.8239871824216607,-0.9460593575952316
1539731992365607,0.7019150072480898,0.6408789196611906,-0.7629510948347615
1539731992381593,0.6408789196611906,0.5188067444876197,-0.5798428320745188
1539731992397580,0.5188067444876197,0.45777065690094787,-0.5188067444876197
1539731992413566,0.3967345693140487,0.3967345693140487,-0.5798428320745188
1539731992429553,0.213626306553806,0.2746623941404778,-0.5798428320745188
1539731992445539,0.15259021896690683,0.33569848172737693,-0.5188067444876197
1539731992461526,0.15259021896690683,0.5188067444876197,-0.5188067444876197
1539731992477512,0.03051804379333589,0.5188067444876197,-0.7629510948347615
1539731992493498,-0.03051804379333589,0.45777065690094787,-1.1291676203554744
1539731992509485,0.03051804379333589,0.45777065690094787,-1.2512397955290453
1539731992525471,0.03051804379333589,0.45777065690094787,-1.1902037079423735
1539731992541458,-0.03051804379333589,0.33569848172737693,-1.1291676203554744
1539731992557444,-0.15259021896690683,0.3967345693140487,-0.9460593575952316
1539731992573431,0.03051804379333589,0.2746623941404778,-0.8239871824216607
1539731992589417,0.2746623941404778,0.33569848172737693,-0.8239871824216607
1539731992605407,0.213626306553806,0.2746623941404778,-0.8850232700083325
1539731992621394,0.213626306553806,0.09155413138023505,-0.9460593575952316
1539731992637380,0.33569848172737693,0.15259021896690683,-0.8850232700083325
1539731992653367,0.213626306553806,0.213626306553806,-0.8239871824216607
1539731992669353,0.09155413138023505,0.33569848172737693,-0.8239871824216607
1539731992685340,0.213626306553806,0.5188067444876197,-0.7629510948347615
1539731992701326,0.2746623941404778,0.6408789196611906,-0.8239871824216607
1539731992717312,0.09155413138023505,0.45777065690094787,-1.1291676203554744
1539731992733299,-0.03051804379333589,0.33569848172737693,-1.3122758831159445
1539731992749285,0.03051804379333589,0.2746623941404778,-1.2512397955290453
1539731992765272,0.15259021896690683,0.3967345693140487,-0.8850232700083325
1539731992781258,0.3967345693140487,0.15259021896690683,-0.7019150072480898
1539731992797245,0.45777065690094787,0.09155413138023505,-0.7019150072480898
1539731992813231,0.3967345693140487,-0.03051804379333589,-0.6408789196611906
1539731992829218,0.2746623941404778,0.03051804379333589,-0.45777065690094787
1539731992845204,0.33569848172737693,0.03051804379333589,-0.45777065690094787
1539731992861190,0.3967345693140487,0.09155413138023505,-0.5188067444876197
1539731992877177,0.2746623941404778,0.2746623941404778,-0.6408789196611906
1539731992893163,0.213626306553806,0.3967345693140487,-0.7019150072480898
1539731992909150,0.15259021896690683,0.7629510948347615,-0.8239871824216607
1539731992925109,0.03051804379333589,0.9460593575952316,-1.0070954451819034
1539731992941095,-0.09155413138023505,0.8850232700083325,-1.4343480582895154
1539731992957081,-0.09155413138023505,0.5188067444876197,-1.9226367589837992
1539731992973067,-0.09155413138023505,0.7629510948347615,-1.6784924086366573
1539731992989053,-0.03051804379333589,1.0681315327688026,-0.8850232700083325
1539731993005039,0.15259021896690683,1.0070954451819034,-0.5798428320745188
1539731993021025,0.09155413138023505,0.7629510948347615,-0.9460593575952316
1539731993037011,-0.03051804379333589,0.33569848172737693,-1.3733119707026162
1539731993052997,-0.15259021896690683,0.2746623941404778,-1.2512397955290453
1539731993068983,-0.09155413138023505,0.2746623941404778,-0.8239871824216607
1539731993084969,0.03051804379333589,0.33569848172737693,-0.3967345693140487
1539731993100955,0.03051804379333589,0.3967345693140487,-0.33569848172737693
1539731993116941,-0.03051804379333589,0.3967345693140487,-0.5188067444876197
1539731993132927,-0.03051804379333589,0.213626306553806,-0.8850232700083325
1539731993148913,0.15259021896690683,0.15259021896690683,-1.0681315327688026
1539731993164899,0.213626306553806,0.45777065690094787,-0.7629510948347615
1539731993180885,0.2746623941404778,0.5798428320745188,-0.45777065690094787
1539731993196871,0.5188067444876197,0.6408789196611906,-0.45777065690094787
1539731993212857,0.5798428320745188,0.5798428320745188,-0.6408789196611906
1539731993228843,0.5798428320745188,0.5798428320745188,-0.7019150072480898
1539731993244812,0.3967345693140487,0.45777065690094787,-0.7629510948347615
1539731993260798,0.2746623941404778,0.33569848172737693,-0.8850232700083325
1539731993276784,0.213626306553806,0.33569848172737693,-0.8850232700083325
1539731993292770,0.09155413138023505,0.33569848172737693,-0.6408789196611906
1539731993308755,-0.03051804379333589,0.45777065690094787,-0.5188067444876197
1539731993324741,-0.03051804379333589,0.3967345693140487,-0.6408789196611906
1539731993340727,-0.09155413138023505,0.33569848172737693,-1.0681315327688026
1539731993356713,-0.213626306553806,0.15259021896690683,-1.3733119707026162
1539731993372699,-0.15259021896690683,0.213626306553806,-1.2512397955290453
1539731993388685,0.03051804379333589,0.45777065690094787,-0.8850232700083325
1539731993404671,0.2746623941404778,0.5798428320745188,-0.6408789196611906
1539731993420657,0.3967345693140487,0.3967345693140487,-0.7629510948347615
1539731993436643,0.3967345693140487,0.15259021896690683,-1.0681315327688026
1539731993452629,0.2746623941404778,0.03051804379333589,-1.0681315327688026
1539731993468615,0.33569848172737693,0.09155413138023505,-0.6408789196611906
1539731993484601,0.5188067444876197,0.15259021896690683,-0.2746623941404778
1539731993500587,0.45777065690094787,0.213626306553806,-0.15259021896690683
1539731993516573,0.2746623941404778,-0.09155413138023505,-0.45777065690094787
1539731993532559,0.03051804379333589,-0.2746623941404778,-0.8850232700083325
1539731993548545,-0.213626306553806,-0.15259021896690683,-0.8850232700083325
1539731993564575,-0.03051804379333589,0.03051804379333589,-0.5798428320745188
1539731993580561,0.09155413138023505,0.33569848172737693,-0.5188067444876197
1539731993596548,0.213626306553806,0.33569848172737693,-0.7629510948347615
1539731993612534,0.03051804379333589,0.5798428320745188,-1.1291676203554744
1539731993628521,0.03051804379333589,0.5798428320745188,-1.3122758831159445
1539731993644507,0.213626306553806,0.8239871824216607,-1.3122758831159445
1539731993660493,0.2746623941404778,0.7629510948347615,-1.1902037079423735
1539731993676480,0.45777065690094787,0.7629510948347615,-1.0070954451819034
1539731993692466,0.3967345693140487,0.8239871824216607,-1.1291676203554744
1539731993708453,0.213626306553806,0.45777065690094787,-1.0681315327688026
1539731993724439,0.09155413138023505,0.45777065690094787,-1.0070954451819034
1539731993740426,0.03051804379333589,0.33569848172737693,-0.8239871824216607
1539731993756412,0.09155413138023505,0.15259021896690683,-0.7019150072480898
1539731993772399,0.03051804379333589,0.213626306553806,-0.6408789196611906
1539731993788385,-0.09155413138023505,0.213626306553806,-0.5798428320745188
1539731993804371,-0.03051804379333589,0.33569848172737693,-0.5798428320745188
1539731993820358,0.03051804379333589,0.33569848172737693,-0.8850232700083325
1539731993836344,0.15259021896690683,0.2746623941404778,-1.0681315327688026
1539731993852331,0.15259021896690683,0.33569848172737693,-1.0070954451819034
1539731993868317,0.33569848172737693,0.45777065690094787,-0.8239871824216607
1539731993884277,0.5798428320745188,0.6408789196611906,-0.6408789196611906
1539731993900263,0.6408789196611906,0.5798428320745188,-0.5798428320745188
1539731993916249,0.5188067444876197,0.5798428320745188,-0.6408789196611906
1539731993932235,0.3967345693140487,0.3967345693140487,-0.7629510948347615
1539731993948221,0.2746623941404778,0.2746623941404778,-0.8239871824216607
1539731993964207,0.213626306553806,0.33569848172737693,-0.7019150072480898
1539731993980193,0.03051804379333589,0.3967345693140487,-0.3967345693140487
1539731993996179,-0.15259021896690683,0.45777065690094787,-0.33569848172737693
1539731994012165,-0.33569848172737693,0.3967345693140487,-0.5798428320745188
1539731994028151,-0.3967345693140487,0.33569848172737693,-1.0070954451819034
1539731994044137,-0.33569848172737693,0.33569848172737693,-1.1902037079423735
1539731994060123,-0.2746623941404778,0.5798428320745188,-1.0681315327688026
1539731994076109,-0.03051804379333589,0.7629510948347615,-1.0070954451819034
1539731994092095,0.15259021896690683,0.8850232700083325,-1.0681315327688026
1539731994108080,0.213626306553806,0.8850232700083325,-1.1291676203554744
1539731994124066,0.213626306553806,0.8239871824216607,-1.2512397955290453
1539731994140052,0.2746623941404778,0.8239871824216607,-1.1902037079423735
1539731994156038,0.5798428320745188,0.7629510948347615,-0.9460593575952316
1539731994172024,0.7019150072480898,0.6408789196611906,-0.7629510948347615
1539731994188010,0.7019150072480898,0.5188067444876197,-0.7019150072480898
1539731994203979,0.6408789196611906,0.3967345693140487,-0.6408789196611906
1539731994219965,0.5188067444876197,0.2746623941404778,-0.5798428320745188
1539731994235951,0.2746623941404778,0.213626306553806,-0.5798428320745188
1539731994251937,0.15259021896690683,0.15259021896690683,-0.5188067444876197
1539731994267923,0.15259021896690683,0.213626306553806,-0.5798428320745188
1539731994283909,0.213626306553806,0.213626306553806,-0.5798428320745188
1539731994299895,0.2746623941404778,0.213626306553806,-0.5798428320745188
1539731994315881,0.33569848172737693,0.2746623941404778,-0.5188067444876197
1539731994331867,0.45777065690094787,0.33569848172737693,-0.5188067444876197
1539731994347853,0.45777065690094787,0.3967345693140487,-0.5798428320745188
1539731994363839,0.5188067444876197,0.45777065690094787,-0.6408789196611906
1539731994379825,0.5798428320745188,0.5798428320745188,-0.7019150072480898
1539731994395811,0.5798428320745188,0.5188067444876197,-0.8850232700083325
1539731994411797,0.5798428320745188,0.33569848172737693,-1.1291676203554744
1539731994427783,0.33569848172737693,-0.15259021896690683,-1.6174563210497581
1539731994443769,-0.03051804379333589,0.33569848172737693,-1.6174563210497581
1539731994459755,0.09155413138023505,0.5798428320745188,-0.8850232700083325
1539731994475741,0.09155413138023505,0.7629510948347615,-0.45777065690094787
1539731994491727,-0.15259021896690683,0.45777065690094787,-0.7629510948347615
1539731994507712,-0.2746623941404778,0.09155413138023505,-1.0070954451819034
1539731994523712,-0.03051804379333589,0.2746623941404778,-0.9460593575952316
1539731994539698,0.15259021896690683,0.33569848172737693,-0.45777065690094787
1539731994555684,0.213626306553806,0.5188067444876197,-0.3967345693140487
1539731994571670,0.2746623941404778,0.45777065690094787,-0.5188067444876197
1539731994587656,0.33569848172737693,0.5188067444876197,-0.6408789196611906
1539731994603642,0.45777065690094787,0.3967345693140487,-0.7019150072480898
1539731994619628,0.6408789196611906,0.15259021896690683,-0.7629510948347615
1539731994635614,0.7629510948347615,0.09155413138023505,-0.5188067444876197
1539731994651600,0.7019150072480898,-0.09155413138023505,-0.33569848172737693
1539731994667585,0.45777065690094787,-0.3967345693140487,-0.5188067444876197
1539731994683571,0.3967345693140487,-0.33569848172737693,-0.5188067444876197
1539731994699557,0.3967345693140487,-0.213626306553806,-0.213626306553806
1539731994715543,0.3967345693140487,-0.03051804379333589,-0.09155413138023505
1539731994731529,0.2746623941404778,0.03051804379333589,-0.33569848172737693
1539731994747515,0.15259021896690683,0.03051804379333589,-0.45777065690094787
1539731994763501,0.15259021896690683,0.5188067444876197,-0.5188067444876197
1539731994779487,0.15259021896690683,0.8239871824216607,-0.6408789196611906
1539731994795473,0.03051804379333589,1.0070954451819034,-1.0681315327688026
1539731994811459,0.03051804379333589,1.0070954451819034,-1.5564202334630863
1539731994827445,0.03051804379333589,1.1902037079423735,-1.6174563210497581
1539731994843414,0.15259021896690683,1.3733119707026162,-1.4953841458761872
1539731994859400,0.15259021896690683,1.3122758831159445,-1.3733119707026162
1539731994875386,0.09155413138023505,1.1291676203554744,-1.1902037079423735
1539731994891372,0.03051804379333589,0.9460593575952316,-1.0681315327688026
1539731994907358,0.09155413138023505,0.6408789196611906,-0.8239871824216607
1539731994923344,0.33569848172737693,0.5188067444876197,-0.7629510948347615
1539731994939330,0.45777065690094787,0.2746623941404778,-0.5798428320745188
1539731994955316,0.3967345693140487,0.09155413138023505,-0.5188067444876197
1539731994971302,0.33569848172737693,0.09155413138023505,-0.213626306553806
1539731994987288,0.33569848172737693,0.03051804379333589,-0.213626306553806
1539731995003274,0.3967345693140487,-0.09155413138023505,-0.3967345693140487
1539731995019260,0.213626306553806,-0.09155413138023505,-0.7019150072480898
1539731995035246,0.15259021896690683,0.09155413138023505,-0.7019150072480898
1539731995051231,0.03051804379333589,0.2746623941404778,-0.7019150072480898
1539731995067217,-0.213626306553806,0.45777065690094787,-0.8850232700083325
1539731995083203,-0.3967345693140487,0.15259021896690683,-1.3122758831159445
1539731995099189,-0.33569848172737693,0.15259021896690683,-1.6174563210497581
1539731995115175,-0.09155413138023505,0.33569848172737693,-1.3733119707026162
1539731995131161,0.213626306553806,0.3967345693140487,-1.1291676203554744
1539731995147147,0.2746623941404778,0.33569848172737693,-1.1291676203554744
1539731995163116,0.33569848172737693,0.33569848172737693,-1.0681315327688026
1539731995179102,0.2746623941404778,0.2746623941404778,-0.8850232700083325
1539731995195088,0.33569848172737693,0.2746623941404778,-0.8850232700083325
1539731995211074,0.213626306553806,0.15259021896690683,-0.9460593575952316
1539731995227060,0.09155413138023505,0.2746623941404778,-1.0681315327688026
1539731995243046,-0.03051804379333589,0.33569848172737693,-1.0681315327688026
1539731995259032,-0.09155413138023505,0.33569848172737693,-1.1902037079423735
1539731995275018,-0.33569848172737693,0.3967345693140487,-1.4343480582895154
1539731995291004,-0.45777065690094787,0.2746623941404778,-1.5564202334630863
1539731995306990,-0.2746623941404778,0.3967345693140487,-1.4343480582895154
1539731995322976,-0.09155413138023505,0.5188067444876197,-1.1291676203554744
1539731995338962,-0.15259021896690683,0.5188067444876197,-1.1902037079423735
1539731995354948,-0.03051804379333589,0.33569848172737693,-1.1902037079423735
1539731995370934,0.15259021896690683,0.2746623941404778,-1.1291676203554744
1539731995386920,0.15259021896690683,0.15259021896690683,-1.0070954451819034
1539731995402906,0.213626306553806,0.09155413138023505,-0.8850232700083325
1539731995418892,0.33569848172737693,0.213626306553806,-0.7629510948347615
1539731995434877,0.33569848172737693,0.09155413138023505,-0.9460593575952316
1539731995450863,0.213626306553806,-0.09155413138023505,-1.0070954451819034
1539731995466849,0.15259021896690683,0.15259021896690683,-0.8239871824216607
1539731995482879,0.15259021896690683,0.2746623941404778,-0.5188067444876197
1539731995498865,0.09155413138023505,0.45777065690094787,-0.5798428320745188
1539731995514851,-0.15259021896690683,0.45777065690094787,-1.0070954451819034
1539731995530837,-0.2746623941404778,0.3967345693140487,-1.3733119707026162
1539731995546823,-0.2746623941404778,0.5188067444876197,-1.6174563210497581
1539731995562809,-0.09155413138023505,0.5798428320745188,-1.3122758831159445
1539731995578795,0.09155413138023505,0.7629510948347615,-1.0681315327688026
1539731995594781,0.3967345693140487,0.7019150072480898,-0.9460593575952316
1539731995610767,0.45777065690094787,0.6408789196611906,-0.8850232700083325
1539731995626753,0.3967345693140487,0.45777065690094787,-0.7629510948347615
1539731995642739,0.3967345693140487,0.45777065690094787,-0.6408789196611906
1539731995658725,0.45777065690094787,0.5188067444876197,-0.45777065690094787
1539731995674711,0.33569848172737693,0.45777065690094787,-0.5188067444876197
1539731995690697,0.03051804379333589,0.33569848172737693,-0.5798428320745188
1539731995706683,-0.213626306553806,0.45777065690094787,-0.7019150072480898
1539731995722669,-0.2746623941404778,0.45777065690094787,-0.8850232700083325
1539731995738655,-0.213626306553806,0.6408789196611906,-0.9460593575952316
1539731995754641,-0.15259021896690683,0.7019150072480898,-0.9460593575952316
1539731995770627,-0.09155413138023505,0.8239871824216607,-0.9460593575952316
1539731995786613,0.09155413138023505,0.8850232700083325,-1.0681315327688026
1539731995802581,0.33569848172737693,0.9460593575952316,-1.1291676203554744
1539731995818567,0.2746623941404778,0.9460593575952316,-1.1291676203554744
1539731995834553,0.3967345693140487,0.8850232700083325,-0.9460593575952316
1539731995850539,0.3967345693140487,0.7629510948347615,-0.8239871824216607
1539731995866525,0.33569848172737693,0.5798428320745188,-0.7019150072480898
1539731995882511,0.213626306553806,0.45777065690094787,-0.5188067444876197
1539731995898497,0.03051804379333589,0.33569848172737693,-0.5188067444876197
1539731995914483,-0.03051804379333589,0.213626306553806,-0.5798428320745188
1539731995930469,-0.03051804379333589,0.213626306553806,-0.7629510948347615
1539731995946455,0.03051804379333589,0.2746623941404778,-0.7019150072480898
1539731995962441,0.03051804379333589,0.3967345693140487,-0.6408789196611906
1539731995978427,0.09155413138023505,0.3967345693140487,-0.6408789196611906
1539731995994413,0.15259021896690683,0.3967345693140487,-0.7019150072480898
1539731996010399,0.15259021896690683,0.3967345693140487,-0.7629510948347615
1539731996026385,0.09155413138023505,0.33569848172737693,-0.9460593575952316
1539731996042371,0.03051804379333589,0.45777065690094787,-1.0681315327688026
1539731996058357,0.09155413138023505,0.5188067444876197,-1.0070954451819034
1539731996074343,0.15259021896690683,0.6408789196611906,-0.8239871824216607
1539731996090329,0.09155413138023505,0.5798428320745188,-0.8850232700083325
1539731996106315,0.09155413138023505,0.2746623941404778,-1.0070954451819034
1539731996122314,0.09155413138023505,0.3967345693140487,-1.0681315327688026
1539731996138300,0.03051804379333589,0.45777065690094787,-0.9460593575952316
1539731996154286,-0.09155413138023505,0.5188067444876197,-0.8850232700083325
1539731996170272,-0.03051804379333589,0.3967345693140487,-1.0681315327688026
1539731996186258,-0.03051804379333589,0.2746623941404778,-1.1291676203554744
1539731996202244,-0.15259021896690683,0.213626306553806,-1.1291676203554744
1539731996218230,-0.03051804379333589,0.09155413138023505,-0.5188067444876197
1539731996234216,0.213626306553806,0.3967345693140487,-0.2746623941404778
1539731996250202,0.45777065690094787,0.2746623941404778,-0.2746623941404778
1539731996266188,0.3967345693140487,0.213626306553806,-0.5798428320745188
1539731996282174,0.3967345693140487,0.09155413138023505,-0.7629510948347615
1539731996298160,0.5798428320745188,0.213626306553806,-0.6408789196611906
1539731996314146,0.6408789196611906,0.3967345693140487,-0.3967345693140487
1539731996330132,0.5798428320745188,0.6408789196611906,-0.213626306553806
1539731996346118,0.33569848172737693,0.7629510948347615,-0.3967345693140487
1539731996362104,0.213626306553806,0.7019150072480898,-0.7019150072480898
1539731996378090,-0.03051804379333589,0.7629510948347615,-1.0070954451819034
1539731996394075,-0.33569848172737693,0.7629510948347615,-1.0681315327688026
1539731996410061,-0.3967345693140487,0.7629510948347615,-1.0070954451819034
1539731996426047,-0.45777065690094787,0.8239871824216607,-1.1291676203554744
1539731996442016,-0.213626306553806,0.7019150072480898,-1.0681315327688026
1539731996458002,-0.15259021896690683,0.7629510948347615,-0.9460593575952316
1539731996473988,-0.03051804379333589,0.6408789196611906,-0.8850232700083325
1539731996489974,0.03051804379333589,0.5798428320745188,-0.7629510948347615
1539731996505960,0.09155413138023505,0.5798428320745188,-0.7629510948347615
1539731996521946,0.213626306553806,0.5188067444876197,-0.7019150072480898
1539731996537932,0.2746623941404778,0.5188067444876197,-0.7019150072480898
1539731996553918,0.2746623941404778,0.5798428320745188,-0.8239871824216607
1539731996569904,0.15259021896690683,0.6408789196611906,-0.8850232700083325
1539731996585890,0.15259021896690683,0.7629510948347615,-0.8239871824216607
1539731996601876,0.213626306553806,0.9460593575952316,-0.8850232700083325
1539731996617862,0.09155413138023505,1.0070954451819034,-1.0070954451819034
1539731996633848,-0.03051804379333589,0.8239871824216607,-1.1902037079423735
1539731996649834,-0.09155413138023505,0.6408789196611906,-1.2512397955290453
1539731996665820,0.03051804379333589,0.5798428320745188,-1.1902037079423735
1539731996681806,0.213626306553806,0.5798428320745188,-1.0070954451819034
1539731996697792,0.213626306553806,0.45777065690094787,-0.7019150072480898
1539731996713778,0.15259021896690683,0.33569848172737693,-0.5798428320745188
1539731996729764,0.15259021896690683,0.213626306553806,-0.5798428320745188
1539731996745750,0.213626306553806,0.213626306553806,-0.6408789196611906
1539731996761749,0.2746623941404778,0.213626306553806,-0.6408789196611906
1539731996777735,0.2746623941404778,0.213626306553806,-0.6408789196611906
1539731996793721,0.213626306553806,0.33569848172737693,-0.7629510948347615
1539731996809707,0.213626306553806,0.33569848172737693,-0.9460593575952316
1539731996825693,0.2746623941404778,0.5188067444876197,-1.0070954451819034
1539731996841679,0.2746623941404778,0.45777065690094787,-1.0681315327688026
1539731996857665,0.2746623941404778,0.6408789196611906,-0.9460593575952316
1539731996873651,0.213626306553806,0.5798428320745188,-1.0681315327688026
1539731996889637,0.15259021896690683,0.3967345693140487,-1.1902037079423735
1539731996905623,0.15259021896690683,0.33569848172737693,-1.0681315327688026
1539731996921609,0.09155413138023505,0.2746623941404778,-0.8850232700083325
1539731996937595,0.15259021896690683,0.213626306553806,-0.8850232700083325
1539731996953580,0.2746623941404778,0.15259021896690683,-0.8850232700083325
1539731996969566,0.33569848172737693,0.09155413138023505,-0.7629510948347615
1539731996985552,0.2746623941404778,0.03051804379333589,-0.7629510948347615
1539731997001538,0.15259021896690683,0.09155413138023505,-0.7019150072480898
1539731997017524,0.2746623941404778,0.15259021896690683,-0.7019150072480898
1539731997033510,0.213626306553806,0.2746623941404778,-0.7019150072480898
1539731997049496,0.213626306553806,0.2746623941404778,-0.8239871824216607
1539731997065482,0.213626306553806,0.33569848172737693,-0.8239871824216607
1539731997081451,0.2746623941404778,0.5798428320745188,-0.8850232700083325
1539731997097437,0.2746623941404778,0.5188067444876197,-0.7629510948347615
1539731997113423,0.33569848172737693,0.3967345693140487,-0.8850232700083325
1539731997129409,0.3967345693140487,0.33569848172737693,-1.0681315327688026
1539731997145395,0.5188067444876197,0.2746623941404778,-0.8850232700083325
1539731997161381,0.5798428320745188,0.45777065690094787,-0.6408789196611906
1539731997177367,0.45777065690094787,0.5188067444876197,-0.5798428320745188
1539731997193353,0.213626306553806,0.45777065690094787,-0.6408789196611906
1539731997209339,0.09155413138023505,0.33569848172737693,-0.7629510948347615
1539731997225325,0.15259021896690683,0.3967345693140487,-0.8850232700083325
1539731997241311,0.213626306553806,0.45777065690094787,-0.9460593575952316
1539731997257297,0.09155413138023505,0.5188067444876197,-0.9460593575952316
1539731997273283,0.15259021896690683,0.5188067444876197,-0.9460593575952316
1539731997289269,0.213626306553806,0.7019150072480898,-0.9460593575952316
1539731997305255,0.213626306553806,0.8239871824216607,-1.0681315327688026
1539731997321241,0.2746623941404778,0.8850232700083325,-1.1902037079423735
1539731997337226,0.2746623941404778,0.8239871824216607,-1.2512397955290453
1539731997353212,0.2746623941404778,0.8239871824216607,-1.2512397955290453
1539731997369198,0.33569848172737693,0.7019150072480898,-1.1291676203554744
1539731997385184,0.33569848172737693,0.6408789196611906,-1.0070954451819034
1539731997401184,0.33569848172737693,0.45777065690094787,-0.8850232700083325
1539731997417170,0.2746623941404778,0.33569848172737693,-0.7629510948347615
1539731997433156,0.213626306553806,0.09155413138023505,-0.7019150072480898
1539731997449142,0.09155413138023505,-0.09155413138023505,-0.7019150072480898
1539731997465128,0.15259021896690683,0.03051804379333589,-0.5188067444876197
1539731997481114,0.2746623941404778,-0.03051804379333589,-0.3967345693140487
1539731997497100,0.09155413138023505,0.03051804379333589,-0.5188067444876197
1539731997513085,-0.09155413138023505,-0.03051804379333589,-0.8239871824216607
1539731997529071,-0.03051804379333589,-0.03051804379333589,-1.0070954451819034
1539731997545057,0.15259021896690683,0.15259021896690683,-0.9460593575952316
1539731997561043,0.15259021896690683,0.33569848172737693,-0.8239871824216607
1539731997577029,0.09155413138023505,0.5188067444876197,-0.8850232700083325
1539731997593015,0.03051804379333589,0.5798428320745188,-1.0070954451819034
1539731997609001,0.03051804379333589,0.5188067444876197,-1.1291676203554744
1539731997624987,-0.03051804379333589,0.5188067444876197,-1.1291676203554744
1539731997640973,0.2746623941404778,0.45777065690094787,-1.1291676203554744
1539731997656959,0.5188067444876197,0.3967345693140487,-1.0070954451819034
1539731997672945,0.7629510948347615,0.33569848172737693,-0.8850232700083325
1539731997688931,0.5798428320745188,0.45777065690094787,-0.6408789196611906
1539731997704917,0.33569848172737693,0.3967345693140487,-0.45777065690094787
1539731997720886,0.213626306553806,0.3967345693140487,-0.5188067444876197
1539731997736872,0.03051804379333589,0.3967345693140487,-0.8239871824216607
1539731997752858,-0.09155413138023505,0.45777065690094787,-1.0681315327688026
1539731997768844,-0.15259021896690683,0.45777065690094787,-1.3733119707026162
1539731997784830,-0.09155413138023505,0.5188067444876197,-1.4953841458761872
1539731997800816,0.09155413138023505,0.5798428320745188,-1.4953841458761872
1539731997816802,0.03051804379333589,0.5798428320745188,-1.5564202334630863
1539731997832788,0.03051804379333589,0.45777065690094787,-1.2512397955290453
1539731997848774,0.09155413138023505,0.6408789196611906,-1.0070954451819034
1539731997864760,0.213626306553806,0.5798428320745188,-0.8239871824216607
1539731997880746,0.213626306553806,0.33569848172737693,-0.8239871824216607
1539731997896731,0.2746623941404778,0.213626306553806,-0.8239871824216607
1539731997912717,0.213626306553806,0.213626306553806,-0.8850232700083325
1539731997928703,0.213626306553806,0.213626306553806,-0.9460593575952316
1539731997944689,0.213626306553806,0.33569848172737693,-0.8850232700083325
1539731997960675,-0.03051804379333589,0.3967345693140487,-0.8239871824216607
1539731997976661,-0.09155413138023505,0.2746623941404778,-0.8850232700083325
1539731997992647,-0.15259021896690683,0.33569848172737693,-0.9460593575952316
1539731998008633,-0.15259021896690683,0.3967345693140487,-1.0070954451819034
1539731998024619,-0.213626306553806,0.33569848172737693,-1.0681315327688026
1539731998040619,-0.213626306553806,0.213626306553806,-1.1291676203554744
1539731998056604,0.03051804379333589,0.15259021896690683,-1.0681315327688026
1539731998072590,0.15259021896690683,0.2746623941404778,-0.8850232700083325
1539731998088576,0.33569848172737693,0.33569848172737693,-0.7629510948347615
1539731998104562,0.33569848172737693,0.3967345693140487,-0.7629510948347615
1539731998120548,0.213626306553806,0.3967345693140487,-0.8239871824216607
1539731998136534,0.15259021896690683,0.3967345693140487,-1.0070954451819034
1539731998152520,0.213626306553806,0.45777065690094787,-1.1291676203554744
1539731998168506,0.2746623941404778,0.3967345693140487,-1.0681315327688026
1539731998184492,0.213626306553806,0.5188067444876197,-1.0070954451819034
1539731998200478,0.15259021896690683,0.45777065690094787,-0.9460593575952316
1539731998216464,0.09155413138023505,0.5188067444876197,-0.9460593575952316
1539731998232450,0.03051804379333589,0.5798428320745188,-0.8850232700083325
1539731998248436,-0.03051804379333589,0.5188067444876197,-0.8850232700083325
1539731998264422,-0.09155413138023505,0.5798428320745188,-0.8850232700083325
1539731998280408,-0.213626306553806,0.7019150072480898,-0.9460593575952316
1539731998296394,-0.45777065690094787,1.0681315327688026,-0.8850232700083325
1539731998312380,-0.5798428320745188,1.3122758831159445,-0.7019150072480898
1539731998328366,-0.09155413138023505,1.739528496223329,-0.5798428320745188
1539731998344352,0.213626306553806,2.532997634851654,-0.3967345693140487
1539731998360321,-1.0681315327688026,5.157549401083315,0.15259021896690683
1539731998376307,-2.105745021744042,6.134126802471883,1.6784924086366573
1539731998392293,2.105745021744042,3.875791561760934,0.5188067444876197
1539731998408279,5.157549401083315,2.532997634851654,-1.8616006713969
1539731998424265,3.7537193865873633,2.5940337224383256,-1.8616006713969
1539731998440250,1.3122758831159445,2.227817196917613,-0.9460593575952316
1539731998456236,0.213626306553806,1.4953841458761872,-0.8850232700083325
1539731998472222,-0.2746623941404778,1.0070954451819034,-1.1291676203554744
1539731998488208,-1.0681315327688026,0.213626306553806,-0.8850232700083325
1539731998504194,-1.9226367589837992,-0.213626306553806,-0.7019150072480898
1539731998520180,-2.227817196917613,-0.45777065690094787,-0.7629510948347615
1539731998536166,-1.983672846570471,-0.6408789196611906,-0.8850232700083325
1539731998552152,-1.3733119707026162,-0.5188067444876197,-0.5798428320745188
1539731998568138,-0.6408789196611906,0.03051804379333589,-0.15259021896690683
1539731998584124,0.03051804379333589,0.45777065690094787,-0.2746623941404778
1539731998600110,0.7019150072480898,0.7019150072480898,-0.8239871824216607
1539731998616096,1.3733119707026162,0.9460593575952316,-0.9460593575952316
1539731998632082,1.739528496223329,1.2512397955290453,-0.6408789196611906
1539731998648068,1.8616006713969,1.3733119707026162,-0.5188067444876197
1539731998664054,1.8616006713969,1.2512397955290453,-0.7629510948347615
1539731998680053,1.4953841458761872,0.8850232700083325,-0.8850232700083325
1539731998696039,1.0681315327688026,0.5798428320745188,-0.7629510948347615
1539731998712025,0.5188067444876197,0.45777065690094787,-0.5798428320745188
1539731998728011,0.09155413138023505,0.213626306553806,-0.3967345693140487
1539731998743997,-0.2746623941404778,0.03051804379333589,-0.2746623941404778
1539731998759983,-0.6408789196611906,-0.09155413138023505,-0.33569848172737693
1539731998775969,-0.8239871824216607,-0.15259021896690683,-0.5188067444876197
1539731998791955,-0.7629510948347615,-0.09155413138023505,-0.5798428320745188
1539731998807941,-0.45777065690094787,0.15259021896690683,-0.7019150072480898
1539731998823927,22.919050888838,-16.02197299153113,2.7161058976118966
1539731998839913,102.0218204013122,-89.7535667963682,-17.42580300602731
1539731998855899,-13.092240787365427,82.91752498664846,-23.163195239185143
1539731998871885,-90.24185549706249,46.90623331044458,39.70397497520389
1539731998887871,-69.79476615548947,-27.008468757152514,25.17738612954895
1539731998903857,3.1433585107195086,-74.73868925001898,-12.787060349431613
1539731998919843,60.761425192644765,-53.98641947051192,-29.14473182269012
1539731998935829,82.91752498664846,-1.6784924086366573,-24.933241779201808
1539731998951815,79.01121538109419,11.993591210803288,-4.669260700389032
1539731998967801,62.9587243457695,19.501029983978015,8.087281605249018
1539731998983787,44.037537193865774,20.11139085984587,10.040436408026153
1539731998999755,29.999237048905115,11.932555123216616,6.8665598535133086
1539731999015741,22.003509575036105,5.157549401083315,3.6316472114137923
1539731999031727,14.373998626688035,5.2185854886702145,1.6784924086366573
1539731999047713,3.4485389486533222,4.852368963149502,0.8850232700083325
1539731999063699,-8.33142595559616,-0.15259021896690683,0.15259021896690683
1539731999079685,-19.684138246738257,-0.2746623941404778,-1.2512397955290453
1539731999095671,-31.280994888227724,0.7629510948347615,-2.166781109330941
1539731999111657,-42.87785152971696,1.3122758831159445,-2.8992141603723667
1539731999127643,-51.91119249256121,1.8616006713969,-3.4485389486533222
1539731999143629,-55.14610513466096,2.9602502479590385,-3.4485389486533222
1539731999159615,-52.277409018081926,4.42511635004189,-2.8992141603723667
1539731999175601,-44.464789806973386,6.439307240405924,-1.983672846570471
1539731999191587,-33.35622186617843,8.880750743877343,-1.6174563210497581
1539731999207573,-20.294499122606112,9.430075532158298,-1.6174563210497581
1539731999223559,-7.11070420386045,8.209353780422589,-1.6174563210497581
1539731999239545,3.875791561760934,7.843137254901876,-1.2512397955290453
1539731999255531,10.833905546654478,8.45349813076973,-0.5188067444876197
1539731999271517,12.481879911497572,9.85732814526591,-0.03051804379333589
1539731999287503,10.528725108720437,8.697642481116873,0.2746623941404778
1539731999303489,7.476920729381163,5.584802014190927,0.15259021896690683
1539731999319488,4.42511635004189,3.2043945983061803,-0.3967345693140487
1539731999335474,1.5564202334630863,1.3122758831159445,-0.7019150072480898
1539731999351460,-1.4343480582895154,-0.213626306553806,-0.7019150072480898
1539731999367446,-4.242008087281647,-1.3733119707026162,-0.5188067444876197
1539731999383432,-6.073090714885211,-2.288853284504512,-0.5798428320745188
1539731999399418,-6.9886320286868795,-2.4719615472647547,-0.9460593575952316
1539731999415404,-7.11070420386045,-2.532997634851654,-1.3122758831159445
1539731999431390,-6.927595941100208,-1.8005645838102282,-1.6784924086366573
1539731999447376,-5.584802014190927,-1.5564202334630863,-1.739528496223329
1539731999463362,-3.0823224231326094,-0.3967345693140487,-1.6174563210497581
1539731999479348,0.09155413138023505,0.8239871824216607,-1.0070954451819034
1539731999495334,4.180971999694748,0.5188067444876197,-0.3967345693140487
1539731999511320,7.232776379034021,0.9460593575952316,-0.9460593575952316
1539731999527306,2.655069810025225,3.814755474174035,0.15259021896690683
1539731999543292,1.3122758831159445,1.6174563210497581,1.4953841458761872
1539731999559278,3.997863736934505,1.5564202334630863,-0.8239871824216607
1539731999575264,2.8992141603723667,1.3122758831159445,-1.8616006713969
1539731999591250,-0.09155413138023505,0.2746623941404778,-0.9460593575952316
1539731999607236,-1.0681315327688026,-0.213626306553806,-1.0681315327688026
1539731999623221,-1.0070954451819034,-0.2746623941404778,-1.6784924086366573
1539731999639190,-1.4343480582895154,-0.7019150072480898,-1.3733119707026162
1539731999655176,-1.8005645838102282,-1.0681315327688026,-0.9460593575952316
1539731999671162,-2.166781109330941,-0.7629510948347615,-0.7019150072480898
1539731999687148,-2.532997634851654,-0.15259021896690683,-0.5798428320745188
1539731999703134,-2.166781109330941,-0.213626306553806,-0.7629510948347615
1539731999719120,-1.1902037079423735,-0.03051804379333589,-1.2512397955290453
1539731999735106,-0.45777065690094787,0.213626306553806,-1.6174563210497581
1539731999751092,0.2746623941404778,0.213626306553806,-1.6174563210497581
1539731999767078,1.2512397955290453,0.3967345693140487,-1.4953841458761872
1539731999783064,2.288853284504512,0.7019150072480898,-0.9460593575952316
1539731999799050,2.7161058976118966,0.7019150072480898,-0.3967345693140487
1539731999815036,2.410925459678083,0.45777065690094787,-0.09155413138023505
1539731999831022,1.6784924086366573,0.3967345693140487,-0.15259021896690683
1539731999847008,0.9460593575952316,0.03051804379333589,-0.45777065690094787
1539731999862994,0.03051804379333589,-0.09155413138023505,-0.7019150072480898
1539731999878980,-0.8239871824216607,-0.213626306553806,-0.8850232700083325
1539731999894966,-1.3122758831159445,-0.213626306553806,-1.2512397955290453
1539731999910952,-1.6784924086366573,-0.09155413138023505,-1.6174563210497581
1539731999926938,-1.739528496223329,0.03051804379333589,-1.739528496223329
1539731999942924,-1.2512397955290453,0.15259021896690683,-1.739528496223329
1539731999958923,-0.5798428320745188,0.3967345693140487,-1.4343480582895154
1539731999974909,0.03051804379333589,0.5798428320745188,-1.0070954451819034
1539731999990895,0.45777065690094787,0.7019150072480898,-0.7629510948347615
1539732000006881,0.8850232700083325,0.5798428320745188,-0.7019150072480898
1539732000022867,1.1902037079423735,0.45777065690094787,-0.7629510948347615
1539732000038853,1.1291676203554744,0.2746623941404778,-0.8239871824216607
1539732000054839,0.8850232700083325,0.09155413138023505,-0.8239871824216607
1539732000070825,0.2746623941404778,0.09155413138023505,-0.7019150072480898
1539732000086811,-0.15259021896690683,-0.15259021896690683,-0.7019150072480898
1539732000102797,-0.33569848172737693,-0.15259021896690683,-0.8239871824216607
1539732000118783,-0.5798428320745188,-0.15259021896690683,-0.9460593575952316
1539732000134769,-0.5188067444876197,-0.213626306553806,-1.0070954451819034
1539732000150755,-0.3967345693140487,-0.09155413138023505,-1.1902037079423735
1539732000166741,-0.213626306553806,-0.2746623941404778,-1.1291676203554744
1539732000182726,0.33569848172737693,-0.33569848172737693,-0.7629510948347615
1539732000198712,0.7019150072480898,-0.03051804379333589,-0.5188067444876197
1539732000214698,0.5798428320745188,-0.09155413138023505,-0.5798428320745188
1539732000230684,0.7019150072480898,-0.213626306553806,-0.7019150072480898
1539732000246670,0.7629510948347615,-0.03051804379333589,-0.7019150072480898
1539732000262656,0.7629510948347615,-0.09155413138023505,-0.45777065690094787
1539732000278625,0.6408789196611906,0.15259021896690683,-0.33569848172737693
1539732000294611,0.45777065690094787,0.213626306553806,-0.5188067444876197
1539732000310597,0.45777065690094787,0.09155413138023505,-0.7629510948347615
1539732000326583,0.213626306553806,0.3967345693140487,-0.8239871824216607
1539732000342569,-0.213626306553806,0.33569848172737693,-0.9460593575952316
1539732000358555,-0.2746623941404778,0.2746623941404778,-1.0681315327688026
1539732000374541,-0.2746623941404778,0.5798428320745188,-1.0070954451819034
1539732000390527,-0.213626306553806,0.5798428320745188,-1.0070954451819034
1539732000406513,-0.03051804379333589,0.7019150072480898,-0.9460593575952316
1539732000422499,-0.09155413138023505,0.7629510948347615,-1.0681315327688026
1539732000438485,0.03051804379333589,0.5798428320745188,-1.1902037079423735
1539732000454471,0.15259021896690683,0.5798428320745188,-1.1291676203554744
1539732000470457,0.15259021896690683,0.5798428320745188,-1.0070954451819034
1539732000486443,0.2746623941404778,0.3967345693140487,-0.9460593575952316
1539732000502429,0.3967345693140487,0.3967345693140487,-0.9460593575952316
1539732000518415,0.33569848172737693,0.213626306553806,-0.7629510948347615
1539732000534401,0.15259021896690683,0.2746623941404778,-0.5798428320745188
1539732000550387,0.09155413138023505,0.3967345693140487,-0.3967345693140487
1539732000566372,0.15259021896690683,0.2746623941404778,-0.5798428320745188
1539732000582358,0.09155413138023505,0.2746623941404778,-0.6408789196611906
1539732000598358,-0.03051804379333589,0.2746623941404778,-0.7019150072480898
1539732000614344,0.03051804379333589,0.09155413138023505,-0.9460593575952316
1539732000630330,0.09155413138023505,0.15259021896690683,-1.2512397955290453
1539732000646316,0.09155413138023505,0.33569848172737693,-1.1902037079423735
1539732000662302,0.213626306553806,0.45777065690094787,-0.8850232700083325
1539732000678288,0.33569848172737693,0.5188067444876197,-0.8239871824216607
1539732000694274,0.213626306553806,0.2746623941404778,-1.0681315327688026
1539732000710260,0.03051804379333589,0.09155413138023505,-1.2512397955290453
1539732000726246,0.09155413138023505,0.15259021896690683,-1.1291676203554744
1539732000742231,0.09155413138023505,0.2746623941404778,-0.8239871824216607
1539732000758217,0.213626306553806,0.33569848172737693,-0.7019150072480898
1539732000774203,0.33569848172737693,0.3967345693140487,-0.7629510948347615
1539732000790189,0.15259021896690683,0.33569848172737693,-0.8850232700083325
1539732000806175,0.09155413138023505,0.2746623941404778,-0.9460593575952316
1539732000822161,0.15259021896690683,0.3967345693140487,-0.8239871824216607
1539732000838147,0.3967345693140487,0.3967345693140487,-0.45777065690094787
1539732000854133,0.3967345693140487,0.3967345693140487,-0.45777065690094787
1539732000870119,0.213626306553806,0.213626306553806,-0.7019150072480898
1539732000886105,0.15259021896690683,-0.03051804379333589,-0.9460593575952316
1539732000902091,0.15259021896690683,-0.15259021896690683,-0.7629510948347615
1539732000918090,0.15259021896690683,0.03051804379333589,-0.5188067444876197
1539732000934076,0.2746623941404778,0.213626306553806,-0.3967345693140487
1539732000950062,0.09155413138023505,0.15259021896690683,-0.45777065690094787
1539732000966048,0.15259021896690683,0.09155413138023505,-0.6408789196611906
1539732000982034,0.213626306553806,0.213626306553806,-1.0070954451819034
1539732000998020,0.15259021896690683,0.33569848172737693,-1.0681315327688026
1539732001014006,0.15259021896690683,0.45777065690094787,-1.0681315327688026
1539732001029992,0.2746623941404778,0.5188067444876197,-1.1902037079423735
1539732001045978,0.15259021896690683,0.6408789196611906,-1.1291676203554744
1539732001061964,0.15259021896690683,0.7019150072480898,-1.0681315327688026
1539732001077950,0.15259021896690683,0.5798428320745188,-1.0070954451819034
1539732001093936,0.09155413138023505,0.45777065690094787,-1.0681315327688026
1539732001109922,0.03051804379333589,0.33569848172737693,-0.9460593575952316
1539732001125908,0.03051804379333589,0.2746623941404778,-0.7019150072480898
1539732001141894,-0.03051804379333589,0.2746623941404778,-0.5188067444876197
1539732001157880,-0.03051804379333589,0.15259021896690683,-0.5798428320745188
1539732001173866,-0.09155413138023505,0.2746623941404778,-0.7019150072480898
1539732001189852,-0.09155413138023505,0.213626306553806,-0.6408789196611906
1539732001205838,-0.03051804379333589,0.3967345693140487,-0.7019150072480898
1539732001221824,0.03051804379333589,0.3967345693140487,-0.8850232700083325
1539732001237793,0.03051804379333589,0.5188067444876197,-0.9460593575952316
1539732001253779,0.03051804379333589,0.5188067444876197,-1.0681315327688026
1539732001269765,0.2746623941404778,0.5798428320745188,-1.1291676203554744
1539732001285750,0.33569848172737693,0.8239871824216607,-1.0070954451819034
1539732001301736,0.3967345693140487,0.8850232700083325,-0.8850232700083325
1539732001317722,0.2746623941404778,0.7629510948347615,-0.8239871824216607
1539732001333708,0.2746623941404778,0.5798428320745188,-1.0070954451819034
1539732001349694,0.2746623941404778,0.45777065690094787,-0.9460593575952316
1539732001365680,0.2746623941404778,0.5188067444876197,-0.6408789196611906
1539732001381666,0.33569848172737693,0.3967345693140487,-0.5188067444876197
1539732001397652,0.15259021896690683,0.33569848172737693,-0.7019150072480898
1539732001413638,-0.03051804379333589,0.09155413138023505,-0.8239871824216607
1539732001429624,-0.03051804379333589,0.03051804379333589,-0.7629510948347615
1539732001445610,-0.03051804379333589,0.2746623941404778,-0.5798428320745188
1539732001461596,-0.15259021896690683,0.213626306553806,-0.5188067444876197
1539732001477582,-0.09155413138023505,0.213626306553806,-0.7019150072480898
1539732001493568,0.03051804379333589,0.2746623941404778,-0.8850232700083325
1539732001509554,0.03051804379333589,0.2746623941404778,-0.9460593575952316
1539732001525540,0.09155413138023505,0.45777065690094787,-0.9460593575952316
1539732001541526,0.15259021896690683,0.5798428320745188,-1.0070954451819034
1539732001557525,0.2746623941404778,0.6408789196611906,-1.0681315327688026
1539732001573511,0.45777065690094787,0.7019150072480898,-1.0070954451819034
1539732001589497,0.5188067444876197,0.7629510948347615,-0.8239871824216607
1539732001605483,0.3967345693140487,0.7629510948347615,-0.7019150072480898
1539732001621469,0.15259021896690683,0.7019150072480898,-0.7629510948347615
1539732001637455,-0.09155413138023505,0.5188067444876197,-1.0070954451819034
1539732001653441,-0.15259021896690683,0.3967345693140487,-1.2512397955290453
1539732001669427,-0.09155413138023505,0.5188067444876197,-1.1291676203554744
1539732001685413,0.09155413138023505,0.45777065690094787,-0.8850232700083325
1539732001701399,0.2746623941404778,0.5798428320745188,-0.7019150072480898
1539732001717385,0.15259021896690683,0.5188067444876197,-0.6408789196611906
1539732001733371,-0.03051804379333589,0.3967345693140487,-0.8239871824216607
1539732001749357,-0.03051804379333589,0.33569848172737693,-0.8850232700083325
1539732001765343,0.09155413138023505,0.45777065690094787,-0.8850232700083325
1539732001781329,0.15259021896690683,0.5188067444876197,-0.7629510948347615
1539732001797315,0.15259021896690683,0.5188067444876197,-0.7629510948347615
1539732001813301,0.09155413138023505,0.6408789196611906,-0.8239871824216607
1539732001829287,0.15259021896690683,0.7019150072480898,-0.9460593575952316
1539732001845273,0.2746623941404778,0.5798428320745188,-1.0070954451819034
1539732001861259,0.33569848172737693,0.45777065690094787,-1.0681315327688026
1539732001877227,0.2746623941404778,0.5798428320745188,-0.8850232700083325
1539732001893213,0.213626306553806,0.6408789196611906,-0.8239871824216607
1539732001909199,-0.03051804379333589,0.5188067444876197,-0.8850232700083325
1539732001925185,-0.15259021896690683,0.45777065690094787,-0.9460593575952316
1539732001941171,-0.15259021896690683,0.45777065690094787,-0.8850232700083325
1539732001957157,-0.15259021896690683,0.5188067444876197,-0.8850232700083325
1539732001973143,-0.03051804379333589,0.7019150072480898,-1.0070954451819034
1539732001989129,0.15259021896690683,0.7629510948347615,-1.0681315327688026
1539732002005115,0.15259021896690683,0.7629510948347615,-1.1902037079423735
1539732002021101,0.09155413138023505,0.8850232700083325,-1.2512397955290453
1539732002037087,0.09155413138023505,1.0070954451819034,-1.2512397955290453
1539732002053073,0.213626306553806,1.0070954451819034,-1.0681315327688026
1539732002069059,0.33569848172737693,0.8850232700083325,-1.0681315327688026
1539732002085045,0.213626306553806,0.8239871824216607,-1.0070954451819034
1539732002101031,0.15259021896690683,0.5188067444876197,-1.0070954451819034
1539732002117017,0.03051804379333589,0.3967345693140487,-1.0681315327688026
1539732002133003,0.03051804379333589,0.15259021896690683,-0.8850232700083325
1539732002148989,-0.03051804379333589,-0.03051804379333589,-0.8239871824216607
1539732002164975,-0.03051804379333589,-0.15259021896690683,-0.7629510948347615
1539732002180961,0.03051804379333589,-0.213626306553806,-0.5798428320745188
1539732002196960,0.2746623941404778,-0.213626306553806,-0.45777065690094787
1539732002212946,0.45777065690094787,-0.213626306553806,-0.3967345693140487
1539732002228932,0.3967345693140487,-0.15259021896690683,-0.3967345693140487
1539732002244918,0.5188067444876197,-0.09155413138023505,-0.33569848172737693
1539732002260904,0.7019150072480898,0.09155413138023505,-0.3967345693140487
1539732002276890,0.6408789196611906,0.213626306553806,-0.5798428320745188
1539732002292876,0.5188067444876197,0.33569848172737693,-0.8239871824216607
1539732002308862,0.15259021896690683,0.45777065690094787,-1.1291676203554744
1539732002324848,0.03051804379333589,0.6408789196611906,-1.0681315327688026
1539732002340834,-0.03051804379333589,0.7019150072480898,-1.0681315327688026
1539732002356820,-0.03051804379333589,0.6408789196611906,-1.0681315327688026
1539732002372806,-0.09155413138023505,0.6408789196611906,-1.1902037079423735
1539732002388792,-0.09155413138023505,0.5798428320745188,-1.2512397955290453
1539732002404778,-0.03051804379333589,0.5798428320745188,-1.3122758831159445
1539732002420764,-0.03051804379333589,0.3967345693140487,-1.2512397955290453
1539732002436750,0.09155413138023505,0.33569848172737693,-1.0070954451819034
1539732002452736,0.213626306553806,0.3967345693140487,-0.8239871824216607
1539732002468721,0.15259021896690683,0.3967345693140487,-0.7629510948347615
1539732002484707,0.15259021896690683,0.5188067444876197,-0.8239871824216607
1539732002500693,0.15259021896690683,0.5798428320745188,-1.0681315327688026
1539732002516662,0.213626306553806,0.5798428320745188,-1.1291676203554744
1539732002532648,0.15259021896690683,0.7629510948347615,-1.1902037079423735
1539732002548634,0.213626306553806,0.6408789196611906,-1.0681315327688026
1539732002564620,0.33569848172737693,0.7629510948347615,-1.1291676203554744
1539732002580606,0.2746623941404778,0.5798428320745188,-1.0681315327688026
1539732002596592,0.33569848172737693,0.45777065690094787,-0.9460593575952316
1539732002612578,0.2746623941404778,0.33569848172737693,-0.8239871824216607
1539732002628564,0.15259021896690683,0.09155413138023505,-0.7629510948347615
1539732002644550,0.2746623941404778,-0.03051804379333589,-0.6408789196611906
1539732002660536,0.2746623941404778,0.03051804379333589,-0.5798428320745188
1539732002676522,0.2746623941404778,0.03051804379333589,-0.5188067444876197
1539732002692508,0.213626306553806,-0.03051804379333589,-0.5798428320745188
1539732002708494,0.213626306553806,-0.03051804379333589,-0.7019150072480898
1539732002724480,0.15259021896690683,-0.03051804379333589,-0.7629510948347615
1539732002740466,0.09155413138023505,-0.03051804379333589,-0.7019150072480898
1539732002756452,0.213626306553806,0.03051804379333589,-0.7629510948347615
1539732002772438,0.2746623941404778,0.15259021896690683,-0.7629510948347615
1539732002788424,0.213626306553806,0.33569848172737693,-0.6408789196611906
1539732002804410,0.213626306553806,0.2746623941404778,-0.7019150072480898
1539732002820396,0.213626306553806,0.2746623941404778,-0.7629510948347615
1539732002836395,0.2746623941404778,0.33569848172737693,-0.7629510948347615
1539732002852381,0.33569848172737693,0.3967345693140487,-0.8850232700083325
1539732002868367,0.3967345693140487,0.213626306553806,-0.9460593575952316
1539732002884353,0.45777065690094787,0.5188067444876197,-0.8850232700083325
1539732002900339,0.15259021896690683,0.7019150072480898,-0.8239871824216607
1539732002916325,0.15259021896690683,0.6408789196611906,-0.9460593575952316
1539732002932311,0.15259021896690683,0.7629510948347615,-1.1902037079423735
1539732002948297,0.03051804379333589,0.6408789196611906,-1.2512397955290453
1539732002964283,-0.09155413138023505,0.7019150072480898,-1.1291676203554744
1539732002980269,-0.03051804379333589,0.7019150072480898,-1.0070954451819034
1539732002996255,-0.03051804379333589,0.7019150072480898,-0.9460593575952316
1539732003012241,-0.03051804379333589,0.7629510948347615,-1.0070954451819034
1539732003028226,-0.03051804379333589,0.6408789196611906,-1.1291676203554744
1539732003044212,-0.03051804379333589,0.5798428320745188,-1.1291676203554744
1539732003060198,0.15259021896690683,0.6408789196611906,-1.0070954451819034
1539732003076184,0.213626306553806,0.5798428320745188,-0.9460593575952316
1539732003092170,0.213626306553806,0.45777065690094787,-1.0070954451819034
1539732003108156,0.2746623941404778,0.213626306553806,-0.8850232700083325
1539732003124142,0.45777065690094787,0.33569848172737693,-0.6408789196611906
1539732003140128,0.45777065690094787,0.33569848172737693,-0.5188067444876197
1539732003156097,0.5188067444876197,0.213626306553806,-0.45777065690094787
1539732003172083,0.45777065690094787,0.15259021896690683,-0.45777065690094787
1539732003188069,0.33569848172737693,0.09155413138023505,-0.5798428320745188
1539732003204055,0.2746623941404778,-0.03051804379333589,-0.7629510948347615
1539732003220041,0.33569848172737693,0.09155413138023505,-0.8239871824216607
1539732003236027,0.15259021896690683,0.09155413138023505,-0.9460593575952316
1539732003252013,-0.03051804379333589,0.2746623941404778,-1.0070954451819034
1539732003267999,-0.03051804379333589,0.45777065690094787,-0.9460593575952316
1539732003283985,0.03051804379333589,0.5798428320745188,-0.9460593575952316
1539732003299971,-0.09155413138023505,0.7019150072480898,-1.0681315327688026
1539732003315957,-0.15259021896690683,0.6408789196611906,-1.2512397955290453
1539732003331943,-0.09155413138023505,0.6408789196611906,-1.4343480582895154
1539732003347929,-0.09155413138023505,0.5798428320745188,-1.4343480582895154
1539732003363915,-0.03051804379333589,0.6408789196611906,-1.3122758831159445
1539732003379901,-0.09155413138023505,0.5798428320745188,-1.1902037079423735
1539732003395887,-0.03051804379333589,0.6408789196611906,-1.0681315327688026
1539732003411872,0.03051804379333589,0.6408789196611906,-1.0070954451819034
1539732003427858,0.09155413138023505,0.6408789196611906,-0.8850232700083325
1539732003443844,0.213626306553806,0.5798428320745188,-0.8239871824216607
1539732003459830,0.213626306553806,0.5188067444876197,-1.0070954451819034
1539732003475830,0.15259021896690683,0.3967345693140487,-1.1291676203554744
1539732003491816,0.213626306553806,0.3967345693140487,-1.0070954451819034
1539732003507802,0.213626306553806,0.5188067444876197,-0.7019150072480898
1539732003523788,0.2746623941404778,0.5798428320745188,-0.5188067444876197
1539732003539774,0.213626306553806,0.5188067444876197,-0.6408789196611906
1539732003555760,0.213626306553806,0.45777065690094787,-0.8239871824216607
1539732003571745,0.09155413138023505,0.3967345693140487,-0.8850232700083325
1539732003587731,0.03051804379333589,0.2746623941404778,-0.8850232700083325
1539732003603717,0.03051804379333589,0.33569848172737693,-0.8850232700083325
1539732003619703,0.03051804379333589,0.2746623941404778,-0.8850232700083325
1539732003635689,0.15259021896690683,0.2746623941404778,-0.7019150072480898
1539732003651675,0.2746623941404778,0.2746623941404778,-0.5798428320745188
1539732003667661,0.33569848172737693,0.2746623941404778,-0.5798428320745188
1539732003683647,0.213626306553806,0.3967345693140487,-0.5798428320745188
1539732003699633,0.03051804379333589,0.2746623941404778,-0.6408789196611906
1539732003715619,0.09155413138023505,0.213626306553806,-0.7629510948347615
1539732003731605,0.213626306553806,0.3967345693140487,-0.7629510948347615
1539732003747591,0.2746623941404778,0.5798428320745188,-0.5188067444876197
1539732003763577,0.213626306553806,0.8239871824216607,-0.5188067444876197
1539732003779563,0.213626306553806,0.7019150072480898,-0.7629510948347615
1539732003795532,0.15259021896690683,0.7019150072480898,-1.0681315327688026
1539732003811518,0.15259021896690683,0.6408789196611906,-1.1902037079423735
1539732003827504,0.213626306553806,0.8850232700083325,-1.1291676203554744
1539732003843490,0.33569848172737693,1.0070954451819034,-1.0681315327688026
1539732003859476,0.2746623941404778,1.0070954451819034,-1.1291676203554744
1539732003875462,0.09155413138023505,0.8850232700083325,-1.2512397955290453
1539732003891448,0.03051804379333589,0.7629510948347615,-1.2512397955290453
1539732003907434,0.09155413138023505,0.6408789196611906,-1.2512397955290453
1539732003923420,0.15259021896690683,0.6408789196611906,-1.0681315327688026
1539732003939406,0.15259021896690683,0.45777065690094787,-0.7629510948347615
1539732003955392,0.09155413138023505,0.3967345693140487,-0.7019150072480898
1539732003971377,0.03051804379333589,0.213626306553806,-0.7019150072480898
1539732003987363,0.03051804379333589,0.15259021896690683,-0.7019150072480898
1539732004003349,0.09155413138023505,0.09155413138023505,-0.5798428320745188
1539732004019335,0.2746623941404778,0.09155413138023505,-0.5188067444876197
1539732004035321,0.33569848172737693,0.09155413138023505,-0.5798428320745188
1539732004051307,0.33569848172737693,0.03051804379333589,-0.5798428320745188
