Timestamp (microseconds),Accel X (g),Accel Y (g),Accel Z (g)
1539131332132171,-0.17816433966582723,0.7500724803540093,-0.6579079880979628
1539131332148172,-0.17596704051270295,0.758129243915465,-0.6594949263752192
1539131332164174,-0.1779201953154801,0.756420233463035,-0.6618142977035171
1539131332180175,-0.1745021744106201,0.7533684290836957,-0.6623025864042114
1539131332196176,-0.1745021744106201,0.7417715724422065,-0.6554665445944914
1539131332212177,-0.1715724422064544,0.7450675211718929,-0.6491187914854657
1539131332228179,-0.17682154573891795,0.7374990463111315,-0.6378881513694972
1539131332244180,-0.17303730830853725,0.7345693141069658,-0.6365453574425879
1539131332260181,-0.1669336995498587,0.7412832837415122,-0.63764400701915
1539131332276182,-0.1715724422064544,0.7456778820477608,-0.6387426565957122
1539131332292184,-0.1753566796368351,0.7439688715953308,-0.6489967193102921
1539131332308185,-0.18219272144655507,0.7431143663691158,-0.6536354619668878
1539131332324186,-0.18658731975280363,0.7477531090257115,-0.65473411154345
1539131332340187,-0.1890287632562755,0.7443350881208515,-0.6566872663462271
1539131332356188,-0.18719768062867148,0.7466544594491493,-0.657297627222095
1539131332372190,-0.1812161440451665,0.7468986037994965,-0.6540016784924085
1539131332388191,-0.18072785534447222,0.7472648203250172,-0.64960708018616
1539131332404192,-0.1803616388189515,0.7484855420767529,-0.6452124818799114
1539131332420193,-0.18365758754863792,0.7493400473029679,-0.6448462653543907
1539131332436195,-0.19269092851148262,0.74531166552224,-0.6469214923323414
1539131332452179,-0.19501029983978047,0.7525139238574807,-0.6494850080109864
1539131332468180,-0.1957427328908219,0.7482413977264057,-0.6531471732661935
1539131332484181,-0.19256885633630905,0.7412832837415122,-0.6548561837186235
1539131332500182,-0.18780804150453978,0.7365224689097429,-0.6516823071641107
1539131332516183,-0.1829251544975965,0.7394522011139086,-0.6438696879530021
1539131332532185,-0.1841458762493322,0.7404287785152972,-0.6405737392233157
1539131332548186,-0.17840848401617437,0.7385976958876936,-0.6405737392233157
1539131332564187,-0.1791409170672158,0.7449454489967193,-0.64106202792401
1539131332580188,-0.1858548867017622,0.7407949950408179,-0.6416723887998779
1539131332596190,-0.18451209277485292,0.7505607690547036,-0.6474097810330357
1539131332612191,-0.18524452582589435,0.7566643778133821,-0.6541237506675821
1539131332628192,-0.17486839093614082,0.7602044708934157,-0.6636453803311206
1539131332644193,-0.17315938048371082,0.7595941100175478,-0.6680399786373692
1539131332660194,-0.17096208133058655,0.7610589761196307,-0.6673075455863278
1539131332676196,-0.16717784390020585,0.7617914091706721,-0.6631570916304264
1539131332692197,-0.16498054474708157,0.7551995117112993,-0.6585183489738307
1539131332708198,-0.16729991607537942,0.74531166552224,-0.6514381628137635
1539131332724199,-0.1727931639581901,0.7373769741359579,-0.6417944609750514
1539131332740201,-0.1770656900892651,0.7317616540779737,-0.6321507591363393
1539131332756202,-0.18023956664377794,0.7342030975814451,-0.6271457999542229
1539131332772186,-0.1795071335927365,0.7354238193331808,-0.6293430991073472
1539131332788187,-0.18182650492103436,0.7404287785152972,-0.6354467078660258
1539131332804188,-0.19183642328526762,0.7432364385442893,-0.641916533150225
1539131332820190,-0.20148012512397973,0.7515373464560922,-0.6469214923323414
1539131332836191,-0.20440985732814543,0.7539787899595636,-0.6533913176165407
1539131332852192,-0.2024567025253683,0.7537346456092164,-0.6609597924773021
1539131332868193,-0.1990386816205083,0.7532463569085222,-0.6619363698786906
1539131332884194,-0.1943999389639126,0.7533684290836957,-0.6561989776455328
1539131332900196,-0.19562066071564832,0.7560540169375143,-0.6489967193102921
1539131332916197,-0.19757381551842546,0.7516594186312657,-0.64789806973373
1539131332932198,-0.2033112077515833,0.7482413977264057,-0.6463111314564736
1539131332948199,-0.20306706340123615,0.7482413977264057,-0.6510719462882428
1539131332964201,-0.19684138246738403,0.7486076142519265,-0.6480201419089036
1539131332980202,-0.19549858854047475,0.7455558098725872,-0.6394750896467536
1539131332996203,-0.19501029983978047,0.7466544594491493,-0.6361791409170672
1539131333012204,-0.18524452582589435,0.7565423056382086,-0.645334554055085
1539131333028205,-0.17645532921339724,0.7652094300755321,-0.6592507820248721
1539131333044207,-0.17645532921339724,0.7633783474479285,-0.674631876096742
1539131333060208,-0.18219272144655507,0.7626459143968871,-0.6765850308995192
1539131333076209,-0.1973296711680783,0.7594720378423743,-0.6709697108415349
1539131333092285,-0.20502021820401328,0.75385671778439,-0.6576638437476157
1539131333108286,-0.1981841763942933,0.7488517586022736,-0.6480201419089036
1539131333124287,-0.17376974135957868,0.7399404898146029,-0.6432593270771343
1539131333140288,-0.16424811169604014,0.729686427100023,-0.6321507591363393
1539131333156290,-0.16461432822156086,0.7208972304875259,-0.6209201190203708
1539131333172291,-0.15667963683527875,0.7182116426337073,-0.6161593041886015
1539131333188292,-0.15411612115663376,0.7207751583123523,-0.6153047989623865
1539131333204293,-0.15033188372625306,0.7299305714503701,-0.6262912947280079
1539131333220295,-0.15167467765316234,0.7360341802090486,-0.63935301747158
1539131333236296,-0.16534676127260228,0.7464103150988022,-0.6465552758068207
1539131333252297,-0.17975127794308365,0.75385671778439,-0.6597390707255664
1539131333268298,-0.18451209277485292,0.7619134813458457,-0.6684061951628899
1539131333284299,-0.19122606240939977,0.7635004196231021,-0.6726787212939649
1539131333300301,-0.19501029983978047,0.7610589761196307,-0.6742656595712213
1539131333316302,-0.1965972381170369,0.7565423056382086,-0.6679179064621956
1539131333332303,-0.1998931868467233,0.7541008621347371,-0.6576638437476157
1539131333348304,-0.20563057907988114,0.7490959029526207,-0.6461890592813
1539131333364306,-0.20172426947432687,0.7488517586022736,-0.6397192339971007
1539131333380307,-0.2066071564812697,0.7376211184863051,-0.6381322957198443
1539131333396308,-0.19977111467154973,0.7311512932021058,-0.6365453574425879
1539131333412414,-0.19769588769359903,0.7301747158007172,-0.6297093156328679
1539131333428416,-0.1957427328908219,0.7328603036545358,-0.6249485008010986
1539131333444418,-0.1919584954604412,0.7366445410849165,-0.6298313878080415
1539131333460419,-0.19537651636530118,0.74360265506981,-0.6438696879530021
1539131333476421,-0.1867093919279772,0.7492179751277943,-0.6533913176165407
1539131333492423,-0.18048371099412508,0.7560540169375143,-0.6638895246814678
1539131333508424,-0.17486839093614082,0.75898374914168,-0.6681620508125428
1539131333524426,-0.16754406042572656,0.7622796978713664,-0.6657206073090713
1539131333540428,-0.17084000915541298,0.7577630273899443,-0.6582742046234835
1539131333556429,-0.16424811169604014,0.7544670786602579,-0.657297627222095
1539131333572431,-0.16241702906843658,0.7459220263981079,-0.6541237506675821
1539131333588433,-0.15887693598840302,0.7398184176394293,-0.6443579766536964
1539131333604435,-0.1564354924849316,0.7349355306324865,-0.6352025635156786
1539131333620436,-0.16412603952086657,0.7355458915083544,-0.6260471503776608
1539131333636438,-0.16815442130159441,0.7383535515373465,-0.6267795834287022
1539131333652440,-0.17462424658579367,0.7487296864271,-0.6404516670481422
1539131333668441,-0.18475623712520006,0.7510490577553979,-0.6536354619668878
1539131333684443,-0.19598687724116903,0.7559319447623407,-0.6651102464332035
1539131333700445,-0.19537651636530118,0.7626459143968871,-0.667795834287022
1539131333716447,-0.18719768062867148,0.7575188830395971,-0.6655985351338978
1539131333732513,-0.17975127794308365,0.7583733882658121,-0.6536354619668878
1539131333748515,-0.1779201953154801,0.7560540169375143,-0.6460669871061264
1539131333764517,-0.18011749446860437,0.7464103150988022,-0.6387426565957122
1539131333780520,-0.18109407186999293,0.7374990463111315,-0.6341039139391165
1539131333796522,-0.18316929884794364,0.7320057984283208,-0.6305638208590829
1539131333812524,-0.18426794842450578,0.7320057984283208,-0.6287327382314793
1539131333828526,-0.18451209277485292,0.7370107576104372,-0.6314183260852979
1539131333844528,-0.17181658655680154,0.7490959029526207,-0.6338597695887693
1539131333860530,-0.17352559700923154,0.7517814908064393,-0.6459449149309529
1539131333876533,-0.18097199969481936,0.7571526665140764,-0.6535133897917142
1539131333892535,-0.19244678416113548,0.76069275959411,-0.6597390707255664
1539131333908537,-0.1981841763942933,0.7608148317692836,-0.6624246585793849
1539131333924539,-0.1914702067597469,0.761547264820325,-0.6658426794842449
1539131333940541,-0.18243686579690221,0.7616693369954985,-0.6635233081559471
1539131333956544,-0.17547875181200867,0.7605706874189364,-0.6594949263752192
1539131333972546,-0.16974135957885084,0.7499504081788357,-0.6543678950179292
1539131333988548,-0.16681162737468513,0.7466544594491493,-0.6417944609750514
1539131334004550,-0.17315938048371082,0.7433585107194629,-0.6278782330052644
1539131334020552,-0.17901884489204223,0.7384756237125201,-0.6215304798962387
1539131334036554,-0.18048371099412508,0.7372549019607844,-0.6243381399252308
1539131334052612,-0.18634317540245648,0.7425040054932479,-0.6337376974135958
1539131334068614,-0.1832913710231172,0.7462882429236286,-0.6426489662012664
1539131334084616,-0.1774319066147858,0.7558098725871671,-0.6508278019378957
1539131334100618,-0.18060578316929865,0.7605706874189364,-0.6514381628137635
1539131334116621,-0.18390173189898507,0.7608148317692836,-0.6549782558937971
1539131334132623,-0.18609903105210934,0.7617914091706721,-0.6540016784924085
1539131334148625,-0.18158236057068722,0.7597161821927214,-0.6541237506675821
1539131334164627,-0.18512245365072078,0.7558098725871671,-0.6549782558937971
1539131334180629,-0.1820706492713815,0.7560540169375143,-0.6510719462882428
1539131334196632,-0.1914702067597469,0.7519035629816129,-0.64448004882887
1539131334212634,-0.1923247119859619,0.7508049134050507,-0.6394750896467536
1539131334228636,-0.18182650492103436,0.7475089646753643,-0.6365453574425879
1539131334244638,-0.18487830930037363,0.7459220263981079,-0.6339818417639429
1539131334260640,-0.1832913710231172,0.7494621194781415,-0.6341039139391165
1539131334276642,-0.18536659800106792,0.7528801403830014,-0.6383764400701915
1539131334292645,-0.18060578316929865,0.7486076142519265,-0.6476539253833828
1539131334308647,-0.18280308232242293,0.7534905012588693,-0.6544899671931028
1539131334324649,-0.17926298924238937,0.7577630273899443,-0.6591287098496985
1539131334340651,-0.1749904631113144,0.7599603265430686,-0.6574196993972685
1539131334356653,-0.16534676127260228,0.7638666361486228,-0.6526588845654993
1539131334372741,-0.15802243076218803,0.7595941100175478,-0.6475318532082093
1539131334388744,-0.16546883344777585,0.7528801403830014,-0.6411841000991836
1539131334404747,-0.17547875181200867,0.7509269855802243,-0.6422827496757457
1539131334420749,-0.1727931639581901,0.7455558098725872,-0.6391088731212329
1539131334436752,-0.16668955519951156,0.7456778820477608,-0.6343480582894636
1539131334452755,-0.17523460746166153,0.7438467994201572,-0.631662470435645
1539131334468757,-0.18280308232242293,0.7409170672159915,-0.6345922026398108
1539131334484760,-0.18475623712520006,0.7433585107194629,-0.6371557183184557
1539131334500763,-0.18915083543144906,0.7462882429236286,-0.6389868009460593
1539131334516765,-0.1870756084534979,0.7472648203250172,-0.638498512245365
1539131334532768,-0.1812161440451665,0.7553215838864729,-0.6398413061722743
1539131334548771,-0.1867093919279772,0.7523918516823072,-0.6447241931792171
1539131334564773,-0.19085984588387905,0.754711223010605,-0.64960708018616
1539131334580776,-0.19012741283283763,0.7576409552147707,-0.6526588845654993
1539131334596778,-0.18487830930037363,0.7554436560616464,-0.6549782558937971
1539131334612781,-0.1867093919279772,0.7514152742809186,-0.6519264515144578
1539131334628784,-0.1791409170672158,0.7539787899595636,-0.6489967193102921
1539131334644786,-0.17401388570992582,0.7561760891126879,-0.6442359044785229
1539131334660789,-0.16754406042572656,0.7558098725871671,-0.6465552758068207
1539131334676792,-0.16388189517051943,0.7566643778133821,-0.6507057297627221
1539131334692810,-0.16546883344777585,0.7532463569085222,-0.6508278019378957
1539131334708812,-0.1686427100022887,0.751293202105745,-0.6471656366826886
1539131334724815,-0.17169451438162797,0.7473868925001907,-0.638498512245365
1539131334740818,-0.1753566796368351,0.7466544594491493,-0.633371480888075
1539131334756820,-0.16888685435263584,0.7456778820477608,-0.6321507591363393
1539131334772823,-0.17059586480506583,0.7484855420767529,-0.6322728313115129
1539131334788826,-0.18439002059967935,0.744457160296025,-0.6369115739681086
1539131334804828,-0.19293507286182976,0.74531166552224,-0.6405737392233157
1539131334820831,-0.18719768062867148,0.7519035629816129,-0.6464332036316471
1539131334836834,-0.17840848401617437,0.7522697795071336,-0.6497291523613336
1539131334852836,-0.18182650492103436,0.7527580682078279,-0.6459449149309529
1539131334868839,-0.1787747005416951,0.7560540169375143,-0.64277103837644
1539131334884842,-0.1832913710231172,0.7576409552147707,-0.6443579766536964
1539131334900844,-0.18646524757763006,0.7550774395361257,-0.6477759975585564
1539131334916847,-0.18915083543144906,0.7602044708934157,-0.6494850080109864
1539131334932850,-0.1981841763942933,0.7613031204699778,-0.6522926680399785
1539131334948852,-0.19842832074464045,0.7567864499885557,-0.6552224002441442
1539131334964855,-0.1957427328908219,0.7522697795071336,-0.6498512245365071
1539131334980857,-0.18744182497901862,0.7515373464560922,-0.643625543602655
1539131334996860,-0.18609903105210934,0.7516594186312657,-0.6400854505226214
1539131335012939,-0.18719768062867148,0.7489738307774472,-0.6387426565957122
1539131335028942,-0.1829251544975965,0.7522697795071336,-0.6369115739681086
1539131335044945,-0.1812161440451665,0.7505607690547036,-0.6387426565957122
1539131335060948,-0.1799954222934308,0.7464103150988022,-0.6392309452964064
1539131335076952,-0.17901884489204223,0.7407949950408179,-0.6392309452964064
1539131335092955,-0.17938506141756294,0.7405508506904708,-0.63593499656672
1539131335108958,-0.17511253528648796,0.7429922941939422,-0.6347142748149843
1539131335124961,-0.17816433966582723,0.7543450064850843,-0.636789501792935
1539131335140964,-0.18475623712520006,0.7578850995651178,-0.6406958113984893
1539131335156967,-0.18243686579690221,0.7643549248493171,-0.6492408636606393
1539131335172970,-0.18731975280384505,0.7648432135500114,-0.6531471732661935
1539131335188974,-0.1870756084534979,0.7630121309224078,-0.6582742046234835
1539131335204977,-0.18524452582589435,0.7636224917982757,-0.6599832150759135
1539131335220980,-0.1832913710231172,0.7543450064850843,-0.6588845654993514
1539131335236983,-0.17962920576791008,0.7489738307774472,-0.6489967193102921
1539131335252986,-0.1837796597238115,0.7431143663691158,-0.6348363469901579
1539131335268989,-0.18365758754863792,0.7437247272449836,-0.6254367895017929
1539131335284992,-0.18756389715419264,0.7455558098725872,-0.6244602121004044
1539131335300995,-0.18365758754863792,0.7448233768215458,-0.6270237277790494
1539131335316999,-0.1820706492713815,0.7468986037994965,-0.6331273365377279
1539131335333038,-0.18255893797207579,0.7434805828946365,-0.636789501792935
1539131335349041,-0.1774319066147858,0.7501945525291829,-0.64106202792401
1539131335365044,-0.18268101014724936,0.7525139238574807,-0.6467994201571678
1539131335381047,-0.18658731975280363,0.7587396047913328,-0.6519264515144578
1539131335397050,-0.1841458762493322,0.7616693369954985,-0.6565651941710535
1539131335413054,-0.18158236057068722,0.7562981612878614,-0.6535133897917142
1539131335429057,-0.1808499275196458,0.7527580682078279,-0.6432593270771343
1539131335445060,-0.1817044327458608,0.7520256351567864,-0.6331273365377279
1539131335461063,-0.18341344319829078,0.751293202105745,-0.6317845426108186
1539131335477066,-0.18695353627832434,0.7527580682078279,-0.6354467078660258
1539131335493069,-0.18695353627832434,0.754711223010605,-0.6446021210040436
1539131335509072,-0.18805218585488692,0.7522697795071336,-0.6502174410620278
1539131335525076,-0.18829633020523406,0.749584191653315,-0.6465552758068207
1539131335541079,-0.18658731975280363,0.753002212558175,-0.6387426565957122
1539131335557082,-0.1867093919279772,0.7551995117112993,-0.6369115739681086
1539131335573085,-0.18695353627832434,0.7549553673609521,-0.6406958113984893
1539131335589088,-0.1832913710231172,0.7528801403830014,-0.6443579766536964
1539131335605091,-0.17938506141756294,0.7462882429236286,-0.6433813992523079
1539131335621094,-0.18097199969481936,0.7471427481498436,-0.6355687800411993
1539131335637097,-0.17645532921339724,0.7493400473029679,-0.6327611200122072
1539131335653137,-0.17474631876096725,0.7526359960326543,-0.6382543678950179
1539131335669140,-0.17267109178301654,0.7543450064850843,-0.6433813992523079
1539131335685143,-0.17926298924238937,0.7588616769665064,-0.6476539253833828
1539131335701146,-0.1841458762493322,0.7591058213168536,-0.6469214923323414
1539131335717149,-0.1854886701762415,0.7597161821927214,-0.6486305027847714
1539131335733152,-0.18878461890592835,0.75727473868925,-0.6466773479819943
1539131335749156,-0.19073777370870548,0.7562981612878614,-0.6457007705806057
1539131335765159,-0.18182650492103436,0.75727473868925,-0.6458228427557793
1539131335781162,-0.1782864118410008,0.7520256351567864,-0.6433813992523079
1539131335797165,-0.17633325703822367,0.7486076142519265,-0.6400854505226214
1539131335813168,-0.17901884489204223,0.7492179751277943,-0.6330052643625543
1539131335829171,-0.18255893797207579,0.7527580682078279,-0.6305638208590829
1539131335845174,-0.18573281452658863,0.7508049134050507,-0.6326390478370336
1539131335861178,-0.17486839093614082,0.7508049134050507,-0.6381322957198443
1539131335877181,-0.17425803006027296,0.75043869687953,-0.6455786984054321
1539131335893184,-0.1724269474326694,0.75043869687953,-0.6466773479819943
1539131335909187,-0.1712062256809337,0.7534905012588693,-0.6454566262302586
1539131335925190,-0.17230487525749583,0.7575188830395971,-0.6447241931792171
1539131335941193,-0.17303730830853725,0.7600823987182421,-0.6437476157778286
1539131335957196,-0.1890287632562755,0.7544670786602579,-0.6394750896467536
1539131335973266,-0.18780804150453978,0.7542229343099107,-0.6383764400701915
1539131335989270,-0.19330128938735047,0.7497062638284886,-0.6406958113984893
1539131336005273,-0.1885404745555812,0.7462882429236286,-0.6386205844205386
1539131336021277,-0.17889677271686866,0.747875181200885,-0.633371480888075
1539131336037281,-0.17645532921339724,0.7472648203250172,-0.6345922026398108
1539131336053284,-0.18451209277485292,0.7537346456092164,-0.635080491340505
1539131336069288,-0.19208056763561476,0.7543450064850843,-0.636789501792935
1539131336085291,-0.19598687724116903,0.7561760891126879,-0.6424048218509193
1539131336101295,-0.1998931868467233,0.758129243915465,-0.6476539253833828
1539131336117299,-0.19598687724116903,0.7616693369954985,-0.6437476157778286
1539131336133302,-0.19098191805905262,0.7608148317692836,-0.6421606775005722
1539131336149306,-0.17804226749065366,0.7631342030975814,-0.6460669871061264
1539131336165310,-0.17206073090714868,0.7628900587472343,-0.6549782558937971
1539131336181313,-0.17303730830853725,0.75898374914168,-0.6585183489738307
1539131336197317,-0.17401388570992582,0.7533684290836957,-0.6509498741130693
1539131336213320,-0.17694361791409152,0.7525139238574807,-0.63935301747158
1539131336229324,-0.18048371099412508,0.753002212558175,-0.6240939955748837
1539131336245328,-0.17889677271686866,0.7544670786602579,-0.6236057068741894
1539131336261331,-0.1753566796368351,0.7508049134050507,-0.6294651712825208
1539131336277335,-0.1719386587319751,0.7493400473029679,-0.6345922026398108
1539131336293365,-0.17645532921339724,0.7433585107194629,-0.6381322957198443
1539131336309369,-0.1812161440451665,0.7439688715953308,-0.6323949034866865
1539131336325372,-0.18390173189898507,0.7500724803540093,-0.6304417486839093
1539131336341376,-0.17730983443961224,0.7526359960326543,-0.6358129243915465
1539131336357380,-0.18048371099412508,0.7567864499885557,-0.6409399557488364
1539131336373383,-0.1870756084534979,0.7549553673609521,-0.6399633783474479
1539131336389387,-0.19305714503700333,0.7571526665140764,-0.6343480582894636
1539131336405390,-0.19586480506599546,0.7626459143968871,-0.6378881513694972
1539131336421394,-0.19354543373769761,0.75898374914168,-0.64448004882887
1539131336437398,-0.20062561989776473,0.7560540169375143,-0.6471656366826886
1539131336453401,-0.2066071564812697,0.7544670786602579,-0.6415503166247043
1539131336469405,-0.2033112077515833,0.75556572823682,-0.6364232852674143
1539131336485408,-0.19647516594186332,0.7573968108644236,-0.6331273365377279
1539131336501412,-0.1893949797817962,0.759838254367895,-0.64277103837644
1539131336517416,-0.19342336156252404,0.7599603265430686,-0.6466773479819943
1539131336533419,-0.1870756084534979,0.7582513160906386,-0.64789806973373
1539131336549423,-0.17303730830853725,0.7600823987182421,-0.6480201419089036
1539131336565426,-0.161440451667048,0.7543450064850843,-0.6413061722743572
1539131336581430,-0.1555809872587166,0.7566643778133821,-0.6378881513694972
1539131336597434,-0.15948729686427088,0.7583733882658121,-0.6352025635156786
1539131336613494,-0.15777828641184088,0.7532463569085222,-0.6382543678950179
1539131336629499,-0.16559090562294942,0.7527580682078279,-0.6392309452964064
1539131336645503,-0.1770656900892651,0.7475089646753643,-0.6360570687418936
1539131336661507,-0.18793011367971335,0.7580071717402914,-0.6334935530632486
1539131336677511,-0.19842832074464045,0.7543450064850843,-0.6366674296177615
1539131336693515,-0.19891660944533474,0.7559319447623407,-0.6403295948729686
1539131336709519,-0.19464408331425975,0.7578850995651178,-0.6386205844205386
1539131336725523,-0.19293507286182976,0.7528801403830014,-0.6344701304646372
1539131336741527,-0.1885404745555812,0.7567864499885557,-0.6341039139391165
1539131336757531,-0.1867093919279772,0.7532463569085222,-0.6394750896467536
1539131336773535,-0.18829633020523406,0.75385671778439,-0.6422827496757457
1539131336789539,-0.1862211032272829,0.7516594186312657,-0.6422827496757457
1539131336805544,-0.18841840238040763,0.7537346456092164,-0.6386205844205386
1539131336821548,-0.18475623712520006,0.7531242847333486,-0.6369115739681086
1539131336837552,-0.18426794842450578,0.7517814908064393,-0.6343480582894636
1539131336853556,-0.18048371099412508,0.75043869687953,-0.6311741817349508
1539131336869560,-0.17975127794308365,0.7527580682078279,-0.6271457999542229
1539131336885564,-0.17962920576791008,0.7542229343099107,-0.6339818417639429
1539131336901568,-0.18634317540245648,0.7578850995651178,-0.6452124818799114
1539131336917572,-0.18451209277485292,0.7566643778133821,-0.65131609063859
1539131336933593,-0.18353551537346435,0.7580071717402914,-0.6486305027847714
1539131336949597,-0.18426794842450578,0.7583733882658121,-0.6394750896467536
1539131336965602,-0.18793011367971335,0.7573968108644236,-0.6334935530632486
1539131336981606,-0.18402380407415864,0.7559319447623407,-0.6337376974135958
1539131336997610,-0.18475623712520006,0.7526359960326543,-0.6372777904936293
1539131337013614,-0.1832913710231172,0.7506828412298772,-0.6416723887998779
1539131337029618,-0.18280308232242293,0.7528801403830014,-0.6373998626688029
1539131337045622,-0.18268101014724936,0.7515373464560922,-0.6354467078660258
1539131337061626,-0.1854886701762415,0.7543450064850843,-0.6337376974135958
1539131337077630,-0.18231479362172864,0.7602044708934157,-0.6389868009460593
1539131337093634,-0.18487830930037363,0.7600823987182421,-0.6461890592813
1539131337109638,-0.18219272144655507,0.75898374914168,-0.6475318532082093
1539131337125642,-0.1799954222934308,0.7542229343099107,-0.6465552758068207
1539131337141646,-0.17926298924238937,0.7532463569085222,-0.6422827496757457
1539131337157651,-0.1832913710231172,0.7550774395361257,-0.6331273365377279
1539131337173655,-0.18683146410315077,0.7534905012588693,-0.6281223773556115
1539131337189659,-0.18951705195696977,0.754711223010605,-0.6328831921873808
1539131337205663,-0.19415579461356547,0.7533684290836957,-0.6399633783474479
1539131337221667,-0.19098191805905262,0.7534905012588693,-0.6439917601281757
1539131337237671,-0.18194857709620793,0.7561760891126879,-0.6404516670481422
1539131337253662,-0.17926298924238937,0.7549553673609521,-0.6373998626688029
1539131337269666,-0.18072785534447222,0.7517814908064393,-0.6373998626688029
1539131337285670,-0.1782864118410008,0.758129243915465,-0.6411841000991836
1539131337301674,-0.17865262836652152,0.7604486152437628,-0.6416723887998779
1539131337317678,-0.17730983443961224,0.75727473868925,-0.6464332036316471
1539131337333682,-0.17901884489204223,0.7519035629816129,-0.6414282444495307
1539131337349686,-0.1829251544975965,0.7537346456092164,-0.6332494087129015
1539131337365690,-0.18634317540245648,0.7543450064850843,-0.6321507591363393
1539131337381694,-0.1808499275196458,0.7548332951857786,-0.6373998626688029
1539131337397699,-0.1749904631113144,0.7527580682078279,-0.6387426565957122
1539131337413703,-0.17584496833752938,0.7541008621347371,-0.6382543678950179
1539131337429707,-0.1850003814755472,0.75556572823682,-0.636789501792935
1539131337445711,-0.19183642328526762,0.75556572823682,-0.6386205844205386
1539131337461715,-0.19122606240939977,0.7582513160906386,-0.6430151827267871
1539131337477719,-0.18829633020523406,0.7613031204699778,-0.6446021210040436
1539131337493723,-0.18927290760662263,0.7562981612878614,-0.6455786984054321
1539131337509727,-0.18683146410315077,0.7543450064850843,-0.6431372549019607
1539131337525731,-0.1854886701762415,0.7533684290836957,-0.638498512245365
1539131337541735,-0.17596704051270295,0.7551995117112993,-0.6353246356908522
1539131337557739,-0.17584496833752938,0.7509269855802243,-0.6319066147859922
1539131337573791,-0.1795071335927365,0.7482413977264057,-0.6280003051804379
1539131337589795,-0.18194857709620793,0.7457999542229343,-0.6303196765087358
1539131337605799,-0.18878461890592835,0.7526359960326543,-0.6300755321583886
1539131337621803,-0.18231479362172864,0.7545891508354314,-0.6413061722743572
1539131337637807,-0.17889677271686866,0.7573968108644236,-0.6455786984054321
1539131337653812,-0.17987335011825722,0.7613031204699778,-0.650461585412375
1539131337669816,-0.1812161440451665,0.7593499656672007,-0.6498512245365071
1539131337685820,-0.18512245365072078,0.7608148317692836,-0.6467994201571678
1539131337701824,-0.18646524757763006,0.7556878004119936,-0.6438696879530021
1539131337717828,-0.18219272144655507,0.75385671778439,-0.6322728313115129
1539131337733832,-0.1837796597238115,0.756420233463035,-0.6267795834287022
1539131337749836,-0.18158236057068722,0.7520256351567864,-0.6243381399252308
1539131337765840,-0.18475623712520006,0.7484855420767529,-0.6280003051804379
1539131337781844,-0.18341344319829078,0.7505607690547036,-0.6326390478370336
1539131337797848,-0.1791409170672158,0.7508049134050507,-0.6347142748149843
1539131337813852,-0.17804226749065366,0.7543450064850843,-0.6315403982604715
1539131337829856,-0.1787747005416951,0.754711223010605,-0.6330052643625543
1539131337845861,-0.1850003814755472,0.7584954604409857,-0.6463111314564736
1539131337861865,-0.1890287632562755,0.7592278934920271,-0.6510719462882428
1539131337877869,-0.1850003814755472,0.7616693369954985,-0.6510719462882428
1539131337893890,-0.1858548867017622,0.76240177004654,-0.6443579766536964
1539131337909894,-0.18756389715419264,0.7584954604409857,-0.6386205844205386
1539131337925898,-0.1791409170672158,0.7622796978713664,-0.6356908522163729
1539131337941902,-0.1753566796368351,0.7560540169375143,-0.6371557183184557
1539131337957906,-0.17486839093614082,0.7527580682078279,-0.6360570687418936
1539131337973910,-0.18060578316929865,0.7526359960326543,-0.6348363469901579
1539131337989915,-0.18634317540245648,0.7551995117112993,-0.6332494087129015
1539131338005919,-0.18402380407415864,0.7556878004119936,-0.6394750896467536
1539131338021923,-0.17987335011825722,0.7536125734340429,-0.6394750896467536
1539131338037927,-0.17840848401617437,0.7549553673609521,-0.6361791409170672
1539131338053931,-0.18072785534447222,0.756420233463035,-0.6306858930342565
1539131338069935,-0.19501029983978047,0.758129243915465,-0.6337376974135958
1539131338085939,-0.19842832074464045,0.7602044708934157,-0.6394750896467536
1539131338101943,-0.19378957808804476,0.7608148317692836,-0.6443579766536964
1539131338117947,-0.1885404745555812,0.7569085221637293,-0.6488746471351186
1539131338133951,-0.18011749446860437,0.7550774395361257,-0.6438696879530021
1539131338149955,-0.1749904631113144,0.754711223010605,-0.6365453574425879
1539131338165959,-0.1707179369802394,0.759838254367895,-0.6327611200122072
1539131338181964,-0.17523460746166153,0.7541008621347371,-0.6373998626688029
1539131338197968,-0.1770656900892651,0.7541008621347371,-0.6389868009460593
1539131338213989,-0.17474631876096725,0.7597161821927214,-0.6387426565957122
1539131338229993,-0.18048371099412508,0.75385671778439,-0.6394750896467536
1539131338245998,-0.17938506141756294,0.7561760891126879,-0.6392309452964064
1539131338262003,-0.1770656900892651,0.7570305943389029,-0.6397192339971007
1539131338278007,-0.1753566796368351,0.7619134813458457,-0.6397192339971007
1539131338294012,-0.18512245365072078,0.7609369039444571,-0.6400854505226214
1539131338310016,-0.19354543373769761,0.7583733882658121,-0.6413061722743572
1539131338326021,-0.1973296711680783,0.7610589761196307,-0.6397192339971007
1539131338342025,-0.19293507286182976,0.7593499656672007,-0.6435034714274814
1539131338358030,-0.18866254673075478,0.7567864499885557,-0.6408178835736629
1539131338374035,-0.1829251544975965,0.751293202105745,-0.6356908522163729
1539131338390039,-0.1808499275196458,0.75385671778439,-0.6314183260852979
1539131338406044,-0.1820706492713815,0.7517814908064393,-0.6283665217059586
1539131338422048,-0.18109407186999293,0.7537346456092164,-0.6341039139391165
1539131338438053,-0.18316929884794364,0.7561760891126879,-0.6377660791943236
1539131338454057,-0.1832913710231172,0.7544670786602579,-0.6411841000991836
1539131338470062,-0.18060578316929865,0.7587396047913328,-0.6399633783474479
1539131338486066,-0.17730983443961224,0.7577630273899443,-0.6426489662012664
1539131338502071,-0.17022964827954512,0.7582513160906386,-0.64448004882887
1539131338518076,-0.16998550392919798,0.7587396047913328,-0.6420386053253986
1539131338534088,-0.17523460746166153,0.7556878004119936,-0.6365453574425879
1539131338550092,-0.18097199969481936,0.753002212558175,-0.6332494087129015
1539131338566097,-0.17901884489204223,0.7593499656672007,-0.6317845426108186
1539131338582101,-0.18133821622034008,0.754711223010605,-0.6365453574425879
1539131338598106,-0.17938506141756294,0.7548332951857786,-0.6355687800411993
1539131338614111,-0.1837796597238115,0.7545891508354314,-0.6341039139391165
1539131338630115,-0.18439002059967935,0.758129243915465,-0.6337376974135958
1539131338646120,-0.18390173189898507,0.758129243915465,-0.6381322957198443
1539131338662124,-0.18060578316929865,0.754711223010605,-0.6420386053253986
1539131338678129,-0.17645532921339724,0.7542229343099107,-0.6392309452964064
1539131338694133,-0.17926298924238937,0.7565423056382086,-0.6321507591363393
1539131338710138,-0.17987335011825722,0.7571526665140764,-0.6289768825818265
1539131338726143,-0.18023956664377794,0.7545891508354314,-0.6348363469901579
1539131338742147,-0.1820706492713815,0.7556878004119936,-0.6370336461432822
1539131338758152,-0.18536659800106792,0.7577630273899443,-0.6403295948729686
1539131338774156,-0.18805218585488692,0.761547264820325,-0.6426489662012664
1539131338790161,-0.18731975280384505,0.7610589761196307,-0.6477759975585564
1539131338806165,-0.1870756084534979,0.7635004196231021,-0.6491187914854657
1539131338822170,-0.18219272144655507,0.7644769970244907,-0.6463111314564736
1539131338838174,-0.17853055619134794,0.759838254367895,-0.6388647287708857
1539131338854187,-0.18316929884794364,0.7562981612878614,-0.6295872434576943
1539131338870191,-0.19085984588387905,0.7508049134050507,-0.6248264286259251
1539131338886196,-0.19586480506599546,0.7498283360036622,-0.6250705729762722
1539131338902200,-0.18841840238040763,0.7494621194781415,-0.6320286869611658
1539131338918205,-0.17889677271686866,0.7482413977264057,-0.6360570687418936
1539131338934209,-0.1749904631113144,0.7526359960326543,-0.6345922026398108
1539131338950214,-0.1770656900892651,0.7550774395361257,-0.6378881513694972
1539131338966219,-0.17303730830853725,0.7645990691996642,-0.6399633783474479
1539131338982223,-0.17315938048371082,0.7637445639734493,-0.6464332036316471
1539131338998228,-0.16729991607537942,0.7659418631265735,-0.6508278019378957
1539131339014232,-0.16437018387121372,0.7643549248493171,-0.6488746471351186
1539131339030237,-0.17096208133058655,0.7636224917982757,-0.6441138323033493
1539131339046241,-0.17059586480506583,0.7582513160906386,-0.6437476157778286
1539131339062246,-0.16705577172503228,0.7559319447623407,-0.6361791409170672
1539131339078251,-0.17084000915541298,0.7503166247043564,-0.6278782330052644
1539131339094255,-0.17938506141756294,0.7460440985732815,-0.6259250782024872
1539131339110260,-0.1862211032272829,0.7503166247043564,-0.6212863355458915
1539131339126264,-0.18976119630731692,0.7553215838864729,-0.6265354390783551
1539131339142269,-0.19098191805905262,0.7616693369954985,-0.640207522697795
1539131339158273,-0.1990386816205083,0.76240177004654,-0.6482642862592507
1539131339174316,-0.19305714503700333,0.7680170901045242,-0.6503395132372014
1539131339190321,-0.19085984588387905,0.7660639353017471,-0.6480201419089036
1539131339206325,-0.18231479362172864,0.7621576256961928,-0.645334554055085
1539131339222330,-0.17804226749065366,0.7614251926451514,-0.6364232852674143
1539131339238334,-0.18060578316929865,0.75727473868925,-0.6315403982604715
1539131339254339,-0.18182650492103436,0.7494621194781415,-0.6278782330052644
1539131339270343,-0.1812161440451665,0.7451895933470665,-0.6225070572976272
1539131339286348,-0.17755397878995938,0.746166170748455,-0.6183566033417258
1539131339302353,-0.17047379262989226,0.75214770733196,-0.6201876859693294
1539131339318357,-0.17145037003128083,0.75898374914168,-0.633371480888075
1539131339334362,-0.1712062256809337,0.7671625848783092,-0.64789806973373
1539131339350366,-0.17694361791409152,0.7704585336079957,-0.6630350194552528
1539131339366371,-0.18023956664377794,0.7727779049362935,-0.6632791638055999
1539131339382375,-0.18756389715419264,0.7670405127031357,-0.6565651941710535
1539131339398380,-0.1885404745555812,0.7643549248493171,-0.6455786984054321
1539131339414384,-0.1829251544975965,0.7592278934920271,-0.6317845426108186
1539131339430389,-0.17804226749065366,0.7534905012588693,-0.6227512016479744
1539131339446394,-0.1715724422064544,0.756420233463035,-0.622018768596933
1539131339462398,-0.18304722667277007,0.74531166552224,-0.6265354390783551
1539131339478403,-0.18597695887693577,0.7467765316243229,-0.6309300373846036
1539131339494415,-0.18597695887693577,0.7475089646753643,-0.6304417486839093
1539131339510419,-0.18243686579690221,0.7525139238574807,-0.6304417486839093
1539131339526424,-0.18048371099412508,0.7631342030975814,-0.6339818417639429
1539131339542429,-0.18023956664377794,0.7643549248493171,-0.6439917601281757
1539131339558433,-0.17401388570992582,0.7644769970244907,-0.6497291523613336
1539131339574438,-0.17352559700923154,0.7588616769665064,-0.6464332036316471
1539131339590442,-0.17901884489204223,0.7610589761196307,-0.6400854505226214
1539131339606447,-0.18194857709620793,0.7567864499885557,-0.6339818417639429
1539131339622451,-0.18439002059967935,0.7586175326161593,-0.6322728313115129
1539131339638456,-0.17645532921339724,0.7608148317692836,-0.6356908522163729
1539131339654461,-0.17523460746166153,0.7537346456092164,-0.6406958113984893
1539131339670465,-0.17401388570992582,0.7580071717402914,-0.64277103837644
1539131339686470,-0.17608911268787653,0.7483634699015793,-0.6408178835736629
1539131339702474,-0.17669947356374438,0.7473868925001907,-0.635080491340505
1539131339718479,-0.17694361791409152,0.7475089646753643,-0.6297093156328679
1539131339734483,-0.17474631876096725,0.7477531090257115,-0.6247043564507515
1539131339750488,-0.17987335011825722,0.7492179751277943,-0.6251926451514458
1539131339766492,-0.18231479362172864,0.7516594186312657,-0.6259250782024872
1539131339782497,-0.18280308232242293,0.7637445639734493,-0.6372777904936293
1539131339798502,-0.18561074235141506,0.7699702449073014,-0.6471656366826886
1539131339814514,-0.17865262836652152,0.7743648432135499,-0.6602273594262607
1539131339830518,-0.18011749446860437,0.7730220492866406,-0.6612039368276492
1539131339846523,-0.17840848401617437,0.7650873579003585,-0.6557106889448385
1539131339862527,-0.18060578316929865,0.7569085221637293,-0.6421606775005722
1539131339878532,-0.17596704051270295,0.7541008621347371,-0.6303196765087358
1539131339894537,-0.1757228961623558,0.74360265506981,-0.6214084077210651
1539131339910541,-0.1727931639581901,0.7445792324711986,-0.6144502937361715
1539131339926546,-0.17267109178301654,0.74360265506981,-0.6142061493858244
1539131339942550,-0.1791409170672158,0.7475089646753643,-0.6181124589913787
1539131339958555,-0.1867093919279772,0.7515373464560922,-0.6310521095597772
1539131339974559,-0.18268101014724936,0.7599603265430686,-0.6404516670481422
1539131339990564,-0.1832913710231172,0.7611810482948043,-0.6461890592813
1539131340006569,-0.18316929884794364,0.7669184405279621,-0.6499732967116807
1539131340022573,-0.18683146410315077,0.7716792553597314,-0.6518043793392843
1539131340038578,-0.1885404745555812,0.7704585336079957,-0.6525368123903257
1539131340054582,-0.1850003814755472,0.7681391622796978,-0.6508278019378957
1539131340070587,-0.17865262836652152,0.7672846570534828,-0.6442359044785229
1539131340086591,-0.17804226749065366,0.7593499656672007,-0.63593499656672
1539131340102596,-0.17816433966582723,0.7542229343099107,-0.6242160677500572
1539131340118600,-0.1782864118410008,0.7490959029526207,-0.6178683146410315
1539131340134643,-0.1753566796368351,0.7509269855802243,-0.6172579537651637
1539131340150648,-0.17145037003128083,0.7548332951857786,-0.6269016556038758
1539131340166652,-0.1727931639581901,0.7599603265430686,-0.6400854505226214
1539131340182657,-0.17547875181200867,0.7580071717402914,-0.6474097810330357
1539131340198661,-0.17767605096513295,0.7591058213168536,-0.6439917601281757
1539131340214666,-0.17840848401617437,0.7608148317692836,-0.6377660791943236
1539131340230671,-0.18048371099412508,0.7608148317692836,-0.6306858930342565
1539131340246675,-0.18255893797207579,0.7599603265430686,-0.6292210269321736
1539131340262680,-0.18402380407415864,0.7565423056382086,-0.6321507591363393
1539131340278684,-0.18182650492103436,0.7578850995651178,-0.6386205844205386
1539131340294689,-0.18304722667277007,0.7611810482948043,-0.6416723887998779
1539131340310693,-0.18536659800106792,0.7630121309224078,-0.6415503166247043
1539131340326698,-0.1867093919279772,0.7616693369954985,-0.6400854505226214
1539131340342702,-0.18255893797207579,0.7635004196231021,-0.6366674296177615
1539131340358707,-0.1837796597238115,0.7622796978713664,-0.6363012130922407
1539131340374712,-0.19073777370870548,0.75898374914168,-0.6371557183184557
1539131340390716,-0.1928130006866562,0.7533684290836957,-0.6371557183184557
1539131340406721,-0.18597695887693577,0.7533684290836957,-0.6365453574425879
1539131340422725,-0.18402380407415864,0.7578850995651178,-0.6327611200122072
1539131340438730,-0.18133821622034008,0.7582513160906386,-0.6319066147859922
1539131340454742,-0.18524452582589435,0.7610589761196307,-0.6320286869611658
1539131340470747,-0.18609903105210934,0.7674067292286564,-0.6349584191653315
1539131340486751,-0.18756389715419264,0.7664301518272678,-0.6442359044785229
1539131340502756,-0.18158236057068722,0.7652094300755321,-0.6554665445944914
1539131340518760,-0.18341344319829078,0.7609369039444571,-0.6486305027847714
1539131340534765,-0.18402380407415864,0.7605706874189364,-0.6381322957198443
1539131340550769,-0.1837796597238115,0.7588616769665064,-0.6273899443045701
1539131340566774,-0.18158236057068722,0.756420233463035,-0.6253147173266194
1539131340582779,-0.18365758754863792,0.7517814908064393,-0.6271457999542229
1539131340598783,-0.18231479362172864,0.7432364385442893,-0.6306858930342565
1539131340614788,-0.17645532921339724,0.7406729228656443,-0.6280003051804379
1539131340630792,-0.16668955519951156,0.7460440985732815,-0.6249485008010986
1539131340646797,-0.15875486381322945,0.7488517586022736,-0.6287327382314793
1539131340662801,-0.15924315251392374,0.7516594186312657,-0.6364232852674143
1539131340678806,-0.16205081254291587,0.7543450064850843,-0.63764400701915
1539131340694810,-0.17438010223544653,0.761547264820325,-0.6331273365377279
1539131340710815,-0.18963912413214334,0.7655756466010528,-0.6365453574425879
1539131340726820,-0.1931792172121769,0.7686274509803921,-0.648752574959945
1539131340742824,-0.18866254673075478,0.7687495231555657,-0.6593728542000457
1539131340758829,-0.1820706492713815,0.7700923170824749,-0.6586404211490042
1539131340774871,-0.18316929884794364,0.7674067292286564,-0.6500953688868543
1539131340790876,-0.1890287632562755,0.7642328526741435,-0.63764400701915
1539131340806882,-0.18988326848249049,0.7587396047913328,-0.6321507591363393
1539131340822887,-0.1862211032272829,0.7556878004119936,-0.6247043564507515
1539131340838892,-0.18780804150453978,0.7483634699015793,-0.6146944380865187
1539131340854897,-0.18536659800106792,0.7399404898146029,-0.6184786755168994
1539131340870902,-0.17767605096513295,0.7417715724422065,-0.6218966964217594
1539131340886907,-0.17596704051270295,0.7442130159456779,-0.6309300373846036
1539131340902912,-0.17865262836652152,0.7464103150988022,-0.6380102235446707
1539131340918917,-0.18109407186999293,0.7558098725871671,-0.6381322957198443
1539131340934922,-0.17865262836652152,0.7595941100175478,-0.6413061722743572
1539131340950927,-0.18097199969481936,0.7670405127031357,-0.6454566262302586
1539131340966932,-0.17682154573891795,0.7688715953307392,-0.6461890592813
1539131340982937,-0.17401388570992582,0.7720454718852521,-0.6474097810330357
1539131340998942,-0.17169451438162797,0.7688715953307392,-0.6446021210040436
1539131341014947,-0.1795071335927365,0.7621576256961928,-0.6344701304646372
1539131341030952,-0.1862211032272829,0.7543450064850843,-0.6240939955748837
1539131341046957,-0.19134813458457334,0.7482413977264057,-0.6173800259403373
1539131341062962,-0.19159227893492048,0.7455558098725872,-0.6132295719844358
1539131341078967,-0.18536659800106792,0.7527580682078279,-0.621164263370718
1539131341094970,-0.18683146410315077,0.7522697795071336,-0.6356908522163729
1539131341110975,-0.18487830930037363,0.7560540169375143,-0.6449683375295643
1539131341126980,-0.18524452582589435,0.7627679865720607,-0.6503395132372014
1539131341142985,-0.18756389715419264,0.7648432135500114,-0.65473411154345
1539131341158990,-0.1850003814755472,0.7667963683527885,-0.6482642862592507
1539131341174996,-0.17962920576791008,0.7718013275349049,-0.6446021210040436
1539131341191001,-0.17901884489204223,0.7710688944838635,-0.6369115739681086
1539131341207006,-0.18231479362172864,0.7639887083237964,-0.6322728313115129
1539131341223011,-0.18402380407415864,0.7603265430685893,-0.6273899443045701
1539131341239016,-0.18243686579690221,0.751293202105745,-0.6216525520714122
1539131341255021,-0.18194857709620793,0.7445792324711986,-0.6184786755168994
1539131341271026,-0.18255893797207579,0.7410391393911651,-0.616891737239643
1539131341287031,-0.19256885633630905,0.7449454489967193,-0.6161593041886015
1539131341303036,-0.19794003204394617,0.7477531090257115,-0.6226291294728008
1539131341319041,-0.19330128938735047,0.7541008621347371,-0.6305638208590829
1539131341335046,-0.18976119630731692,0.7677729457541771,-0.6352025635156786
1539131341351051,-0.18805218585488692,0.7736324101625085,-0.6408178835736629
1539131341367056,-0.18609903105210934,0.7766842145418478,-0.6457007705806057
1539131341383061,-0.17853055619134794,0.782299534599832,-0.6561989776455328
1539131341399066,-0.17547875181200867,0.7721675440604256,-0.6560769054703592
1539131341415069,-0.1770656900892651,0.76752880140383,-0.6480201419089036
1539131341431074,-0.1719386587319751,0.7613031204699778,-0.6408178835736629
1539131341447079,-0.17218280308232226,0.7556878004119936,-0.6311741817349508
1539131341463084,-0.1795071335927365,0.75043869687953,-0.6215304798962387
1539131341479089,-0.1854886701762415,0.7522697795071336,-0.6162813763637751
1539131341495094,-0.19293507286182976,0.75043869687953,-0.6146944380865187
1539131341511099,-0.18780804150453978,0.7567864499885557,-0.6193331807431144
1539131341527104,-0.1890287632562755,0.7603265430685893,-0.6278782330052644
1539131341543110,-0.1867093919279772,0.7622796978713664,-0.6371557183184557
1539131341559115,-0.19000534065766406,0.763256275272755,-0.6394750896467536
1539131341575120,-0.19085984588387905,0.7653315022507057,-0.6394750896467536
1539131341591125,-0.19085984588387905,0.7636224917982757,-0.6353246356908522
1539131341607130,-0.1890287632562755,0.7591058213168536,-0.6328831921873808
1539131341623135,-0.1850003814755472,0.7633783474479285,-0.6320286869611658
1539131341639140,-0.18341344319829078,0.7620355535210193,-0.6360570687418936
1539131341655145,-0.18268101014724936,0.7626459143968871,-0.63422598611429
1539131341671150,-0.1841458762493322,0.7608148317692836,-0.6338597695887693
1539131341687155,-0.18304722667277007,0.7592278934920271,-0.6341039139391165
1539131341703160,-0.18609903105210934,0.7584954604409857,-0.6301976043335622
1539131341719165,-0.19293507286182976,0.7603265430685893,-0.6269016556038758
1539131341735199,-0.1978179598687726,0.7633783474479285,-0.6234836346990158
1539131341751204,-0.20172426947432687,0.7604486152437628,-0.6295872434576943
1539131341767209,-0.20514229037918685,0.7577630273899443,-0.6364232852674143
1539131341783214,-0.19415579461356547,0.7591058213168536,-0.6356908522163729
1539131341799219,-0.19244678416113548,0.7602044708934157,-0.6301976043335622
1539131341815224,-0.18365758754863792,0.7588616769665064,-0.6323949034866865
1539131341831229,-0.1799954222934308,0.7575188830395971,-0.6314183260852979
1539131341847234,-0.17389181353475225,0.7531242847333486,-0.6341039139391165
1539131341863239,-0.16791027695124727,0.7536125734340429,-0.6315403982604715
1539131341879244,-0.17425803006027296,0.7516594186312657,-0.6284885938811322
1539131341895249,-0.16888685435263584,0.7614251926451514,-0.6300755321583886
1539131341911254,-0.16351567864499872,0.7576409552147707,-0.6323949034866865
1539131341927259,-0.16412603952086657,0.7656977187762264,-0.6371557183184557
1539131341943264,-0.1698634317540244,0.76923781185626,-0.6381322957198443
1539131341959269,-0.1803616388189515,0.7678950179293507,-0.6369115739681086
1539131341975274,-0.18426794842450578,0.7645990691996642,-0.6406958113984893
1539131341991279,-0.18072785534447222,0.7626459143968871,-0.6377660791943236
1539131342007284,-0.18268101014724936,0.7642328526741435,-0.6344701304646372
1539131342023289,-0.1858548867017622,0.7575188830395971,-0.6323949034866865
1539131342039294,-0.18841840238040763,0.7553215838864729,-0.6314183260852979
1539131342055297,-0.18915083543144906,0.7599603265430686,-0.6250705729762722
1539131342071303,-0.19623102159151617,0.7599603265430686,-0.6295872434576943
1539131342087308,-0.20477607385366614,0.7592278934920271,-0.6317845426108186
1539131342103313,-0.20856031128404684,0.7603265430685893,-0.6338597695887693
1539131342119318,-0.207095445181964,0.7582513160906386,-0.6360570687418936
1539131342135323,-0.20135805294880615,0.7678950179293507,-0.6326390478370336
1539131342151328,-0.20929274433508827,0.76752880140383,-0.6332494087129015
1539131342167333,-0.19159227893492048,0.76752880140383,-0.64106202792401
1539131342183338,-0.17975127794308365,0.766674296177615,-0.6452124818799114
1539131342199343,-0.1719386587319751,0.7636224917982757,-0.6369115739681086
1539131342215348,-0.17547875181200867,0.7619134813458457,-0.6271457999542229
1539131342231353,-0.18133821622034008,0.7575188830395971,-0.6228732738231479
1539131342247358,-0.17938506141756294,0.7534905012588693,-0.6251926451514458
1539131342263363,-0.17340352483405796,0.7503166247043564,-0.6294651712825208
1539131342279368,-0.17206073090714868,0.7499504081788357,-0.6282444495307851
1539131342295373,-0.1698634317540244,0.7553215838864729,-0.6286106660563058
1539131342311378,-0.1757228961623558,0.7553215838864729,-0.6344701304646372
1539131342327383,-0.17816433966582723,0.7604486152437628,-0.6361791409170672
1539131342343388,-0.17804226749065366,0.7659418631265735,-0.6361791409170672
1539131342359393,-0.18634317540245648,0.761547264820325,-0.6408178835736629
1539131342375427,-0.19330128938735047,0.763256275272755,-0.6387426565957122
1539131342391432,-0.18951705195696977,0.7608148317692836,-0.6358129243915465
1539131342407437,-0.1841458762493322,0.7625238422217135,-0.6347142748149843
1539131342423442,-0.1846341649500265,0.7591058213168536,-0.6314183260852979
1539131342439447,-0.19537651636530118,0.7554436560616464,-0.6297093156328679
1539131342455452,-0.19330128938735047,0.75727473868925,-0.6250705729762722
1539131342471457,-0.18524452582589435,0.75556572823682,-0.6264133669031815
1539131342487462,-0.18304722667277007,0.753002212558175,-0.6292210269321736
1539131342503467,-0.18878461890592835,0.7508049134050507,-0.6283665217059586
1539131342519472,-0.19928282597085545,0.7562981612878614,-0.6255588616769665
1539131342535477,-0.19635309376668975,0.7576409552147707,-0.6280003051804379
1539131342551482,-0.1862211032272829,0.7575188830395971,-0.6334935530632486
1539131342567487,-0.17669947356374438,0.7655756466010528,-0.636789501792935
1539131342583492,-0.1765774013885708,0.7682612344548714,-0.6455786984054321
1539131342599497,-0.18060578316929865,0.7685053788052185,-0.6520485236896314
1539131342615502,-0.18023956664377794,0.7614251926451514,-0.6499732967116807
1539131342631507,-0.17608911268787653,0.7593499656672007,-0.6399633783474479
1539131342647513,-0.17901884489204223,0.7550774395361257,-0.6293430991073472
1539131342663518,-0.18219272144655507,0.7539787899595636,-0.6178683146410315
1539131342679523,-0.18609903105210934,0.7566643778133821,-0.6118867780575266
1539131342695526,-0.19293507286182976,0.75727473868925,-0.6207980468451972
1539131342711531,-0.1890287632562755,0.759838254367895,-0.6305638208590829
1539131342727536,-0.19049362935835834,0.7620355535210193,-0.6361791409170672
1539131342743541,-0.19049362935835834,0.7603265430685893,-0.6413061722743572
1539131342759546,-0.1952544441901276,0.7633783474479285,-0.6421606775005722
1539131342775551,-0.18512245365072078,0.764965285725185,-0.6392309452964064
1539131342791556,-0.17462424658579367,0.7660639353017471,-0.6382543678950179
1539131342807561,-0.17474631876096725,0.7587396047913328,-0.6366674296177615
1539131342823566,-0.1712062256809337,0.7545891508354314,-0.631662470435645
1539131342839571,-0.16839856565194156,0.7477531090257115,-0.6262912947280079
1539131342855576,-0.16534676127260228,0.7509269855802243,-0.6225070572976272
1539131342871581,-0.16498054474708157,0.7483634699015793,-0.620309758144503
1539131342887586,-0.1652246890974287,0.7611810482948043,-0.6243381399252308
1539131342903591,-0.18194857709620793,0.7630121309224078,-0.6319066147859922
1539131342919596,-0.18695353627832434,0.7667963683527885,-0.6413061722743572
1539131342935601,-0.19171435111009405,0.7781490806439306,-0.6493629358358128
1539131342951606,-0.19708552681773117,0.7901121538109406,-0.64448004882887
1539131342967611,-0.1854886701762415,0.7893797207598992,-0.6457007705806057
1539131342983616,-0.2217441062027925,0.7536125734340429,-0.6726787212939649
1539131342999621,-0.21564049744411395,0.7403067063401236,-0.673777370870527
1539131343015625,-0.18890669108110192,0.7725337605859464,-0.6178683146410315
1539131343031630,-0.18487830930037363,0.758129243915465,-0.5960173952849623
1539131343047635,-0.20794995040817899,0.7273670557717251,-0.6055390249485009
1539131343063640,-0.19293507286182976,0.7287098496986344,-0.6101777676050966
1539131343079645,-0.17584496833752938,0.7447013046463722,-0.6081025406271459
1539131343095650,-0.17267109178301654,0.7448233768215458,-0.6171358815899901
1539131343111655,-0.1745021744106201,0.7542229343099107,-0.6303196765087358
1539131343127660,-0.17047379262989226,0.7670405127031357,-0.6414282444495307
1539131343143665,-0.1727931639581901,0.7697261005569542,-0.6520485236896314
1539131343159670,-0.1698634317540244,0.7715571831845578,-0.6563210498207064
1539131343175675,-0.17096208133058655,0.7725337605859464,-0.6519264515144578
1539131343191680,-0.17291523613336368,0.7719233997100785,-0.6476539253833828
1539131343207685,-0.1774319066147858,0.7609369039444571,-0.6405737392233157
1539131343223690,-0.17767605096513295,0.7578850995651178,-0.6283665217059586
1539131343239695,-0.17889677271686866,0.7492179751277943,-0.6181124589913787
1539131343255700,-0.17938506141756294,0.7493400473029679,-0.6149385824368658
1539131343271705,-0.17901884489204223,0.7489738307774472,-0.616891737239643
1539131343287710,-0.18475623712520006,0.7508049134050507,-0.6234836346990158
1539131343303715,-0.18439002059967935,0.7566643778133821,-0.6288548104066529
1539131343319720,-0.1803616388189515,0.7653315022507057,-0.6381322957198443
1539131343335724,-0.1906157015335319,0.7584954604409857,-0.6416723887998779
1539131343351729,-0.1973296711680783,0.7643549248493171,-0.6442359044785229
1539131343367734,-0.18841840238040763,0.7677729457541771,-0.6409399557488364
1539131343383739,-0.18365758754863792,0.7639887083237964,-0.6442359044785229
1539131343399744,-0.18353551537346435,0.7591058213168536,-0.6411841000991836
1539131343415749,-0.17962920576791008,0.7595941100175478,-0.631662470435645
1539131343431754,-0.18182650492103436,0.7588616769665064,-0.6258030060273136
1539131343447759,-0.13812466620889596,0.4699168383306631,-0.9922636758983749
1539131343463764,-0.595529106584268,0.08856336308842572,-0.38092622262912945
1539131343479769,0.7216296635385673,2.5507591363393605,-0.03338673990997165
1539131343495774,-0.26691081101701375,0.6234836346990154,-0.717723353933013
1539131343511779,-0.9031509880216677,-0.06427100022888554,-1.7911039902342258
1539131343527784,-0.17047379262989226,0.7984130617227434,-1.545860990310521
1539131343543789,0.31891355764095497,1.2327458609903106,-1.0522011139085983
1539131343559794,0.30341039139391146,1.3246662088960095,-0.5758754863813231
1539131343575799,-0.2217441062027925,0.9396505683985659,-0.47431143663691167
1539131343591804,-0.44489204242008107,0.642038605325399,-0.5469443808651864
1539131343607809,-0.312077515831235,0.5219195849546043,-0.6215304798962387
1539131343623814,-0.10064850843060968,0.5409628442816814,-0.535957885099565
1539131343639819,-0.10760662241550323,0.5654993514915692,-0.36920729381246664
1539131343655822,-0.15069810025177377,0.5985809109636069,-0.28278019378957797
1539131343671827,-0.15216296635385662,0.6195773250934611,-0.30560769054703574
1539131343687832,-0.19562066071564832,0.6002899214160369,-0.37970550087739374
1539131343703837,-0.30597390707255645,0.5784390020599677,-0.4822461280231938
1539131343719843,-0.3550469214923324,0.5752651255054548,-0.596383611810483
1539131343735848,-0.29547570000762935,0.6262912947280084,-0.7129625391012437
1539131343751853,-0.22320897230487535,0.7053940642404823,-0.8056153200579841
1539131343767858,-0.2095368886854354,0.7849851224536506,-0.8480964370183872
1539131343783863,-0.22247653925383393,0.826977950713359,-0.8750743877317464
1539131343799868,-0.24213015945677885,0.8506599526970318,-0.8844739452201114
1539131343815873,-0.24603646906233312,0.8482185091935603,-0.8813000686655985
1539131343831878,-0.2200350957503625,0.8305180437933926,-0.8551766231784543
1539131343847883,-0.1770656900892651,0.7937743190661477,-0.8039063096055541
1539131343863888,-0.1283588921950103,0.7779049362935835,-0.7439688715953308
1539131343879893,-0.09869535362783255,0.7490959029526207,-0.6798809796292056
1539131343895898,-0.09015030136568258,0.7216296635385673,-0.6223849851224537
1539131343911903,-0.09832913710231184,0.7009994659342338,-0.5788052185854888
1539131343927908,-0.10650797283894109,0.6928206301976045,-0.5606164644846263
1539131343943913,-0.1165178912031739,0.6896467536430917,-0.5648889906157017
1539131343959918,-0.12225528343633174,0.689280537117571,-0.5812466620889603
1539131343975952,-0.12481879911497673,0.7028305485618374,-0.6034637979705502
1539131343991957,-0.13678187228198668,0.7183337148088809,-0.6244602121004044
1539131344007962,-0.14947737850003806,0.7377431906614786,-0.64448004882887
1539131344023967,-0.16791027695124727,0.7505607690547036,-0.6619363698786906
1539131344039972,-0.1893949797817962,0.7647211413748378,-0.6735332265201799
1539131344055977,-0.20672922865644328,0.7785152971694513,-0.6861066605630577
1539131344071982,-0.21319905394064254,0.7802243076218813,-0.6903791866941331
1539131344087987,-0.21637293049515538,0.7787594415197985,-0.6895246814679181
1539131344103992,-0.21271076523994825,0.7710688944838635,-0.6818341344319827
1539131344119997,-0.20257877470054186,0.763256275272755,-0.6637674525062942
1539131344136002,-0.19842832074464045,0.7549553673609521,-0.6511940184634164
1539131344152007,-0.19708552681773117,0.7511711299305714,-0.6413061722743572
1539131344168012,-0.19269092851148262,0.7447013046463722,-0.6404516670481422
1539131344184017,-0.18866254673075478,0.7372549019607844,-0.6353246356908522
1539131344200022,-0.18365758754863792,0.724559395742733,-0.631662470435645
1539131344216027,-0.18573281452658863,0.6828107118333717,-0.6200656137941558
1539131344232032,-0.1467917906462195,0.76923781185626,-0.5789272907606624
1539131344248037,-0.16156252384222158,0.7763179980163271,-0.6094453345540551
1539131344264042,-0.18805218585488692,0.7315175097276265,-0.6725566491187913
1539131344280048,-0.19305714503700333,0.7238269626916916,-0.6864728770885784
1539131344296051,-0.163149462119478,0.7498283360036622,-0.6526588845654993
1539131344312056,-0.14837872892347592,0.7774166475928892,-0.6259250782024872
1539131344328061,-0.17022964827954512,0.7636224917982757,-0.6403295948729686
1539131344344066,-0.18048371099412508,0.744457160296025,-0.6670634012359806
1539131344360071,-0.16937514305333012,0.7484855420767529,-0.6620584420538642
1539131344376076,-0.1610742351415273,0.7608148317692836,-0.6439917601281757
1539131344392081,-0.1757228961623558,0.7588616769665064,-0.6338597695887693
1539131344408086,-0.18683146410315077,0.7531242847333486,-0.6375219348439765
1539131344424091,-0.18829633020523406,0.7554436560616464,-0.6430151827267871
1539131344440096,-0.19183642328526762,0.7569085221637293,-0.648752574959945
1539131344456101,-0.19891660944533474,0.7556878004119936,-0.6467994201571678
1539131344472106,-0.1928130006866562,0.7595941100175478,-0.6498512245365071
1539131344488111,-0.1870756084534979,0.7532463569085222,-0.6494850080109864
1539131344504116,-0.18109407186999293,0.7450675211718929,-0.6458228427557793
1539131344520121,-0.17401388570992582,0.7476310368505379,-0.6348363469901579
1539131344536126,-0.17511253528648796,0.75043869687953,-0.6240939955748837
1539131344552131,-0.18683146410315077,0.7506828412298772,-0.6283665217059586
1539131344568136,-0.19378957808804476,0.75043869687953,-0.6372777904936293
1539131344584141,-0.1902494850080112,0.7516594186312657,-0.6458228427557793
1539131344600146,-0.18023956664377794,0.7561760891126879,-0.6503395132372014
1539131344616150,-0.17010757610437155,0.7571526665140764,-0.6499732967116807
1539131344632155,-0.1627832455939573,0.7628900587472343,-0.6483863584344243
1539131344648160,-0.15875486381322945,0.7644769970244907,-0.6508278019378957
1539131344664165,-0.161440451667048,0.7653315022507057,-0.6537575341420614
1539131344680170,-0.16839856565194156,0.7639887083237964,-0.6531471732661935
1539131344696175,-0.17779812314030652,0.7595941100175478,-0.6507057297627221
1539131344712180,-0.18402380407415864,0.7565423056382086,-0.64448004882887
1539131344728185,-0.17730983443961224,0.749584191653315,-0.6414282444495307
1539131344744190,-0.17022964827954512,0.7497062638284886,-0.6365453574425879
1539131344760195,-0.16729991607537942,0.7477531090257115,-0.6327611200122072
1539131344776200,-0.16754406042572656,0.7449454489967193,-0.6334935530632486
1539131344792205,-0.17523460746166153,0.746166170748455,-0.6305638208590829
1539131344808210,-0.18524452582589435,0.75043869687953,-0.6349584191653315
1539131344824215,-0.18988326848249049,0.7509269855802243,-0.6348363469901579
1539131344840220,-0.19122606240939977,0.7531242847333486,-0.6387426565957122
1539131344856225,-0.18890669108110192,0.75556572823682,-0.64448004882887
1539131344872230,-0.18524452582589435,0.75727473868925,-0.6466773479819943
1539131344888235,-0.18634317540245648,0.7578850995651178,-0.6469214923323414
1539131344904240,-0.18915083543144906,0.75727473868925,-0.6432593270771343
1539131344920245,-0.19073777370870548,0.7515373464560922,-0.6406958113984893
1539131344936279,-0.1854886701762415,0.7473868925001907,-0.6372777904936293
1539131344952284,-0.17376974135957868,0.75727473868925,-0.6328831921873808
1539131344968289,-0.17486839093614082,0.7594720378423743,-0.6394750896467536
1539131344984294,-0.1791409170672158,0.7539787899595636,-0.6431372549019607
1539131345000299,-0.17779812314030652,0.7571526665140764,-0.6482642862592507
1539131345016304,-0.1753566796368351,0.759838254367895,-0.6464332036316471
1539131345032309,-0.17169451438162797,0.7643549248493171,-0.6449683375295643
1539131345048314,-0.1727931639581901,0.7611810482948043,-0.6492408636606393
1539131345064319,-0.17401388570992582,0.7647211413748378,-0.6527809567406728
1539131345080324,-0.1757228961623558,0.7638666361486228,-0.6483863584344243
1539131345096329,-0.17975127794308365,0.7575188830395971,-0.6472877088578621
1539131345112334,-0.17889677271686866,0.7520256351567864,-0.6414282444495307
1539131345128339,-0.17865262836652152,0.7467765316243229,-0.6366674296177615
1539131345144344,-0.17303730830853725,0.7467765316243229,-0.6306858930342565
1539131345160349,-0.16876478217746227,0.7451895933470665,-0.6278782330052644
1539131345176355,-0.1727931639581901,0.7439688715953308,-0.6301976043335622
1539131345192360,-0.17767605096513295,0.7431143663691158,-0.6303196765087358
1539131345208365,-0.18109407186999293,0.7432364385442893,-0.6315403982604715
1539131345224370,-0.1837796597238115,0.7467765316243229,-0.6315403982604715
1539131345240375,-0.1820706492713815,0.7528801403830014,-0.6363012130922407
1539131345256378,-0.18280308232242293,0.7565423056382086,-0.6454566262302586
1539131345272383,-0.18744182497901862,0.7582513160906386,-0.6493629358358128
1539131345288388,-0.1914702067597469,0.7577630273899443,-0.6454566262302586
1539131345304393,-0.1943999389639126,0.763256275272755,-0.6399633783474479
1539131345320398,-0.19085984588387905,0.7609369039444571,-0.6415503166247043
1539131345336403,-0.18609903105210934,0.7575188830395971,-0.645334554055085
1539131345352408,-0.1774319066147858,0.76069275959411,-0.645334554055085
1539131345368413,-0.17486839093614082,0.7536125734340429,-0.6459449149309529
1539131345384418,-0.18390173189898507,0.7417715724422065,-0.6443579766536964
1539131345400423,-0.16876478217746227,0.7479972533760586,-0.6356908522163729
1539131345416428,-0.15594720378423732,0.7531242847333486,-0.6229953459983215
1539131345432433,-0.16791027695124727,0.7514152742809186,-0.6276340886549172
1539131345448438,-0.17132829785610726,0.7449454489967193,-0.6392309452964064
1539131345464443,-0.17669947356374438,0.7543450064850843,-0.6375219348439765
1539131345480448,-0.1765774013885708,0.7575188830395971,-0.638498512245365
1539131345496453,-0.17315938048371082,0.7635004196231021,-0.6415503166247043
1539131345512458,-0.1791409170672158,0.7648432135500114,-0.6442359044785229
1539131345528463,-0.1846341649500265,0.7652094300755321,-0.6516823071641107
1539131345544469,-0.18146028839551365,0.7680170901045242,-0.6537575341420614
1539131345560474,-0.18561074235141506,0.7658197909514,-0.6508278019378957
1539131345576507,-0.18573281452658863,0.761547264820325,-0.6460669871061264
1539131345592512,-0.19159227893492048,0.7562981612878614,-0.63422598611429
1539131345608517,-0.1973296711680783,0.7531242847333486,-0.6320286869611658
1539131345624522,-0.19098191805905262,0.74702067597467,-0.6233615625238422
1539131345640527,-0.18646524757763006,0.7434805828946365,-0.6221408407721065
1539131345656532,-0.18316929884794364,0.7422598611429008,-0.6184786755168994
1539131345672537,-0.18756389715419264,0.74531166552224,-0.6187228198672465
1539131345688542,-0.18927290760662263,0.7532463569085222,-0.6207980468451972
1539131345704548,-0.19391165026321833,0.7562981612878614,-0.6344701304646372
1539131345720553,-0.1957427328908219,0.7587396047913328,-0.6426489662012664
1539131345736558,-0.18878461890592835,0.7681391622796978,-0.6452124818799114
1539131345752563,-0.18182650492103436,0.7761959258411535,-0.6509498741130693
1539131345768568,-0.18365758754863792,0.7689936675059128,-0.6580300602731364
1539131345784573,-0.18133821622034008,0.7663080796520942,-0.6571755550469214
1539131345800578,-0.1741359578850994,0.7689936675059128,-0.6486305027847714
1539131345816583,-0.17108415350576012,0.76240177004654,-0.6404516670481422
1539131345832588,-0.17584496833752938,0.7537346456092164,-0.631662470435645
1539131345848593,-0.18219272144655507,0.7468986037994965,-0.6221408407721065
1539131345864598,-0.18219272144655507,0.7440909437705043,-0.6176241702906844
1539131345880603,-0.1803616388189515,0.7443350881208515,-0.6159151598382544
1539131345896606,-0.17975127794308365,0.7429922941939422,-0.6189669642175937
1539131345912611,-0.18439002059967935,0.7437247272449836,-0.6250705729762722
1539131345928616,-0.19012741283283763,0.7500724803540093,-0.6258030060273136
1539131345944621,-0.19098191805905262,0.7531242847333486,-0.6267795834287022
1539131345960626,-0.19098191805905262,0.759838254367895,-0.6336156252384222
1539131345976631,-0.19000534065766406,0.7609369039444571,-0.6433813992523079
1539131345992636,-0.19134813458457334,0.7660639353017471,-0.6460669871061264
1539131346008641,-0.1914702067597469,0.7728999771114671,-0.6481422140840771
1539131346024646,-0.19378957808804476,0.7689936675059128,-0.6519264515144578
1539131346040651,-0.19220263981078833,0.7687495231555657,-0.6492408636606393
1539131346056656,-0.18475623712520006,0.7654535744258792,-0.6454566262302586
1539131346072662,-0.1837796597238115,0.7586175326161593,-0.6388647287708857
1539131346088667,-0.18280308232242293,0.7528801403830014,-0.6301976043335622
1539131346104672,-0.18097199969481936,0.7522697795071336,-0.6226291294728008
1539131346120677,-0.1782864118410008,0.7499504081788357,-0.6217746242465858
1539131346136682,-0.1724269474326694,0.7486076142519265,-0.6277561608300908
1539131346152687,-0.17682154573891795,0.7541008621347371,-0.6281223773556115
1539131346168692,-0.18316929884794364,0.75727473868925,-0.6288548104066529
1539131346184697,-0.18304722667277007,0.7617914091706721,-0.6360570687418936
1539131346200702,-0.18060578316929865,0.7636224917982757,-0.6377660791943236
1539131346216705,-0.17486839093614082,0.7637445639734493,-0.6417944609750514
1539131346232710,-0.1774319066147858,0.7638666361486228,-0.64277103837644
1539131346248715,-0.18231479362172864,0.7621576256961928,-0.6405737392233157
1539131346264720,-0.1928130006866562,0.7643549248493171,-0.6321507591363393
1539131346280725,-0.19366750591287119,0.7639887083237964,-0.6328831921873808
1539131346296730,-0.1902494850080112,0.7584954604409857,-0.6328831921873808
1539131346312735,-0.19159227893492048,0.754711223010605,-0.6286106660563058
1539131346328740,-0.19391165026321833,0.7526359960326543,-0.6287327382314793
1539131346344745,-0.19427786678873904,0.7472648203250172,-0.6275120164797436
1539131346360750,-0.19208056763561476,0.7479972533760586,-0.6260471503776608
1539131346376755,-0.1841458762493322,0.75385671778439,-0.6275120164797436
1539131346392760,-0.17962920576791008,0.7554436560616464,-0.6288548104066529
1539131346408765,-0.18109407186999293,0.7619134813458457,-0.6349584191653315
1539131346424770,-0.1841458762493322,0.7639887083237964,-0.63764400701915
1539131346440775,-0.18353551537346435,0.7665522240024414,-0.64106202792401
1539131346456781,-0.18023956664377794,0.7650873579003585,-0.64106202792401
1539131346472786,-0.17645532921339724,0.7664301518272678,-0.6377660791943236
1539131346488791,-0.17438010223544653,0.7609369039444571,-0.6345922026398108
1539131346504796,-0.17218280308232226,0.7593499656672007,-0.63080796520943
1539131346520801,-0.17401388570992582,0.7558098725871671,-0.6288548104066529
1539131346536834,-0.1782864118410008,0.7520256351567864,-0.6288548104066529
1539131346552840,-0.17425803006027296,0.7599603265430686,-0.6259250782024872
1539131346568845,-0.17669947356374438,0.7599603265430686,-0.6327611200122072
1539131346584851,-0.17315938048371082,0.76411078049897,-0.6382543678950179
1539131346600856,-0.18255893797207579,0.7604486152437628,-0.6403295948729686
1539131346616862,-0.1902494850080112,0.7577630273899443,-0.6354467078660258
1539131346632867,-0.19037155718318477,0.7611810482948043,-0.6304417486839093
1539131346648873,-0.18658731975280363,0.76069275959411,-0.6295872434576943
1539131346664878,-0.1890287632562755,0.7551995117112993,-0.6280003051804379
1539131346680884,-0.1923247119859619,0.7614251926451514,-0.6286106660563058
1539131346696890,-0.1961089494163426,0.7608148317692836,-0.6331273365377279
1539131346712895,-0.1948882276646069,0.7672846570534828,-0.635080491340505
1539131346728901,-0.19098191805905262,0.7652094300755321,-0.6378881513694972
1539131346744906,-0.1885404745555812,0.7694819562066071,-0.6355687800411993
1539131346760912,-0.19415579461356547,0.7613031204699778,-0.6386205844205386
1539131346776917,-0.19427786678873904,0.7588616769665064,-0.6311741817349508
1539131346792923,-0.19122606240939977,0.7610589761196307,-0.6297093156328679
1539131346808928,-0.1885404745555812,0.7565423056382086,-0.6282444495307851
1539131346824934,-0.19012741283283763,0.7645990691996642,-0.6255588616769665
1539131346840939,-0.18841840238040763,0.7592278934920271,-0.6294651712825208
1539131346856933,-0.18341344319829078,0.7566643778133821,-0.6287327382314793
1539131346872939,-0.1757228961623558,0.7543450064850843,-0.6267795834287022
1539131346888944,-0.1736476691844051,0.75898374914168,-0.6253147173266194
1539131346904950,-0.17254901960784297,0.7593499656672007,-0.6300755321583886
1539131346920955,-0.17438010223544653,0.7647211413748378,-0.6275120164797436
1539131346936961,-0.1736476691844051,0.7660639353017471,-0.6330052643625543
1539131346952966,-0.17084000915541298,0.7658197909514,-0.6388647287708857
1539131346968972,-0.16925307087815655,0.763256275272755,-0.6409399557488364
1539131346984977,-0.16803234912642084,0.7631342030975814,-0.6403295948729686
1539131347000983,-0.16766613260090013,0.7591058213168536,-0.6345922026398108
1539131347016988,-0.1745021744106201,0.76069275959411,-0.6283665217059586
1539131347032994,-0.18365758754863792,0.7573968108644236,-0.6288548104066529
1539131347048999,-0.18866254673075478,0.7586175326161593,-0.6250705729762722
1539131347065005,-0.19305714503700333,0.758129243915465,-0.6232394903486687
1539131347081010,-0.1928130006866562,0.7602044708934157,-0.6270237277790494
1539131347097016,-0.19671931029221046,0.7594720378423743,-0.6292210269321736
1539131347113021,-0.20587472343022828,0.7609369039444571,-0.6339818417639429
1539131347129027,-0.2108796826123447,0.7566643778133821,-0.6381322957198443
1539131347145033,-0.20733958953231113,0.7560540169375143,-0.6370336461432822
1539131347161038,-0.20526436255436042,0.7548332951857786,-0.6287327382314793
1539131347177032,-0.19830624856946688,0.7531242847333486,-0.6218966964217594
1539131347193037,-0.18976119630731692,0.7544670786602579,-0.6178683146410315
1539131347209042,-0.18231479362172864,0.7578850995651178,-0.612619211108568
1539131347225047,-0.18072785534447222,0.7558098725871671,-0.6148165102616923
1539131347241052,-0.1753566796368351,0.7621576256961928,-0.6195773250934615
1539131347257057,-0.17975127794308365,0.7648432135500114,-0.6303196765087358
1539131347273062,-0.18268101014724936,0.7656977187762264,-0.64106202792401
1539131347289067,-0.17840848401617437,0.7750972762645914,-0.64789806973373
1539131347305072,-0.1677882047760737,0.7754634927901121,-0.6519264515144578
1539131347321077,-0.16156252384222158,0.7716792553597314,-0.65131609063859
1539131347337082,-0.167421988250553,0.7671625848783092,-0.6414282444495307
1539131347353088,-0.1770656900892651,0.7685053788052185,-0.6297093156328679
1539131347369093,-0.1850003814755472,0.7645990691996642,-0.6238498512245365
1539131347385098,-0.1973296711680783,0.7608148317692836,-0.6205539024948501
1539131347401103,-0.2024567025253683,0.7532463569085222,-0.6172579537651637
1539131347417108,-0.20270084687571543,0.7527580682078279,-0.6172579537651637
1539131347433113,-0.20428778515297186,0.7517814908064393,-0.6162813763637751
1539131347449118,-0.20502021820401328,0.7551995117112993,-0.6170138094148165
1539131347465123,-0.19940489814602902,0.7626459143968871,-0.6206759746700237
1539131347481128,-0.2016021972991533,0.7628900587472343,-0.6347142748149843
1539131347497161,-0.20514229037918685,0.7644769970244907,-0.6369115739681086
1539131347513167,-0.20526436255436042,0.763256275272755,-0.63593499656672
1539131347529173,-0.19501029983978047,0.7677729457541771,-0.6336156252384222
1539131347545178,-0.18194857709620793,0.7622796978713664,-0.6297093156328679
1539131347561184,-0.17230487525749583,0.7633783474479285,-0.6248264286259251
1539131347577189,-0.17010757610437155,0.7660639353017471,-0.6201876859693294
1539131347593195,-0.16717784390020585,0.7703364614328221,-0.6260471503776608
1539131347609200,-0.16913099870298298,0.7647211413748378,-0.6332494087129015
1539131347625206,-0.17218280308232226,0.7686274509803921,-0.6371557183184557
1539131347641211,-0.17767605096513295,0.7648432135500114,-0.6394750896467536
1539131347657217,-0.18109407186999293,0.7664301518272678,-0.6328831921873808
1539131347673222,-0.1881742580300605,0.7638666361486228,-0.6292210269321736
1539131347689228,-0.1914702067597469,0.7608148317692836,-0.6209201190203708
1539131347705233,-0.19293507286182976,0.7613031204699778,-0.6184786755168994
1539131347721239,-0.19586480506599546,0.7587396047913328,-0.6189669642175937
1539131347737244,-0.19855039291981402,0.7549553673609521,-0.6172579537651637
1539131347753250,-0.19671931029221046,0.7655756466010528,-0.6238498512245365
1539131347769255,-0.20209048599984758,0.7599603265430686,-0.6334935530632486
1539131347785261,-0.19598687724116903,0.7621576256961928,-0.636789501792935
1539131347801266,-0.1906157015335319,0.7609369039444571,-0.6332494087129015
1539131347817260,-0.1881742580300605,0.7600823987182421,-0.6271457999542229
1539131347833266,-0.18963912413214334,0.7592278934920271,-0.6204318303196765
1539131347849271,-0.19354543373769761,0.7600823987182421,-0.6146944380865187
1539131347865277,-0.19391165026321833,0.7593499656672007,-0.6127412832837416
1539131347881282,-0.1965972381170369,0.7621576256961928,-0.6196993972686351
1539131347897288,-0.1914702067597469,0.7577630273899443,-0.6266575112535286
1539131347913293,-0.18365758754863792,0.766674296177615,-0.6319066147859922
1539131347929299,-0.18304722667277007,0.7705806057831692,-0.6360570687418936
1539131347945304,-0.19354543373769761,0.7678950179293507,-0.6405737392233157
1539131347961310,-0.1952544441901276,0.7715571831845578,-0.6432593270771343
1539131347977316,-0.1881742580300605,0.7772945754177156,-0.6430151827267871
1539131347993321,-0.19122606240939977,0.7720454718852521,-0.6405737392233157
1539131348009327,-0.1902494850080112,0.76923781185626,-0.6345922026398108
1539131348025332,-0.1885404745555812,0.7633783474479285,-0.6297093156328679
1539131348041338,-0.18451209277485292,0.7553215838864729,-0.6196993972686351
1539131348057343,-0.18109407186999293,0.7486076142519265,-0.6167696650644694
1539131348073349,-0.1841458762493322,0.7415274280918593,-0.6076142519264516
1539131348089354,-0.19012741283283763,0.7429922941939422,-0.599801632715343
1539131348105360,-0.1981841763942933,0.7429922941939422,-0.6000457770656902
1539131348121365,-0.1961089494163426,0.7516594186312657,-0.6071259632257573
1539131348137390,-0.19012741283283763,0.7558098725871671,-0.6159151598382544
1539131348153395,-0.19098191805905262,0.7667963683527885,-0.6278782330052644
1539131348169401,-0.1961089494163426,0.7722896162355992,-0.6378881513694972
1539131348185406,-0.2016021972991533,0.7725337605859464,-0.6433813992523079
1539131348201412,-0.2033112077515833,0.7760738536659799,-0.6431372549019607
1539131348217417,-0.19562066071564832,0.7743648432135499,-0.6421606775005722
1539131348233423,-0.18731975280384505,0.7782711528191042,-0.6386205844205386
1539131348249428,-0.1858548867017622,0.7744869153887235,-0.6345922026398108
1539131348265434,-0.18365758754863792,0.7713130388342107,-0.6306858930342565
1539131348281439,-0.1858548867017622,0.7605706874189364,-0.6276340886549172
1539131348297445,-0.18341344319829078,0.7561760891126879,-0.6183566033417258
1539131348313450,-0.18634317540245648,0.7477531090257115,-0.6135957885099566
1539131348329456,-0.19635309376668975,0.749584191653315,-0.6088349736781873
1539131348345461,-0.19855039291981402,0.7573968108644236,-0.6038300144960709
1539131348361467,-0.19830624856946688,0.7604486152437628,-0.611764705882353
1539131348377473,-0.1969634546425576,0.761547264820325,-0.6258030060273136
1539131348393478,-0.20135805294880615,0.7677729457541771,-0.6336156252384222
1539131348409484,-0.20465400167849257,0.7696040283817807,-0.6338597695887693
1539131348425489,-0.2158846417944611,0.7656977187762264,-0.6292210269321736
1539131348441495,-0.2179598687724118,0.7688715953307392,-0.6272678721293965
1539131348457489,-0.20819409475852613,0.7726558327611199,-0.6276340886549172
1539131348473494,-0.1995269703212026,0.7687495231555657,-0.6280003051804379
1539131348489500,-0.1969634546425576,0.7665522240024414,-0.6244602121004044
1539131348505505,-0.19012741283283763,0.7655756466010528,-0.6183566033417258
1539131348521511,-0.18512245365072078,0.76923781185626,-0.6187228198672465
1539131348537516,-0.1867093919279772,0.7611810482948043,-0.6192111085679408
1539131348553522,-0.18976119630731692,0.7621576256961928,-0.6206759746700237
1539131348569527,-0.19330128938735047,0.7628900587472343,-0.6195773250934615
1539131348585533,-0.1885404745555812,0.7639887083237964,-0.6221408407721065
1539131348601538,-0.19085984588387905,0.76411078049897,-0.6171358815899901
1539131348617544,-0.1837796597238115,0.7700923170824749,-0.6178683146410315
1539131348633549,-0.1870756084534979,0.7705806057831692,-0.6240939955748837
1539131348649555,-0.19415579461356547,0.7656977187762264,-0.6254367895017929
1539131348665560,-0.19415579461356547,0.7677729457541771,-0.6267795834287022
1539131348681566,-0.2007476920729383,0.7671625848783092,-0.622018768596933
1539131348697571,-0.20135805294880615,0.7639887083237964,-0.6227512016479744
1539131348713577,-0.20514229037918685,0.7665522240024414,-0.6184786755168994
1539131348729582,-0.20050354772259116,0.7661860074769207,-0.6225070572976272
1539131348745588,-0.1961089494163426,0.7716792553597314,-0.6231174181734951
1539131348761593,-0.20611886778057542,0.7670405127031357,-0.6244602121004044
1539131348777588,-0.21454184786755182,0.7665522240024414,-0.6215304798962387
1539131348793593,-0.21441977569237824,0.764965285725185,-0.6181124589913787
1539131348809599,-0.20819409475852613,0.7678950179293507,-0.6175020981155108
1539131348825604,-0.19855039291981402,0.7637445639734493,-0.6162813763637751
1539131348841610,-0.20050354772259116,0.7655756466010528,-0.6155489433127337
1539131348857615,-0.20379949645227757,0.7605706874189364,-0.614328221560998
1539131348873621,-0.201968413824674,0.7670405127031357,-0.6154268711375601
1539131348889626,-0.19342336156252404,0.7674067292286564,-0.6173800259403373
1539131348905632,-0.18573281452658863,0.7672846570534828,-0.6226291294728008
1539131348921637,-0.18793011367971335,0.7739986266880292,-0.6290989547570001
1539131348937643,-0.1940337224383919,0.7728999771114671,-0.6248264286259251
1539131348953648,-0.1931792172121769,0.7755855649652856,-0.6245822842755779
1539131348969654,-0.19452201113908618,0.7703364614328221,-0.6233615625238422
1539131348985659,-0.19452201113908618,0.7733882658121614,-0.6206759746700237
1539131349001665,-0.1957427328908219,0.7687495231555657,-0.6200656137941558
1539131349017670,-0.19855039291981402,0.7595941100175478,-0.6193331807431144
1539131349033676,-0.19452201113908618,0.75898374914168,-0.611764705882353
1539131349049681,-0.19964904249637616,0.758129243915465,-0.6052948805981537
1539131349065687,-0.1990386816205083,0.7628900587472343,-0.6055390249485009
1539131349081692,-0.20465400167849257,0.7620355535210193,-0.6101777676050966
1539131349097717,-0.21063553826199755,0.7655756466010528,-0.6101777676050966
1539131349113722,-0.2116121156633861,0.7710688944838635,-0.6142061493858244
1539131349129728,-0.2171053635461968,0.7702143892576485,-0.6218966964217594
1539131349145733,-0.21954680704966822,0.7716792553597314,-0.6244602121004044
1539131349161739,-0.2141756313420311,0.7694819562066071,-0.6282444495307851
1539131349177744,-0.21649500267032895,0.7680170901045242,-0.6195773250934615
1539131349193750,-0.21405355916685753,0.76923781185626,-0.6150606546120394
1539131349209756,-0.20856031128404684,0.7700923170824749,-0.615182726787213
1539131349225761,-0.20819409475852613,0.7739986266880292,-0.6172579537651637
1539131349241767,-0.20733958953231113,0.7743648432135499,-0.6248264286259251
1539131349257772,-0.20001525902189687,0.7758297093156328,-0.6287327382314793
1539131349273778,-0.19635309376668975,0.7710688944838635,-0.6282444495307851
1539131349289783,-0.19085984588387905,0.7658197909514,-0.6214084077210651
1539131349305789,-0.19391165026321833,0.7638666361486228,-0.6071259632257573
1539131349321794,-0.19720759899290474,0.7647211413748378,-0.6022430762188145
1539131349337800,-0.19330128938735047,0.7627679865720607,-0.6073701075761044
1539131349353805,-0.1876859693293662,0.7588616769665064,-0.612619211108568
1539131349369811,-0.18536659800106792,0.7626459143968871,-0.6115205615320058
1539131349385816,-0.19378957808804476,0.7659418631265735,-0.6113984893568323
1539131349401822,-0.20428778515297186,0.7687495231555657,-0.6132295719844358
1539131349417785,-0.2024567025253683,0.7774166475928892,-0.616891737239643
1539131349433791,-0.20086976424811187,0.7753414206149385,-0.6278782330052644
1539131349449796,-0.20379949645227757,0.7710688944838635,-0.6255588616769665
1539131349465802,-0.20721751735713756,0.7753414206149385,-0.6162813763637751
1539131349481807,-0.2048981460288397,0.7671625848783092,-0.6145723659113451
1539131349497813,-0.20294499122606258,0.7669184405279621,-0.611764705882353
1539131349513818,-0.201968413824674,0.7642328526741435,-0.6096894789044023
1539131349529824,-0.20648508430609613,0.7603265430685893,-0.604928664072633
1539131349545829,-0.20770580605783184,0.7599603265430686,-0.6030975814450295
1539131349561835,-0.2095368886854354,0.7656977187762264,-0.6041962310215916
1539131349577840,-0.20416571297779829,0.7715571831845578,-0.606637674525063
1539131349593846,-0.20904859998474112,0.7674067292286564,-0.6153047989623865
1539131349609851,-0.20819409475852613,0.7754634927901121,-0.6207980468451972
1539131349625857,-0.20392156862745114,0.7783932249942778,-0.6221408407721065
1539131349641862,-0.20135805294880615,0.7825436789501792,-0.6286106660563058
1539131349657868,-0.19305714503700333,0.7768062867170213,-0.6331273365377279
1539131349673874,-0.18963912413214334,0.7791256580453192,-0.6288548104066529
1539131349689879,-0.18976119630731692,0.7758297093156328,-0.6175020981155108
1539131349705885,-0.19244678416113548,0.7705806057831692,-0.6111543450064851
1539131349721890,-0.19513237201495404,0.7667963683527885,-0.6052948805981537
1539131349737915,-0.1981841763942933,0.76411078049897,-0.6013885709925995
1539131349753920,-0.20001525902189687,0.7630121309224078,-0.5966277561608302
1539131349769926,-0.20672922865644328,0.7575188830395971,-0.5988250553139545
1539131349785931,-0.2091706721599147,0.7600823987182421,-0.5968719005111773
1539131349801937,-0.21271076523994825,0.76069275959411,-0.6024872205691616
1539131349817942,-0.21490806439307253,0.7610589761196307,-0.6077363241016251
1539131349833948,-0.2083161669336997,0.7737544823376821,-0.608346684977493
1539131349849953,-0.20648508430609613,0.7787594415197985,-0.619455252918288
1539131349865959,-0.21100175478751826,0.7810788128480963,-0.6320286869611658
1539131349881964,-0.21173418783855968,0.7888914320592049,-0.6371557183184557
1539131349897970,-0.20563057907988114,0.7853513389791713,-0.6426489662012664
1539131349913975,-0.20563057907988114,0.7832761120012206,-0.6349584191653315
1539131349929981,-0.20221255817502115,0.7786373693446249,-0.6173800259403373
1539131349945986,-0.2048981460288397,0.7714351110093842,-0.6068818188754102
1539131349961992,-0.20257877470054186,0.7665522240024414,-0.6001678492408637
1539131349977997,-0.19464408331425975,0.761547264820325,-0.5979705500877395
1539131349994003,-0.1846341649500265,0.7643549248493171,-0.5988250553139545
1539131350010008,-0.18304722667277007,0.7616693369954985,-0.6028534370946823
1539131350026014,-0.18597695887693577,0.7659418631265735,-0.6078583962767987
1539131350042019,-0.19208056763561476,0.76411078049897,-0.6142061493858244
1539131350058014,-0.19464408331425975,0.7681391622796978,-0.6128633554589151
1539131350074019,-0.20123598077363258,0.7715571831845578,-0.6123750667582208
1539131350090025,-0.20550850690470757,0.76752880140383,-0.6090791180285344
1539131350106030,-0.20892652780956755,0.7730220492866406,-0.6039520866712444
1539131350122036,-0.20978103303578255,0.7791256580453192,-0.6055390249485009
1539131350138041,-0.2095368886854354,0.7744869153887235,-0.6098115510795759
1539131350154047,-0.20807202258335256,0.7753414206149385,-0.6166475928892958
1539131350170052,-0.21136797131303897,0.7755855649652856,-0.6183566033417258
1539131350186058,-0.21637293049515538,0.7682612344548714,-0.6188448920424201
1539131350202063,-0.21515220874341967,0.7647211413748378,-0.6162813763637751
1539131350218069,-0.2124666208896011,0.7638666361486228,-0.6078583962767987
1539131350234074,-0.20062561989776473,0.7619134813458457,-0.6024872205691616
1539131350250080,-0.19220263981078833,0.7635004196231021,-0.598947127489128
1539131350266085,-0.18524452582589435,0.7682612344548714,-0.5991912718394752
1539131350282091,-0.18512245365072078,0.7671625848783092,-0.6030975814450295
1539131350298096,-0.19476615548943332,0.7750972762645914,-0.6068818188754102
1539131350314102,-0.20221255817502115,0.7774166475928892,-0.6131074998092623
1539131350330107,-0.20929274433508827,0.7854734111543449,-0.6164034485389487
1539131350346113,-0.21564049744411395,0.783154039826047,-0.6261692225528344
1539131350362118,-0.20880445563439398,0.778027008468757,-0.6290989547570001
1539131350378112,-0.20587472343022828,0.7770504310673685,-0.6233615625238422
1539131350394118,-0.20172426947432687,0.7754634927901121,-0.6176241702906844
1539131350410123,-0.19940489814602902,0.7754634927901121,-0.6076142519264516
1539131350426129,-0.20148012512397973,0.7736324101625085,-0.5971160448615245
1539131350442134,-0.21271076523994825,0.7753414206149385,-0.5917448691538874
1539131350458140,-0.22418554970626392,0.7716792553597314,-0.5951628900587473
1539131350474146,-0.22626077668421463,0.7671625848783092,-0.6001678492408637
1539131350490151,-0.22101167315175108,0.7719233997100785,-0.6132295719844358
1539131350506157,-0.21893644617380037,0.7779049362935835,-0.6218966964217594
1539131350522162,-0.2213778896772718,0.7892576485847256,-0.6239719233997101
1539131350538168,-0.2255283436331732,0.7949950408178834,-0.6250705729762722
1539131350554173,-0.22735942626077676,0.786572060730907,-0.6248264286259251
1539131350570179,-0.22198825055313964,0.7699702449073014,-0.6216525520714122
1539131350586184,-0.20233463035019472,0.7580071717402914,-0.6162813763637751
1539131350602190,-0.18341344319829078,0.751293202105745,-0.5988250553139545
1539131350618195,-0.1741359578850994,0.74531166552224,-0.5893034256504159
1539131350634201,-0.1690089265278094,0.7488517586022736,-0.5834439612420845
1539131350650206,-0.17425803006027296,0.7541008621347371,-0.584176394293126
1539131350666212,-0.1795071335927365,0.7627679865720607,-0.5962615396353095
1539131350682217,-0.18280308232242293,0.7733882658121614,-0.6137178606851301
1539131350698242,-0.18963912413214334,0.7783932249942778,-0.6227512016479744
1539131350714247,-0.19293507286182976,0.7855954833295185,-0.6292210269321736
1539131350730253,-0.19171435111009405,0.7952391851682306,-0.6348363469901579
1539131350746258,-0.19769588769359903,0.7946288242923627,-0.6395971618219272
1539131350762264,-0.20392156862745114,0.7903562981612877,-0.635080491340505
1539131350778269,-0.20892652780956755,0.7763179980163271,-0.6258030060273136
1539131350794275,-0.2112458991378654,0.7714351110093842,-0.6112764171816587
1539131350810280,-0.2153963530937668,0.7663080796520942,-0.600656137941558
1539131350826286,-0.2074616617074847,0.7619134813458457,-0.5913786526283666
1539131350842291,-0.21026932173647683,0.7631342030975814,-0.5906462195773252
1539131350858297,-0.20990310521095612,0.7635004196231021,-0.5932097352559702
1539131350874302,-0.21051346608682397,0.7676508735790035,-0.5988250553139545
1539131350890308,-0.2074616617074847,0.7720454718852521,-0.606637674525063
1539131350906314,-0.20685130083161685,0.7769283588921949,-0.6183566033417258
1539131350922319,-0.20343327992675686,0.7791256580453192,-0.6236057068741894
1539131350938325,-0.19635309376668975,0.7821774624246585,-0.6216525520714122
1539131350954330,-0.1973296711680783,0.7803463797970549,-0.6175020981155108
1539131350970336,-0.20233463035019472,0.7725337605859464,-0.6121309224078737
1539131350986341,-0.1986724650949876,0.7718013275349049,-0.6033417257953766
1539131351002347,-0.201113908598459,0.7691157396810864,-0.5982146944380866
1539131351018341,-0.1961089494163426,0.7664301518272678,-0.6010223544670787
1539131351034346,-0.19378957808804476,0.761547264820325,-0.6041962310215916
1539131351050352,-0.19244678416113548,0.7611810482948043,-0.6077363241016251
1539131351066357,-0.18866254673075478,0.7652094300755321,-0.6063935301747159
1539131351082363,-0.19501029983978047,0.7735103379873349,-0.6050507362478066
1539131351098368,-0.19794003204394617,0.7803463797970549,-0.6071259632257573
1539131351114374,-0.2100251773861297,0.7757076371404592,-0.6124971389333944
1539131351130379,-0.20733958953231113,0.7737544823376821,-0.6157930876630808
1539131351146385,-0.20758373388265827,0.7721675440604256,-0.6162813763637751
1539131351162390,-0.20550850690470757,0.7736324101625085,-0.6113984893568323
1539131351178396,-0.20563057907988114,0.7718013275349049,-0.6073701075761044
1539131351194401,-0.20379949645227757,0.7754634927901121,-0.6012664988174259
1539131351210407,-0.20233463035019472,0.7736324101625085,-0.6034637979705502
1539131351226412,-0.19842832074464045,0.7747310597390706,-0.6087129015030137
1539131351242418,-0.19513237201495404,0.7785152971694513,-0.6173800259403373
1539131351258423,-0.19598687724116903,0.7807125963225756,-0.6176241702906844
1539131351274429,-0.20148012512397973,0.7893797207598992,-0.6170138094148165
1539131351290434,-0.21014724956130326,0.7870603494316013,-0.614328221560998
1539131351306440,-0.20965896086060898,0.7829098954756999,-0.6129854276340887
1539131351322445,-0.21234454871442754,0.7747310597390706,-0.6062714579995423
1539131351338470,-0.21063553826199755,0.7710688944838635,-0.6033417257953766
1539131351354476,-0.21649500267032895,0.7650873579003585,-0.602365148393988
1539131351370481,-0.2150301365682461,0.7608148317692836,-0.6004119935912109
1539131351386487,-0.21014724956130326,0.7584954604409857,-0.6034637979705502
1539131351402492,-0.20428778515297186,0.7658197909514,-0.604074158846418
1539131351418498,-0.20733958953231113,0.7710688944838635,-0.598092622262913
1539131351434503,-0.20758373388265827,0.7866941329060806,-0.5950408178835738
1539131351450509,-0.2083161669336997,0.7873044937819484,-0.5974822613870452
1539131351466514,-0.2074616617074847,0.7884031433585106,-0.6073701075761044
1539131351482520,-0.20062561989776473,0.7807125963225756,-0.6206759746700237
1539131351498525,-0.19134813458457334,0.7691157396810864,-0.6276340886549172
1539131351514531,-0.18597695887693577,0.7652094300755321,-0.6240939955748837
1539131351530536,-0.1808499275196458,0.7622796978713664,-0.6178683146410315
1539131351546542,-0.17486839093614082,0.7621576256961928,-0.6138399328603037
1539131351562547,-0.16302738994430443,0.7755855649652856,-0.6060273136491952
1539131351578553,-0.16180666819256873,0.7838864728770885,-0.6034637979705502
1539131351594558,-0.16034180209048587,0.7995117112993055,-0.6127412832837416
1539131351610564,-0.164003967345693,0.7984130617227434,-0.6250705729762722
1539131351626569,-0.17694361791409152,0.8009765774013884,-0.6323949034866865
1539131351642575,-0.18731975280384505,0.7958495460440984,-0.6349584191653315
1539131351658569,-0.20318913557640972,0.7812008850232699,-0.6283665217059586
1539131351674574,-0.21063553826199755,0.7707026779583428,-0.6115205615320058
1539131351690580,-0.21307698176546896,0.7659418631265735,-0.5912565804531931
1539131351706586,-0.22565041580834677,0.7586175326161593,-0.574776836804761
1539131351722591,-0.23175402456702532,0.7562981612878614,-0.568795300221256
1539131351738597,-0.22796978713664462,0.7580071717402914,-0.5701380941481653
1539131351754602,-0.22577248798352034,0.7630121309224078,-0.5836881055924317
1539131351770608,-0.2301670862897689,0.7611810482948043,-0.6005340657663845
1539131351786613,-0.23089951934081032,0.7698481727321278,-0.6104219119554437
1539131351802619,-0.22833600366216533,0.7754634927901121,-0.6175020981155108
1539131351818624,-0.21734950789654395,0.7772945754177156,-0.6237277790493629
1539131351834630,-0.20611886778057542,0.7859616998550392,-0.6218966964217594
1539131351850635,-0.2033112077515833,0.7847409781033035,-0.6200656137941558
1539131351866641,-0.2016021972991533,0.780590524147402,-0.6190890363927672
1539131351882646,-0.19549858854047475,0.7769283588921949,-0.6112764171816587
1539131351898652,-0.18426794842450578,0.7749752040894178,-0.6018768596932937
1539131351914657,-0.17584496833752938,0.7658197909514,-0.598947127489128
1539131351930663,-0.16290531776913086,0.7645990691996642,-0.5995574883649959
1539131351946668,-0.1581445029373616,0.7722896162355992,-0.600656137941558
1539131351962674,-0.163149462119478,0.778027008468757,-0.6128633554589151
1539131351978668,-0.17608911268787653,0.7812008850232699,-0.6205539024948501
1539131351994673,-0.18793011367971335,0.7849851224536506,-0.6297093156328679
1539131352010679,-0.19183642328526762,0.789990081635767,-0.6286106660563058
1539131352026684,-0.19586480506599546,0.7906004425116349,-0.6209201190203708
1539131352042690,-0.1969634546425576,0.783154039826047,-0.6156710154879073
1539131352058695,-0.19305714503700333,0.7764400701915006,-0.6055390249485009
1539131352074701,-0.1902494850080112,0.7771725032425421,-0.5982146944380866
1539131352090706,-0.1957427328908219,0.7644769970244907,-0.5990691996643016
1539131352106712,-0.20209048599984758,0.7650873579003585,-0.5960173952849623
1539131352122717,-0.20770580605783184,0.7656977187762264,-0.5923552300297552
1539131352138723,-0.20941481651026184,0.7648432135500114,-0.5974822613870452
1539131352154729,-0.20611886778057542,0.7697261005569542,-0.6033417257953766
1539131352170734,-0.1973296711680783,0.7727779049362935,-0.6098115510795759
1539131352186740,-0.19647516594186332,0.768383306630045,-0.6132295719844358
1539131352202745,-0.19378957808804476,0.7769283588921949,-0.607492179751278
1539131352218751,-0.19049362935835834,0.7827878233005263,-0.6029755092698559
1539131352234756,-0.19012741283283763,0.7949950408178834,-0.6156710154879073
1539131352250762,-0.19208056763561476,0.7903562981612877,-0.6289768825818265
1539131352266767,-0.18573281452658863,0.7877927824826427,-0.6339818417639429
1539131352282773,-0.18255893797207579,0.782299534599832,-0.6240939955748837
1539131352298797,-0.18194857709620793,0.7725337605859464,-0.6070038910505837
1539131352314803,-0.18048371099412508,0.7636224917982757,-0.5917448691538874
1539131352330808,-0.1803616388189515,0.759838254367895,-0.5786831464103153
1539131352346814,-0.18475623712520006,0.7578850995651178,-0.5802700846875717
1539131352362819,-0.1923247119859619,0.759838254367895,-0.5839322499427788
1539131352378825,-0.20392156862745114,0.7628900587472343,-0.5866178377965974
1539131352394830,-0.21405355916685753,0.7687495231555657,-0.5927214465552759
1539131352410836,-0.23334096284428174,0.7732661936369878,-0.5952849622339209
1539131352426841,-0.2482337682154574,0.7781490806439306,-0.6019989318684673
1539131352442847,-0.273380636301213,0.7958495460440984,-0.6073701075761044
1539131352458852,-0.24933241779201953,0.8169680323491262,-0.6344701304646372
1539131352474858,-0.206240939955749,0.8120851453421833,-0.6592507820248721
1539131352490863,-0.16668955519951156,0.8043945983062484,-0.6596169985503928
1539131352506869,-0.14984359502555877,0.7859616998550392,-0.636789501792935
1539131352522874,-0.15631342030975803,0.7702143892576485,-0.6012664988174259
1539131352538880,-0.18573281452658863,0.7554436560616464,-0.5746547646295874
1539131352554885,-0.2074616617074847,0.7487296864271,-0.5657434958419167
1539131352570891,-0.21857022964827966,0.7527580682078279,-0.5667200732433053
1539131352586897,-0.22504005493247892,0.7588616769665064,-0.579049362935836
1539131352602902,-0.21893644617380037,0.7705806057831692,-0.5956511787594416
1539131352618896,-0.2258945601586939,0.7736324101625085,-0.6037079423208973
1539131352634902,-0.21893644617380037,0.788281071183337,-0.6142061493858244
1539131352650907,-0.205386434729534,0.7984130617227434,-0.6228732738231479
1539131352666913,-0.20062561989776473,0.795117112993057,-0.6281223773556115
1539131352682918,-0.20819409475852613,0.7909666590371556,-0.6232394903486687
1539131352698924,-0.21515220874341967,0.788281071183337,-0.6113984893568323
1539131352714929,-0.21051346608682397,0.7866941329060806,-0.6062714579995423
1539131352730935,-0.20294499122606258,0.7808346684977492,-0.604928664072633
1539131352746940,-0.1969634546425576,0.7761959258411535,-0.6034637979705502
1539131352762946,-0.19671931029221046,0.7707026779583428,-0.6009002822919052
1539131352778951,-0.1986724650949876,0.7713130388342107,-0.5976043335622188
1539131352794957,-0.19635309376668975,0.7664301518272678,-0.5987029831387809
1539131352810962,-0.1961089494163426,0.7686274509803921,-0.5968719005111773
1539131352826968,-0.1990386816205083,0.7724116884107728,-0.5968719005111773
1539131352842973,-0.20502021820401328,0.7760738536659799,-0.601510643167773
1539131352858979,-0.206240939955749,0.7807125963225756,-0.6030975814450295
1539131352874984,-0.207095445181964,0.7825436789501792,-0.603219653620203
1539131352890990,-0.21026932173647683,0.7783932249942778,-0.6051728084229802
1539131352906995,-0.2150301365682461,0.7798580910963606,-0.610910200656138
1539131352923001,-0.21686121919584966,0.7796139467460135,-0.6096894789044023
1539131352938995,-0.2208896009765775,0.7777828641184099,-0.6098115510795759
1539131352955001,-0.2112458991378654,0.7761959258411535,-0.6139620050354773
1539131352971006,-0.20758373388265827,0.7728999771114671,-0.6046845197222859
1539131352987012,-0.19977111467154973,0.7669184405279621,-0.5961394674601359
1539131353003017,-0.202822919050889,0.7621576256961928,-0.5902800030518045
1539131353019023,-0.19916075379568188,0.7626459143968871,-0.5849088273441674
1539131353035028,-0.20086976424811187,0.7605706874189364,-0.5852750438696881
1539131353051034,-0.19830624856946688,0.7665522240024414,-0.5923552300297552
1539131353067039,-0.19623102159151617,0.7782711528191042,-0.6005340657663845
1539131353083045,-0.19378957808804476,0.7851071946288242,-0.610055695429923
1539131353099050,-0.2007476920729383,0.7879148546578163,-0.6195773250934615
1539131353115056,-0.20050354772259116,0.7935301747158006,-0.6234836346990158
1539131353131061,-0.19794003204394617,0.7906004425116349,-0.6278782330052644
1539131353147067,-0.19855039291981402,0.7846189059281299,-0.6233615625238422
1539131353163072,-0.1981841763942933,0.7836423285267413,-0.6137178606851301
1539131353179078,-0.20416571297779829,0.7802243076218813,-0.6065156023498894
1539131353195083,-0.2112458991378654,0.7700923170824749,-0.6004119935912109
1539131353211089,-0.21515220874341967,0.7621576256961928,-0.5912565804531931
1539131353227094,-0.21234454871442754,0.7570305943389029,-0.5839322499427788
1539131353243100,-0.2171053635461968,0.7536125734340429,-0.5780727855344474
1539131353259124,-0.21869230182345323,0.7658197909514,-0.5779507133592738
1539131353275130,-0.21734950789654395,0.7711909666590371,-0.5872281986724652
1539131353291135,-0.2158846417944611,0.7720454718852521,-0.6029755092698559
1539131353307141,-0.21368734264133682,0.7794918745708399,-0.6101777676050966
1539131353323146,-0.20807202258335256,0.7852292668039977,-0.6124971389333944
1539131353339152,-0.2124666208896011,0.7862058442053863,-0.6165255207141223
1539131353355157,-0.22149996185244536,0.7796139467460135,-0.6170138094148165
1539131353371163,-0.2200350957503625,0.7833981841763942,-0.6101777676050966
1539131353387169,-0.21014724956130326,0.7842526894026092,-0.602365148393988
1539131353403174,-0.2016021972991533,0.7799801632715342,-0.5995574883649959
1539131353419180,-0.2024567025253683,0.7772945754177156,-0.5973601892118716
1539131353435185,-0.206240939955749,0.7742427710383764,-0.6000457770656902
1539131353451191,-0.19671931029221046,0.7718013275349049,-0.6044403753719387
1539131353467196,-0.1948882276646069,0.7699702449073014,-0.6088349736781873
1539131353483202,-0.19220263981078833,0.7702143892576485,-0.6007782101167316
1539131353499207,-0.18683146410315077,0.7755855649652856,-0.5933318074311438
1539131353515213,-0.1948882276646069,0.7708247501335164,-0.5957732509346152
1539131353531218,-0.20465400167849257,0.7779049362935835,-0.5961394674601359
1539131353547224,-0.2196688792248418,0.7821774624246585,-0.5993133440146488
1539131353563229,-0.23370717936980245,0.783154039826047,-0.6128633554589151
1539131353579223,-0.2330968184939346,0.7813229571984435,-0.6150606546120394
1539131353595229,-0.22601663233386748,0.7844968337529563,-0.6099336232547494
1539131353611234,-0.2191805905241475,0.7815671015487906,-0.6044403753719387
1539131353627240,-0.21979095140001537,0.7897459372854199,-0.598092622262913
1539131353643245,-0.22027924010070965,0.7853513389791713,-0.6002899214160373
1539131353659251,-0.21344319829098968,0.7852292668039977,-0.6022430762188145
1539131353675256,-0.20636301213092256,0.789135576409552,-0.6027313649195087
1539131353691262,-0.2095368886854354,0.7825436789501792,-0.6089570458533609
1539131353707267,-0.21771572442206466,0.7813229571984435,-0.6087129015030137
1539131353723273,-0.21698329137102323,0.7791256580453192,-0.6093232623788816
1539131353739278,-0.21832608529793252,0.7782711528191042,-0.6054169527733273
1539131353755284,-0.21197833218890683,0.7821774624246585,-0.6055390249485009
1539131353771289,-0.19940489814602902,0.7932860303654534,-0.6096894789044023
1539131353787295,-0.20379949645227757,0.7935301747158006,-0.610910200656138
1539131353803300,-0.205386434729534,0.789135576409552,-0.6155489433127337
1539131353819306,-0.2100251773861297,0.7602044708934157,-0.6300755321583886
1539131353835312,-0.19855039291981402,0.75556572823682,-0.6121309224078737
1539131353851317,-0.1862211032272829,0.7730220492866406,-0.5684290836957353
1539131353867323,-0.2016021972991533,0.7627679865720607,-0.5582970931563285
1539131353883328,-0.21454184786755182,0.747875181200885,-0.567086289768826
1539131353899353,-0.20318913557640972,0.7608148317692836,-0.5788052185854888
1539131353915358,-0.2048981460288397,0.7722896162355992,-0.5882047760738538
1539131353931364,-0.21686121919584966,0.7759517814908063,-0.6084687571526666
1539131353947369,-0.2188143739986268,0.7813229571984435,-0.6209201190203708
1539131353963375,-0.21527428091859324,0.7820553902494849,-0.6233615625238422
1539131353979380,-0.21136797131303897,0.7873044937819484,-0.6207980468451972
1539131353995386,-0.20794995040817899,0.7879148546578163,-0.6099336232547494
1539131354011391,-0.2048981460288397,0.7843747615777827,-0.6085908293278401
1539131354027397,-0.20172426947432687,0.7763179980163271,-0.609201190203708
1539131354043402,-0.19855039291981402,0.7711909666590371,-0.6045624475471123
1539131354059408,-0.2007476920729383,0.7696040283817807,-0.5925993743801024
1539131354075413,-0.20685130083161685,0.7669184405279621,-0.5900358587014574
1539131354091419,-0.204531929503319,0.7685053788052185,-0.5974822613870452
1539131354107424,-0.2091706721599147,0.7736324101625085,-0.6000457770656902
1539131354123430,-0.21454184786755182,0.7807125963225756,-0.6062714579995423
1539131354139435,-0.21405355916685753,0.7813229571984435,-0.6157930876630808
1539131354155441,-0.20794995040817899,0.7783932249942778,-0.6187228198672465
1539131354171446,-0.21197833218890683,0.780590524147402,-0.6112764171816587
1539131354187452,-0.21686121919584966,0.7775387197680628,-0.6026092927443352
1539131354203457,-0.2112458991378654,0.7768062867170213,-0.599801632715343
1539131354219452,-0.20233463035019472,0.7747310597390706,-0.6007782101167316
1539131354235457,-0.19806210421911974,0.7671625848783092,-0.6004119935912109
1539131354251463,-0.1981841763942933,0.7694819562066071,-0.595529106584268
1539131354267468,-0.19891660944533474,0.76923781185626,-0.5962615396353095
1539131354283474,-0.20025940337224402,0.7720454718852521,-0.6018768596932937
1539131354299479,-0.201113908598459,0.7766842145418478,-0.6050507362478066
1539131354315485,-0.9732204165712979,-1.5879758907454034,-1.0428015564202333
1539131354331490,0.5856412603952084,2.127534905012589,0.2830243381399251
1539131354347496,0.3489433127336534,1.7198138399328604,-0.6024872205691616
1539131354363501,-0.8233157854581523,0.3859311818112463,-1.214679179064622
1539131354379507,-0.7315175097276265,0.01861600671396957,-1.4762798504615855
1539131354395512,0.05633630884260299,1.0967574578469517,-1.4859235523002976
1539131354411518,0.29791714351110077,1.2630197604333562,-0.833936064698253
1539131354427523,0.09796292057679068,1.1784237430380715,-0.5071488517586022
1539131354443529,-0.33344014648661036,0.867383840695811,-0.44159609369039465
1539131354459534,-0.4417181658655682,0.6270237277790498,-0.53168535896849
1539131354475540,-0.22748149843595034,0.5382772564278628,-0.585030899519341
1539131354491545,-0.12127870603494317,0.5587853818570228,-0.44037537193865894
1539131354507551,-0.16510261692225514,0.6070038910505833,-0.28619821469443796
1539131354523556,-0.17340352483405796,0.6295872434576948,-0.24542610818646526
1539131354539581,-0.18878461890592835,0.6145723659113447,-0.2991378652628365
1539131354555586,-0.26361486228732733,0.5947966735332262,-0.3899595635919737
1539131354571592,-0.3358815899900818,0.5794155794613562,-0.5125200274662394
1539131354587597,-0.3197680628671704,0.6110322728313111,-0.6271457999542229
1539131354603603,-0.2528725108720531,0.6957503624017702,-0.7351796749828337
1539131354619609,-0.21869230182345323,0.7914549477378499,-0.7897459372854199
1539131354635614,-0.22796978713664462,0.8557869840543217,-0.8321049820706494
1539131354651620,-0.2410315098802167,0.8817883573662932,-0.8618905928130007
1539131354667625,-0.2612954909590295,0.8811779964904254,-0.8755626764324407
1539131354683631,-0.24957656214236668,0.8616464484626531,-0.8567635614557108
1539131354699636,-0.2158846417944611,0.825268940260929,-0.8031738765545127
1539131354715642,-0.1644922560463873,0.8092774853131912,-0.7389639124132144
1539131354731647,-0.12762645914396886,0.782299534599832,-0.6710917830167085
1539131354747653,-0.11480888075074391,0.7586175326161593,-0.6072480354009309
1539131354763658,-0.1161516746776532,0.7466544594491493,-0.5668421454184789
1539131354779664,-0.12823682001983672,0.722850385290303,-0.5506065461203935
1539131354795669,-0.1433737697413595,0.7047837033646145,-0.5520714122224764
1539131354811675,-0.163149462119478,0.696971084153506,-0.5457236591134507
1539131354827680,-0.17389181353475225,0.706614785992218,-0.5521934843976499
1539131354843686,-0.18304722667277007,0.7238269626916916,-0.5602502479591056
1539131354859680,-0.19049362935835834,0.7438467994201572,-0.5795376516365303
1539131354875685,-0.202822919050889,0.7550774395361257,-0.608346684977493
1539131354891691,-0.21820401312275894,0.7628900587472343,-0.6304417486839093
1539131354907696,-0.23028915846494247,0.7794918745708399,-0.645334554055085
1539131354923702,-0.23248645761806674,0.7945067521171891,-0.653879606317235
1539131354939707,-0.23004501411459533,0.797680628671702,-0.6618142977035171
1539131354955713,-0.23077744716563675,0.7948729686427098,-0.6560769054703592
1539131354971718,-0.22992294193942175,0.7888914320592049,-0.6466773479819943
1539131354987724,-0.22613870450904106,0.7776607919432363,-0.6358129243915465
1539131355003729,-0.22186617837796607,0.7709468223086899,-0.6182345311665522
1539131355019735,-0.22040131227588322,0.7676508735790035,-0.6087129015030137
1539131355035740,-0.2103913939116504,0.7665522240024414,-0.6116426337071794
1539131355051746,-0.19598687724116903,0.764965285725185,-0.6116426337071794
1539131355067752,-0.18744182497901862,0.763256275272755,-0.6150606546120394
1539131355083757,-0.17596704051270295,0.7600823987182421,-0.6175020981155108
1539131355099763,-0.1749904631113144,0.7577630273899443,-0.6132295719844358
1539131355115768,-0.18048371099412508,0.7613031204699778,-0.610055695429923
1539131355131774,-0.18951705195696977,0.7628900587472343,-0.6087129015030137
1539131355147779,-0.19378957808804476,0.7648432135500114,-0.6082246128023194
1539131355163785,-0.19366750591287119,0.7671625848783092,-0.6153047989623865
1539131355179779,-0.19244678416113548,0.76752880140383,-0.6216525520714122
1539131355195784,-0.1902494850080112,0.7663080796520942,-0.6261692225528344
1539131355211790,-0.1943999389639126,0.7731441214618142,-0.6199435416189822
1539131355227795,-0.19964904249637616,0.7737544823376821,-0.6261692225528344
1539131355243801,-0.21490806439307253,0.7129625391012437,-0.6353246356908522
1539131355259806,-0.1817044327458608,0.7927977416647591,-0.5750209811551081
1539131355275812,-0.18951705195696977,0.8162355992980848,-0.5802700846875717
1539131355291817,-0.24957656214236668,0.725413900968948,-0.650461585412375
1539131355307823,-0.2583657587548638,0.7179674982833602,-0.6417944609750514
1539131355323828,-0.18890669108110192,0.7866941329060806,-0.5984588387884338
1539131355339834,-0.18219272144655507,0.7930418860151063,-0.5928435187304495
1539131355355839,-0.2100251773861297,0.7630121309224078,-0.614328221560998
1539131355371845,-0.21063553826199755,0.7731441214618142,-0.6294651712825208
1539131355387850,-0.20550850690470757,0.7746089875638971,-0.6328831921873808
1539131355403856,-0.21026932173647683,0.7725337605859464,-0.6310521095597772
1539131355419861,-0.21051346608682397,0.7782711528191042,-0.6223849851224537
1539131355435867,-0.20440985732814543,0.7783932249942778,-0.6225070572976272
1539131355451872,-0.20697337300679042,0.7687495231555657,-0.6229953459983215
1539131355467878,-0.20379949645227757,0.7728999771114671,-0.6189669642175937
1539131355483883,-0.2057526512550547,0.7671625848783092,-0.615182726787213
1539131355499878,-0.19745174334325188,0.7647211413748378,-0.6159151598382544
1539131355515883,-0.18756389715419264,0.7600823987182421,-0.6111543450064851
1539131355531889,-0.18963912413214334,0.7559319447623407,-0.604074158846418
1539131355547894,-0.19452201113908618,0.7556878004119936,-0.6012664988174259
1539131355563900,-0.18390173189898507,0.7592278934920271,-0.5995574883649959
1539131355579905,-0.1803616388189515,0.7654535744258792,-0.6030975814450295
1539131355595911,-0.17730983443961224,0.7704585336079957,-0.6131074998092623
1539131355611916,-0.1791409170672158,0.7725337605859464,-0.6240939955748837
1539131355627922,-0.18890669108110192,0.7731441214618142,-0.6319066147859922
1539131355643927,-0.19464408331425975,0.7757076371404592,-0.6328831921873808
1539131355659933,-0.20001525902189687,0.7752193484397649,-0.6341039139391165
1539131355675938,-0.2066071564812697,0.7777828641184099,-0.6283665217059586
1539131355691944,-0.21307698176546896,0.7766842145418478,-0.6204318303196765
1539131355707949,-0.22308690012970178,0.7696040283817807,-0.6107881284809644
1539131355723955,-0.2267490653849089,0.7676508735790035,-0.6002899214160373
1539131355739960,-0.23297474631876103,0.761547264820325,-0.5896696421759366
1539131355755966,-0.2360265506981003,0.75898374914168,-0.5886930647745481
1539131355771971,-0.24335088120851456,0.7562981612878614,-0.5923552300297552
1539131355787977,-0.23871213855191886,0.7625238422217135,-0.600656137941558
1539131355803982,-0.2339513237201496,0.7621576256961928,-0.6101777676050966
1539131355819976,-0.22784771496147105,0.7658197909514,-0.6172579537651637
1539131355835982,-0.21564049744411395,0.768383306630045,-0.6200656137941558
1539131355851987,-0.1952544441901276,0.7736324101625085,-0.6228732738231479
1539131355867993,-0.1808499275196458,0.7732661936369878,-0.6251926451514458
1539131355883998,-0.17669947356374438,0.7720454718852521,-0.6269016556038758
1539131355900004,-0.17645532921339724,0.7728999771114671,-0.6261692225528344
1539131355916010,-0.17352559700923154,0.7757076371404592,-0.6205539024948501
1539131355932015,-0.164003967345693,0.7838864728770885,-0.6189669642175937
1539131355948021,-0.162294956893263,0.7772945754177156,-0.6193331807431144
1539131355964026,-0.16205081254291587,0.7768062867170213,-0.6172579537651637
1539131355980032,-0.17669947356374438,0.7736324101625085,-0.6171358815899901
1539131355996037,-0.1965972381170369,0.7688715953307392,-0.6111543450064851
1539131356012043,-0.21576256961928753,0.7680170901045242,-0.6079804684519723
1539131356028048,-0.23321889066910817,0.7639887083237964,-0.6007782101167316
1539131356044054,-0.24286259250782027,0.7667963683527885,-0.5905241474021516
1539131356060059,-0.2553139543755245,0.7664301518272678,-0.5917448691538874
1539131356076065,-0.2562905317769131,0.7681391622796978,-0.5943083848325323
1539131356092070,-0.25519188220035094,0.7696040283817807,-0.5987029831387809
1539131356108076,-0.25299458304722666,0.7696040283817807,-0.6082246128023194
1539131356124081,-0.24408331425955598,0.7703364614328221,-0.620309758144503
1539131356140075,-0.22735942626077676,0.7699702449073014,-0.6221408407721065
1539131356156081,-0.21112382696269183,0.7732661936369878,-0.6192111085679408
1539131356172086,-0.19806210421911974,0.7737544823376821,-0.6121309224078737
1539131356188092,-0.19134813458457334,0.7776607919432363,-0.6061493858243687
1539131356204097,-0.1885404745555812,0.7731441214618142,-0.6059052414740216
1539131356220103,-0.18646524757763006,0.7707026779583428,-0.6067597467002366
1539131356236108,-0.18280308232242293,0.7715571831845578,-0.6093232623788816
1539131356252114,-0.18060578316929865,0.7711909666590371,-0.6118867780575266
1539131356268119,-0.17901884489204223,0.7749752040894178,-0.6101777676050966
1539131356284125,-0.18683146410315077,0.7764400701915006,-0.608346684977493
1539131356300130,-0.19757381551842546,0.7782711528191042,-0.6061493858243687
1539131356316136,-0.207095445181964,0.7764400701915006,-0.6034637979705502
1539131356332142,-0.21612878614480824,0.7782711528191042,-0.6019989318684673
1539131356348147,-0.22577248798352034,0.7802243076218813,-0.6050507362478066
1539131356364153,-0.23920042725261315,0.7804684519722285,-0.6082246128023194
1539131356380158,-0.24335088120851456,0.7748531319142442,-0.6101777676050966
1539131356396164,-0.2401770046540017,0.7758297093156328,-0.6059052414740216
1539131356412169,-0.2334630350194553,0.7661860074769207,-0.602365148393988
1539131356428175,-0.22015716792553608,0.7650873579003585,-0.5984588387884338
1539131356444180,-0.21454184786755182,0.7603265430685893,-0.6012664988174259
1539131356460205,-0.21014724956130326,0.7661860074769207,-0.5952849622339209
1539131356476210,-0.20856031128404684,0.7658197909514,-0.5957732509346152
1539131356492216,-0.21100175478751826,0.7645990691996642,-0.5913786526283666
1539131356508221,-0.21258869306477468,0.7707026779583428,-0.5932097352559702
1539131356524227,-0.205386434729534,0.7764400701915006,-0.6022430762188145
1539131356540232,-0.1981841763942933,0.7820553902494849,-0.6148165102616923
1539131356556238,-0.19305714503700333,0.7864499885557334,-0.6225070572976272
1539131356572243,-0.19916075379568188,0.7873044937819484,-0.6206759746700237
1539131356588249,-0.21014724956130326,0.7881589990081634,-0.6122529945830473
1539131356604254,-0.2141756313420311,0.7903562981612877,-0.6077363241016251
1539131356620260,-0.2217441062027925,0.7877927824826427,-0.6048065918974594
1539131356636265,-0.2293125810635539,0.7830319676508735,-0.603219653620203
1539131356652271,-0.2284580758373389,0.7791256580453192,-0.6030975814450295
1539131356668276,-0.22992294193942175,0.7700923170824749,-0.6065156023498894
1539131356684282,-0.22442969405661106,0.7637445639734493,-0.6026092927443352
1539131356700287,-0.2263828488593882,0.7628900587472343,-0.5951628900587473
1539131356716293,-0.22650492103456177,0.7645990691996642,-0.5900358587014574
1539131356732298,-0.2289463645380332,0.7702143892576485,-0.5935759517814909
1539131356748304,-0.2251621271076525,0.7754634927901121,-0.5966277561608302
1539131356764310,-0.21515220874341967,0.7766842145418478,-0.5968719005111773
1539131356780304,-0.20733958953231113,0.7783932249942778,-0.6027313649195087
1539131356796309,-0.2016021972991533,0.7775387197680628,-0.6085908293278401
1539131356812315,-0.20209048599984758,0.7793698023956663,-0.6105439841306173
1539131356828320,-0.20697337300679042,0.781445029373617,-0.6059052414740216
1539131356844326,-0.19977111467154973,0.7838864728770885,-0.6095674067292287
1539131356860331,-0.19208056763561476,0.7859616998550392,-0.6131074998092623
1539131356876337,-0.18793011367971335,0.781445029373617,-0.6193331807431144
1539131356892342,-0.18841840238040763,0.7792477302204928,-0.6190890363927672
1539131356908348,-0.18353551537346435,0.7812008850232699,-0.6129854276340887
1539131356924353,-0.18841840238040763,0.7809567406729228,-0.6072480354009309
1539131356940359,-0.1978179598687726,0.7804684519722285,-0.6045624475471123
1539131356956364,-0.21136797131303897,0.7772945754177156,-0.600656137941558
1539131356972370,-0.21698329137102323,0.7757076371404592,-0.5974822613870452
1539131356988375,-0.21930266269932108,0.7743648432135499,-0.596383611810483
1539131357004381,-0.2243076218814375,0.7696040283817807,-0.5919890135042345
1539131357020386,-0.21857022964827966,0.7665522240024414,-0.5924773022049288
1539131357036392,-0.21832608529793252,0.7661860074769207,-0.5945525291828795
1539131357052397,-0.2217441062027925,0.7655756466010528,-0.600656137941558
1539131357068403,-0.22565041580834677,0.7665522240024414,-0.6028534370946823
1539131357084408,-0.22833600366216533,0.7699702449073014,-0.5995574883649959
1539131357100433,-0.23163195239185175,0.7775387197680628,-0.5947966735332266
1539131357116438,-0.23468375677119102,0.7771725032425421,-0.5990691996643016
1539131357132444,-0.2289463645380332,0.7747310597390706,-0.6019989318684673
1539131357148450,-0.21258869306477468,0.7802243076218813,-0.6038300144960709
1539131357164455,-0.20685130083161685,0.7859616998550392,-0.6077363241016251
1539131357180461,-0.203677424277104,0.7816891737239642,-0.6137178606851301
1539131357196466,-0.19476615548943332,0.7804684519722285,-0.6173800259403373
1539131357212472,-0.19000534065766406,0.7757076371404592,-0.6161593041886015
1539131357228477,-0.1902494850080112,0.7704585336079957,-0.6061493858243687
