Timestamp (microseconds),Gyro X (°/s),Gyro Y (°/s),Gyro Z (°/s)
1539131332132171,0.45777065690094787,3.3264667734797513,-0.15259021896690683
1539131332148172,0.5188067444876197,3.2043945983061803,-0.03051804379333589
1539131332164174,0.45777065690094787,3.4485389486533222,-0.3967345693140487
1539131332180175,1.0681315327688026,3.4485389486533222,-0.213626306553806
1539131332196176,1.6784924086366573,3.0823224231326094,0.03051804379333589
1539131332212177,1.8616006713969,2.7161058976118966,0.09155413138023505
1539131332228179,1.3733119707026162,2.8381780727854675,-0.09155413138023505
1539131332244180,1.0070954451819034,2.3498893720911838,-0.3967345693140487
1539131332260181,0.7629510948347615,2.04470893415737,-0.2746623941404778
1539131332276182,0.33569848172737693,2.3498893720911838,0.2746623941404778
1539131332292184,0.03051804379333589,2.288853284504512,0.5188067444876197
1539131332308185,-0.03051804379333589,2.410925459678083,0.5188067444876197
1539131332324186,0.09155413138023505,2.227817196917613,0.6408789196611906
1539131332340187,0.09155413138023505,1.983672846570471,0.15259021896690683
1539131332356188,0.15259021896690683,1.739528496223329,-0.5188067444876197
1539131332372190,0.3967345693140487,1.3122758831159445,-0.8850232700083325
1539131332388191,0.5798428320745188,1.1902037079423735,-0.8239871824216607
1539131332404192,0.6408789196611906,1.3122758831159445,-0.6408789196611906
1539131332420193,0.45777065690094787,1.8005645838102282,-0.2746623941404778
1539131332436195,0.33569848172737693,2.105745021744042,-0.213626306553806
1539131332452179,0.5188067444876197,1.983672846570471,-0.3967345693140487
1539131332468180,0.33569848172737693,2.288853284504512,-0.7629510948347615
1539131332484181,0.2746623941404778,2.410925459678083,-1.1291676203554744
1539131332500182,0.5188067444876197,2.410925459678083,-1.2512397955290453
1539131332516183,0.7629510948347615,2.4719615472647547,-1.0070954451819034
1539131332532185,0.3967345693140487,2.7161058976118966,-0.8239871824216607
1539131332548186,-0.15259021896690683,2.9602502479590385,-0.8239871824216607
1539131332564187,-0.3967345693140487,3.5095750362402214,-0.3967345693140487
1539131332580188,-0.6408789196611906,3.5095750362402214,-0.03051804379333589
1539131332596190,-0.7629510948347615,2.9602502479590385,-0.45777065690094787
1539131332612191,-1.0681315327688026,2.8992141603723667,-1.0070954451819034
1539131332628192,-0.9460593575952316,2.5940337224383256,-1.3122758831159445
1539131332644193,-0.3967345693140487,2.7161058976118966,-1.2512397955290453
1539131332660194,0.3967345693140487,2.288853284504512,-0.9460593575952316
1539131332676196,1.0070954451819034,1.983672846570471,-0.8239871824216607
1539131332692197,1.3122758831159445,1.9226367589837992,-0.6408789196611906
1539131332708198,1.4953841458761872,1.8005645838102282,-0.213626306553806
1539131332724199,1.6174563210497581,1.3122758831159445,0.2746623941404778
1539131332740201,1.5564202334630863,0.7629510948347615,0.45777065690094787
1539131332756202,0.8850232700083325,0.45777065690094787,0.33569848172737693
1539131332772186,0.15259021896690683,0.2746623941404778,0.33569848172737693
1539131332788187,-0.45777065690094787,0.7629510948347615,0.6408789196611906
1539131332804188,-0.7629510948347615,1.0681315327688026,0.9460593575952316
1539131332820190,-0.7019150072480898,0.9460593575952316,1.0681315327688026
1539131332836191,-0.7019150072480898,0.9460593575952316,0.3967345693140487
1539131332852192,-0.6408789196611906,1.0070954451819034,-0.3967345693140487
1539131332868193,-0.09155413138023505,1.1291676203554744,-0.6408789196611906
1539131332884194,0.5798428320745188,1.3733119707026162,-0.2746623941404778
1539131332900196,0.9460593575952316,1.983672846570471,0.09155413138023505
1539131332916197,0.9460593575952316,2.7771419851987957,0.3967345693140487
1539131332932198,0.7629510948347615,3.3875028610666504,0.3967345693140487
1539131332948199,0.8239871824216607,3.5095750362402214,0.09155413138023505
1539131332964201,1.0070954451819034,3.570611123826893,-0.2746623941404778
1539131332980202,1.1291676203554744,3.814755474174035,-0.2746623941404778
1539131332996203,1.0070954451819034,3.814755474174035,-0.2746623941404778
1539131333012204,0.5188067444876197,3.7537193865873633,-0.6408789196611906
1539131333028205,0.213626306553806,4.486152437628789,-0.45777065690094787
1539131333044207,0.5188067444876197,5.584802014190927,0.6408789196611906
1539131333060208,1.6784924086366573,6.073090714885211,1.8616006713969
1539131333076209,2.7771419851987957,6.622415503166167,2.7161058976118966
1539131333092285,3.5095750362402214,6.378271152819025,2.105745021744042
1539131333108286,3.7537193865873633,4.9134050507361735,0.15259021896690683
1539131333124287,3.570611123826893,3.936827649347606,-1.1902037079423735
1539131333140288,3.4485389486533222,4.42511635004189,-0.8850232700083325
1539131333156290,2.9602502479590385,4.364080262455218,-0.213626306553806
1539131333172291,1.983672846570471,3.3875028610666504,0.03051804379333589
1539131333188292,0.7019150072480898,2.9602502479590385,-0.03051804379333589
1539131333204293,-0.3967345693140487,2.3498893720911838,0.33569848172737693
1539131333220295,-1.0681315327688026,2.105745021744042,1.1902037079423735
1539131333236296,-1.4343480582895154,2.227817196917613,1.983672846570471
1539131333252297,-1.3733119707026162,1.6784924086366573,2.3498893720911838
1539131333268298,-0.8850232700083325,1.0070954451819034,1.9226367589837992
1539131333284299,-0.33569848172737693,1.3122758831159445,1.5564202334630863
1539131333300301,0.2746623941404778,1.1902037079423735,1.3122758831159445
1539131333316302,1.1291676203554744,1.0070954451819034,1.0681315327688026
1539131333332303,1.8616006713969,1.3733119707026162,1.0070954451819034
1539131333348304,2.227817196917613,1.6174563210497581,0.8850232700083325
1539131333364306,1.9226367589837992,2.04470893415737,0.213626306553806
1539131333380307,1.3733119707026162,2.7161058976118966,-0.3967345693140487
1539131333396308,1.3122758831159445,2.532997634851654,-1.0070954451819034
1539131333412414,1.1291676203554744,3.2043945983061803,-0.9460593575952316
1539131333428416,0.45777065690094787,3.7537193865873633,-0.7019150072480898
1539131333444418,-0.6408789196611906,4.242008087281647,-0.7629510948347615
1539131333460419,-1.3733119707026162,4.730296787975931,-1.0070954451819034
1539131333476421,-1.6784924086366573,4.242008087281647,-1.5564202334630863
1539131333492423,-1.4343480582895154,4.364080262455218,-1.739528496223329
1539131333508424,-0.7629510948347615,4.486152437628789,-1.4343480582895154
1539131333524426,-0.15259021896690683,4.669260700389032,-1.0070954451819034
1539131333540428,0.45777065690094787,4.852368963149502,-0.6408789196611906
1539131333556429,0.8850232700083325,4.242008087281647,-0.5188067444876197
1539131333572431,1.0070954451819034,3.997863736934505,-0.45777065690094787
1539131333588433,1.1291676203554744,3.570611123826893,-0.15259021896690683
1539131333604435,1.1902037079423735,3.2043945983061803,0.5188067444876197
1539131333620436,0.7629510948347615,3.0823224231326094,1.1902037079423735
1539131333636438,-0.15259021896690683,2.8381780727854675,1.4343480582895154
1539131333652440,-1.1291676203554744,2.8992141603723667,1.3122758831159445
1539131333668441,-1.4953841458761872,2.9602502479590385,1.3733119707026162
1539131333684443,-1.1902037079423735,2.227817196917613,1.1291676203554744
1539131333700445,-0.5188067444876197,1.3733119707026162,0.213626306553806
1539131333716447,0.09155413138023505,1.2512397955290453,-0.5798428320745188
1539131333732513,0.8239871824216607,1.739528496223329,-0.5188067444876197
1539131333748515,1.1291676203554744,2.3498893720911838,-0.03051804379333589
1539131333764517,0.9460593575952316,2.7771419851987957,0.33569848172737693
1539131333780520,0.6408789196611906,2.9602502479590385,0.33569848172737693
1539131333796522,0.33569848172737693,2.8992141603723667,0.2746623941404778
1539131333812524,-0.15259021896690683,2.5940337224383256,0.09155413138023505
1539131333828526,-0.6408789196611906,2.227817196917613,-0.33569848172737693
1539131333844528,-1.1291676203554744,1.983672846570471,-0.6408789196611906
1539131333860530,-1.4953841458761872,2.8992141603723667,-0.03051804379333589
1539131333876533,-1.4343480582895154,3.2654306858930795,0.7629510948347615
1539131333892535,-1.1902037079423735,3.3875028610666504,0.8239871824216607
1539131333908537,-0.8239871824216607,3.1433585107195086,0.09155413138023505
1539131333924539,-0.33569848172737693,2.5940337224383256,-0.9460593575952316
1539131333940541,0.15259021896690683,2.4719615472647547,-1.4343480582895154
1539131333956544,0.6408789196611906,2.4719615472647547,-1.3733119707026162
1539131333972546,1.0070954451819034,2.532997634851654,-1.3122758831159445
1539131333988548,1.3733119707026162,2.410925459678083,-0.7019150072480898
1539131334004550,1.4953841458761872,2.655069810025225,0.03051804379333589
1539131334020552,0.8850232700083325,2.8381780727854675,0.213626306553806
1539131334036554,-0.09155413138023505,2.8381780727854675,0.03051804379333589
1539131334052612,-0.8850232700083325,2.7771419851987957,-0.15259021896690683
1539131334068614,-1.0681315327688026,2.04470893415737,-0.5798428320745188
1539131334084616,-0.8239871824216607,1.8005645838102282,-0.7629510948347615
1539131334100618,-0.7019150072480898,2.3498893720911838,-0.33569848172737693
1539131334116621,-0.33569848172737693,2.532997634851654,-0.03051804379333589
1539131334132623,0.15259021896690683,2.5940337224383256,-0.15259021896690683
1539131334148625,0.45777065690094787,2.5940337224383256,-0.2746623941404778
1539131334164627,0.7629510948347615,2.9602502479590385,-0.2746623941404778
1539131334180629,1.2512397955290453,2.9602502479590385,0.09155413138023505
1539131334196632,1.4343480582895154,3.3264667734797513,0.3967345693140487
1539131334212634,1.4343480582895154,2.8992141603723667,-0.03051804379333589
1539131334228636,1.1902037079423735,3.0212863355459376,-0.7019150072480898
1539131334244638,1.0070954451819034,3.6316472114137923,-0.33569848172737693
1539131334260640,0.8239871824216607,3.570611123826893,0.03051804379333589
1539131334276642,0.45777065690094787,3.936827649347606,-0.15259021896690683
1539131334292645,0.03051804379333589,3.997863736934505,-0.33569848172737693
1539131334308647,0.2746623941404778,3.997863736934505,-0.2746623941404778
1539131334324649,0.7629510948347615,3.570611123826893,-0.33569848172737693
1539131334340651,1.2512397955290453,3.4485389486533222,-0.33569848172737693
1539131334356653,1.6174563210497581,3.1433585107195086,-0.45777065690094787
1539131334372741,1.6174563210497581,3.3875028610666504,0.03051804379333589
1539131334388744,1.4343480582895154,3.814755474174035,0.8850232700083325
1539131334404747,1.4953841458761872,3.4485389486533222,1.0681315327688026
1539131334420749,1.5564202334630863,2.410925459678083,0.5798428320745188
1539131334436752,1.5564202334630863,2.105745021744042,0.5798428320745188
1539131334452755,1.0681315327688026,2.655069810025225,1.3122758831159445
1539131334468757,0.5188067444876197,2.9602502479590385,1.4953841458761872
1539131334484760,0.3967345693140487,2.655069810025225,1.0681315327688026
1539131334500763,0.33569848172737693,2.655069810025225,1.0070954451819034
1539131334516765,0.213626306553806,2.532997634851654,0.7019150072480898
1539131334532768,-0.03051804379333589,2.7771419851987957,0.5188067444876197
1539131334548771,-0.2746623941404778,3.570611123826893,0.7629510948347615
1539131334564773,-0.213626306553806,3.4485389486533222,0.7629510948347615
1539131334580776,-0.15259021896690683,3.3264667734797513,0.09155413138023505
1539131334596778,0.09155413138023505,3.2043945983061803,-0.3967345693140487
1539131334612781,0.5188067444876197,3.2043945983061803,-0.7019150072480898
1539131334628784,0.7629510948347615,2.7771419851987957,-1.0070954451819034
1539131334644786,0.6408789196611906,2.5940337224383256,-1.1291676203554744
1539131334660789,0.45777065690094787,2.8381780727854675,-1.3122758831159445
1539131334676792,0.45777065690094787,2.9602502479590385,-1.0681315327688026
1539131334692810,0.7629510948347615,2.8381780727854675,-0.45777065690094787
1539131334708812,1.0681315327688026,2.4719615472647547,-0.15259021896690683
1539131334724815,1.1902037079423735,1.983672846570471,-0.09155413138023505
1539131334740818,1.1291676203554744,1.5564202334630863,-0.213626306553806
1539131334756820,0.7019150072480898,1.1291676203554744,-0.5188067444876197
1539131334772823,0.2746623941404778,1.5564202334630863,-0.15259021896690683
1539131334788826,-0.09155413138023505,1.739528496223329,0.2746623941404778
1539131334804828,-0.213626306553806,1.0681315327688026,-0.213626306553806
1539131334820831,-0.3967345693140487,0.3967345693140487,-1.2512397955290453
1539131334836834,-0.3967345693140487,0.5188067444876197,-1.5564202334630863
1539131334852836,-0.09155413138023505,1.0070954451819034,-0.8850232700083325
1539131334868839,0.09155413138023505,1.1291676203554744,-0.5188067444876197
1539131334884842,-0.03051804379333589,1.739528496223329,-0.15259021896690683
1539131334900844,0.03051804379333589,2.105745021744042,0.09155413138023505
1539131334916847,0.2746623941404778,2.288853284504512,0.2746623941404778
1539131334932850,0.5188067444876197,2.655069810025225,0.3967345693140487
1539131334948852,0.7629510948347615,2.5940337224383256,-0.09155413138023505
1539131334964855,1.1902037079423735,2.655069810025225,-0.6408789196611906
1539131334980857,1.5564202334630863,2.5940337224383256,-0.8239871824216607
1539131334996860,1.4953841458761872,2.8381780727854675,-0.7019150072480898
1539131335012939,1.1902037079423735,3.0212863355459376,-0.6408789196611906
1539131335028942,1.0681315327688026,3.0212863355459376,-0.7629510948347615
1539131335044945,0.8239871824216607,3.3264667734797513,-0.7019150072480898
1539131335060948,0.7019150072480898,3.3264667734797513,-0.45777065690094787
1539131335076952,0.5188067444876197,3.2654306858930795,-0.45777065690094787
1539131335092955,0.2746623941404778,3.0212863355459376,-0.45777065690094787
1539131335108958,0.09155413138023505,2.7771419851987957,-0.2746623941404778
1539131335124961,-0.09155413138023505,3.0212863355459376,0.09155413138023505
1539131335140964,-0.2746623941404778,3.1433585107195086,0.15259021896690683
1539131335156967,-0.2746623941404778,2.7161058976118966,-0.09155413138023505
1539131335172970,-0.15259021896690683,2.655069810025225,-0.33569848172737693
1539131335188974,0.3967345693140487,2.410925459678083,-0.2746623941404778
1539131335204977,0.9460593575952316,2.3498893720911838,-0.5188067444876197
1539131335220980,1.3122758831159445,2.5940337224383256,-0.45777065690094787
1539131335236983,1.9226367589837992,2.655069810025225,-0.2746623941404778
1539131335252986,1.983672846570471,2.8381780727854675,0.03051804379333589
1539131335268989,1.6784924086366573,2.7771419851987957,0.09155413138023505
1539131335284992,0.9460593575952316,2.7161058976118966,-0.33569848172737693
1539131335300995,0.33569848172737693,2.410925459678083,-0.6408789196611906
1539131335316999,-0.03051804379333589,2.655069810025225,-0.5798428320745188
1539131335333038,-0.33569848172737693,2.8992141603723667,-0.3967345693140487
1539131335349041,-0.33569848172737693,2.8381780727854675,-0.213626306553806
1539131335365044,-0.45777065690094787,3.0212863355459376,0.03051804379333589
1539131335381047,-0.213626306553806,2.532997634851654,0.15259021896690683
1539131335397050,-0.09155413138023505,2.3498893720911838,-0.3967345693140487
1539131335413054,0.3967345693140487,2.532997634851654,-0.3967345693140487
1539131335429057,0.9460593575952316,2.410925459678083,-0.03051804379333589
1539131335445060,1.0681315327688026,2.410925459678083,0.2746623941404778
1539131335461063,0.7629510948347615,2.7771419851987957,0.45777065690094787
1539131335477066,0.33569848172737693,3.0212863355459376,0.3967345693140487
1539131335493069,0.09155413138023505,3.0212863355459376,0.15259021896690683
1539131335509072,0.2746623941404778,2.9602502479590385,0.213626306553806
1539131335525076,0.7019150072480898,3.0823224231326094,0.45777065690094787
1539131335541079,0.8850232700083325,3.3264667734797513,0.5188067444876197
1539131335557082,0.6408789196611906,3.5095750362402214,0.3967345693140487
1539131335573085,0.2746623941404778,3.692683299000464,-0.09155413138023505
1539131335589088,0.3967345693140487,3.3264667734797513,-0.45777065690094787
1539131335605091,0.6408789196611906,3.2654306858930795,-0.33569848172737693
1539131335621094,0.7629510948347615,3.1433585107195086,0.03051804379333589
1539131335637097,0.45777065690094787,2.9602502479590385,-0.03051804379333589
1539131335653137,0.03051804379333589,3.2654306858930795,0.09155413138023505
1539131335669140,-0.15259021896690683,3.3875028610666504,0.5188067444876197
1539131335685143,0.09155413138023505,3.4485389486533222,1.0681315327688026
1539131335701146,0.45777065690094787,3.3264667734797513,1.2512397955290453
1539131335717149,0.7629510948347615,3.2654306858930795,1.0070954451819034
1539131335733152,0.8850232700083325,3.5095750362402214,0.7019150072480898
1539131335749156,0.9460593575952316,3.3264667734797513,0.3967345693140487
1539131335765159,1.1291676203554744,2.7161058976118966,-0.03051804379333589
1539131335781162,1.2512397955290453,2.8381780727854675,0.03051804379333589
1539131335797165,1.3122758831159445,2.8992141603723667,0.3967345693140487
1539131335813168,1.3122758831159445,2.8992141603723667,0.7019150072480898
1539131335829171,1.0070954451819034,3.0823224231326094,0.5798428320745188
1539131335845174,0.45777065690094787,2.9602502479590385,0.03051804379333589
1539131335861178,0.09155413138023505,2.4719615472647547,-0.7019150072480898
1539131335877181,-0.09155413138023505,2.532997634851654,-0.8239871824216607
1539131335893184,0.15259021896690683,1.983672846570471,-0.5188067444876197
1539131335909187,0.45777065690094787,1.4953841458761872,-0.213626306553806
1539131335925190,0.5798428320745188,1.3733119707026162,-0.09155413138023505
1539131335941193,0.6408789196611906,1.8616006713969,0.45777065690094787
1539131335957196,0.7019150072480898,2.410925459678083,0.7019150072480898
1539131335973266,0.6408789196611906,1.983672846570471,0.45777065690094787
1539131335989270,0.5798428320745188,2.105745021744042,0.03051804379333589
1539131336005273,0.5798428320745188,1.739528496223329,-0.3967345693140487
1539131336021277,0.3967345693140487,1.5564202334630863,-0.7019150072480898
1539131336037281,0.09155413138023505,1.9226367589837992,-0.213626306553806
1539131336053284,-0.15259021896690683,2.4719615472647547,0.5188067444876197
1539131336069288,-0.45777065690094787,2.7161058976118966,0.6408789196611906
1539131336085291,-0.5188067444876197,2.655069810025225,0.2746623941404778
1539131336101295,-0.3967345693140487,2.655069810025225,-0.03051804379333589
1539131336117299,-0.03051804379333589,2.655069810025225,-0.33569848172737693
1539131336133302,-0.03051804379333589,2.9602502479590385,-1.0070954451819034
1539131336149306,-0.09155413138023505,2.8992141603723667,-1.4343480582895154
1539131336165310,-0.09155413138023505,3.0212863355459376,-1.4343480582895154
1539131336181313,0.45777065690094787,3.2043945983061803,-0.8850232700083325
1539131336197317,1.2512397955290453,2.9602502479590385,-0.33569848172737693
1539131336213320,1.9226367589837992,2.8381780727854675,0.03051804379333589
1539131336229324,1.983672846570471,2.655069810025225,0.33569848172737693
1539131336245328,1.4343480582895154,2.4719615472647547,-0.03051804379333589
1539131336261331,0.8239871824216607,2.532997634851654,-0.5798428320745188
1539131336277335,0.45777065690094787,2.410925459678083,-0.213626306553806
1539131336293365,0.33569848172737693,2.532997634851654,0.5188067444876197
1539131336309369,0.2746623941404778,2.227817196917613,0.6408789196611906
1539131336325372,0.03051804379333589,1.3733119707026162,0.15259021896690683
1539131336341376,-0.5188067444876197,0.8850232700083325,-0.45777065690094787
1539131336357380,-0.6408789196611906,1.4343480582895154,-0.09155413138023505
1539131336373383,-0.33569848172737693,1.8005645838102282,0.45777065690094787
1539131336389387,0.15259021896690683,1.739528496223329,0.7019150072480898
1539131336405390,-0.03051804379333589,1.6784924086366573,0.213626306553806
1539131336421394,-0.45777065690094787,1.739528496223329,-0.213626306553806
1539131336437398,-0.2746623941404778,2.288853284504512,-0.09155413138023505
1539131336453401,0.33569848172737693,2.4719615472647547,-0.03051804379333589
1539131336469405,0.5798428320745188,2.5940337224383256,-0.2746623941404778
1539131336485408,0.33569848172737693,3.5095750362402214,-0.7629510948347615
1539131336501412,0.03051804379333589,4.547188525215461,-0.7019150072480898
1539131336517416,0.213626306553806,4.9134050507361735,-0.5188067444876197
1539131336533419,0.5798428320745188,4.180971999694748,-1.0070954451819034
1539131336549423,0.7629510948347615,3.7537193865873633,-1.6784924086366573
1539131336565426,1.0070954451819034,3.6316472114137923,-1.4953841458761872
1539131336581430,1.2512397955290453,3.4485389486533222,-0.5798428320745188
1539131336597434,1.2512397955290453,3.0823224231326094,0.09155413138023505
1539131336613494,1.0681315327688026,2.5940337224383256,0.3967345693140487
1539131336629499,1.1291676203554744,2.4719615472647547,1.1291676203554744
1539131336645503,1.3733119707026162,2.3498893720911838,1.983672846570471
1539131336661507,1.2512397955290453,2.227817196917613,2.105745021744042
1539131336677511,0.7019150072480898,2.227817196917613,1.4343480582895154
1539131336693515,0.7629510948347615,1.8005645838102282,0.7629510948347615
1539131336709519,0.9460593575952316,1.6784924086366573,0.213626306553806
1539131336725523,0.7629510948347615,2.166781109330941,-0.03051804379333589
1539131336741527,0.6408789196611906,2.3498893720911838,-0.09155413138023505
1539131336757531,0.45777065690094787,2.8381780727854675,-0.213626306553806
1539131336773535,0.5188067444876197,2.8992141603723667,0.03051804379333589
1539131336789539,0.7019150072480898,2.8381780727854675,0.03051804379333589
1539131336805544,0.8850232700083325,2.8992141603723667,0.213626306553806
1539131336821548,0.7629510948347615,2.9602502479590385,0.09155413138023505
1539131336837552,0.7019150072480898,3.2043945983061803,-0.09155413138023505
1539131336853556,0.7019150072480898,3.1433585107195086,-0.03051804379333589
1539131336869560,0.5798428320745188,2.9602502479590385,0.213626306553806
1539131336885564,0.213626306553806,2.8381780727854675,0.15259021896690683
1539131336901568,-0.03051804379333589,2.9602502479590385,0.03051804379333589
1539131336917572,0.09155413138023505,2.7161058976118966,-0.2746623941404778
1539131336933593,0.6408789196611906,2.532997634851654,-0.15259021896690683
1539131336949597,1.0070954451819034,2.532997634851654,-0.03051804379333589
1539131336965602,0.9460593575952316,2.655069810025225,-0.09155413138023505
1539131336981606,0.6408789196611906,2.655069810025225,-0.45777065690094787
1539131336997610,0.5188067444876197,2.7771419851987957,-0.5188067444876197
1539131337013614,0.6408789196611906,2.7771419851987957,-0.33569848172737693
1539131337029618,0.7019150072480898,2.8992141603723667,-0.15259021896690683
1539131337045622,0.5798428320745188,3.0212863355459376,-0.03051804379333589
1539131337061626,0.5188067444876197,3.0823224231326094,0.03051804379333589
1539131337077630,0.2746623941404778,2.7771419851987957,-0.2746623941404778
1539131337093634,0.213626306553806,2.8381780727854675,-0.3967345693140487
1539131337109638,0.45777065690094787,2.7161058976118966,-0.5188067444876197
1539131337125642,0.8239871824216607,2.7771419851987957,-0.33569848172737693
1539131337141646,1.0681315327688026,2.8381780727854675,0.15259021896690683
1539131337157651,1.1902037079423735,3.0212863355459376,0.5188067444876197
1539131337173655,1.0070954451819034,3.2043945983061803,0.5188067444876197
1539131337189659,0.5188067444876197,3.2043945983061803,0.2746623941404778
1539131337205663,0.15259021896690683,3.2654306858930795,-0.213626306553806
1539131337221667,0.33569848172737693,2.7161058976118966,-0.7019150072480898
1539131337237671,0.6408789196611906,2.655069810025225,-0.8850232700083325
1539131337253662,0.5798428320745188,3.2043945983061803,-0.5798428320745188
1539131337269666,0.5798428320745188,3.3875028610666504,-0.2746623941404778
1539131337285670,0.5798428320745188,3.0823224231326094,-0.33569848172737693
1539131337301674,0.5798428320745188,2.9602502479590385,-0.2746623941404778
1539131337317678,0.6408789196611906,3.0823224231326094,0.03051804379333589
1539131337333682,0.9460593575952316,3.1433585107195086,0.45777065690094787
1539131337349686,1.0681315327688026,3.1433585107195086,0.6408789196611906
1539131337365690,0.7629510948347615,2.7771419851987957,0.33569848172737693
1539131337381694,0.45777065690094787,2.288853284504512,-0.45777065690094787
1539131337397699,0.3967345693140487,2.227817196917613,-0.6408789196611906
1539131337413703,0.5798428320745188,2.532997634851654,0.09155413138023505
1539131337429707,0.6408789196611906,2.9602502479590385,0.8239871824216607
1539131337445711,0.5188067444876197,2.8992141603723667,0.5798428320745188
1539131337461715,0.5188067444876197,2.8381780727854675,0.09155413138023505
1539131337477719,0.6408789196611906,2.8992141603723667,-0.15259021896690683
1539131337493723,0.7019150072480898,3.0212863355459376,-0.33569848172737693
1539131337509727,1.0070954451819034,2.9602502479590385,-0.33569848172737693
1539131337525731,1.1291676203554744,2.8992141603723667,-0.5798428320745188
1539131337541735,1.1902037079423735,2.655069810025225,-0.6408789196611906
1539131337557739,1.0070954451819034,3.0212863355459376,-0.33569848172737693
1539131337573791,0.8239871824216607,3.3264667734797513,0.213626306553806
1539131337589795,0.5798428320745188,3.2043945983061803,0.3967345693140487
1539131337605799,0.213626306553806,2.8381780727854675,-0.03051804379333589
1539131337621803,-0.09155413138023505,2.4719615472647547,-0.5798428320745188
1539131337637807,-0.03051804379333589,2.4719615472647547,-0.7019150072480898
1539131337653812,0.213626306553806,2.7161058976118966,-0.213626306553806
1539131337669816,0.5188067444876197,2.8992141603723667,0.15259021896690683
1539131337685820,0.8239871824216607,3.0823224231326094,0.213626306553806
1539131337701824,1.0681315327688026,3.0823224231326094,0.2746623941404778
1539131337717828,1.3733119707026162,2.7771419851987957,0.213626306553806
1539131337733832,1.2512397955290453,2.8992141603723667,0.03051804379333589
1539131337749836,0.7629510948347615,2.9602502479590385,-0.09155413138023505
1539131337765840,0.33569848172737693,3.0823224231326094,-0.09155413138023505
1539131337781844,0.15259021896690683,2.5940337224383256,-0.213626306553806
1539131337797848,0.09155413138023505,2.5940337224383256,-0.2746623941404778
1539131337813852,-0.03051804379333589,2.9602502479590385,-0.03051804379333589
1539131337829856,-0.33569848172737693,3.2654306858930795,0.33569848172737693
1539131337845861,-0.5798428320745188,3.3875028610666504,0.3967345693140487
1539131337861865,-0.3967345693140487,3.1433585107195086,0.03051804379333589
1539131337877869,0.15259021896690683,2.532997634851654,-0.15259021896690683
1539131337893890,0.5188067444876197,2.655069810025225,-0.15259021896690683
1539131337909894,0.7019150072480898,2.8381780727854675,-0.2746623941404778
1539131337925898,0.7019150072480898,2.410925459678083,-0.7629510948347615
1539131337941902,0.45777065690094787,2.655069810025225,-0.7629510948347615
1539131337957906,0.5798428320745188,2.8381780727854675,-0.15259021896690683
1539131337973910,0.7629510948347615,2.8381780727854675,0.2746623941404778
1539131337989915,0.5798428320745188,2.5940337224383256,0.15259021896690683
1539131338005919,0.33569848172737693,2.227817196917613,-0.33569848172737693
1539131338021923,0.2746623941404778,2.227817196917613,-0.3967345693140487
1539131338037927,0.45777065690094787,2.288853284504512,0.03051804379333589
1539131338053931,0.45777065690094787,2.655069810025225,0.45777065690094787
1539131338069935,0.213626306553806,3.0823224231326094,0.7629510948347615
1539131338085939,0.09155413138023505,2.7161058976118966,0.09155413138023505
1539131338101943,0.15259021896690683,2.4719615472647547,-0.8239871824216607
1539131338117947,0.3967345693140487,2.655069810025225,-1.0681315327688026
1539131338133951,0.7629510948347615,2.8992141603723667,-0.7629510948347615
1539131338149955,0.9460593575952316,3.2043945983061803,-0.45777065690094787
1539131338165959,0.7629510948347615,3.4485389486533222,0.03051804379333589
1539131338181964,0.45777065690094787,3.692683299000464,0.2746623941404778
1539131338197968,0.5798428320745188,3.0212863355459376,0.33569848172737693
1539131338213989,0.7019150072480898,2.5940337224383256,0.33569848172737693
1539131338229993,0.6408789196611906,2.7771419851987957,0.45777065690094787
1539131338245998,0.6408789196611906,2.410925459678083,0.33569848172737693
1539131338262003,0.7629510948347615,2.3498893720911838,0.2746623941404778
1539131338278007,0.7019150072480898,2.4719615472647547,0.5798428320745188
1539131338294012,0.7019150072480898,2.9602502479590385,1.0681315327688026
1539131338310016,0.7629510948347615,3.1433585107195086,1.1902037079423735
1539131338326021,0.9460593575952316,2.8381780727854675,0.6408789196611906
1539131338342025,0.8850232700083325,2.7771419851987957,-0.09155413138023505
1539131338358030,1.0070954451819034,2.8381780727854675,-0.33569848172737693
1539131338374035,1.3122758831159445,2.7771419851987957,-0.3967345693140487
1539131338390039,1.3733119707026162,2.9602502479590385,-0.03051804379333589
1539131338406044,0.9460593575952316,3.2043945983061803,0.15259021896690683
1539131338422048,0.5798428320745188,3.4485389486533222,0.15259021896690683
1539131338438053,0.33569848172737693,3.570611123826893,0.2746623941404778
1539131338454057,0.2746623941404778,3.4485389486533222,0.213626306553806
1539131338470062,0.33569848172737693,3.2654306858930795,0.03051804379333589
1539131338486066,0.3967345693140487,3.0212863355459376,-0.33569848172737693
1539131338502071,0.5798428320745188,2.7161058976118966,-0.3967345693140487
1539131338518076,0.9460593575952316,2.7161058976118966,-0.03051804379333589
1539131338534088,1.0681315327688026,2.8992141603723667,0.7629510948347615
1539131338550092,1.0070954451819034,3.0823224231326094,1.0681315327688026
1539131338566097,0.8239871824216607,3.0212863355459376,0.7019150072480898
1539131338582101,0.3967345693140487,2.9602502479590385,0.45777065690094787
1539131338598106,0.5188067444876197,2.655069810025225,0.45777065690094787
1539131338614111,0.7629510948347615,2.5940337224383256,0.5798428320745188
1539131338630115,0.7629510948347615,2.3498893720911838,0.33569848172737693
1539131338646120,0.3967345693140487,2.3498893720911838,-0.15259021896690683
1539131338662124,0.33569848172737693,2.288853284504512,-0.3967345693140487
1539131338678129,0.6408789196611906,2.105745021744042,-0.213626306553806
1539131338694133,0.7629510948347615,2.288853284504512,0.213626306553806
1539131338710138,0.5798428320745188,2.410925459678083,0.2746623941404778
1539131338726143,0.15259021896690683,2.532997634851654,0.09155413138023505
1539131338742147,0.09155413138023505,2.5940337224383256,0.2746623941404778
1539131338758152,0.15259021896690683,2.655069810025225,0.33569848172737693
1539131338774156,0.15259021896690683,2.655069810025225,0.213626306553806
1539131338790161,0.213626306553806,2.8992141603723667,0.09155413138023505
1539131338806165,0.5798428320745188,2.9602502479590385,-0.03051804379333589
1539131338822170,1.0681315327688026,2.655069810025225,-0.2746623941404778
1539131338838174,1.3122758831159445,2.7771419851987957,-0.03051804379333589
1539131338854187,1.3122758831159445,3.4485389486533222,0.33569848172737693
1539131338870191,1.0070954451819034,3.814755474174035,0.5798428320745188
1539131338886196,0.5798428320745188,3.6316472114137923,0.03051804379333589
1539131338902200,0.15259021896690683,3.2654306858930795,-1.0070954451819034
1539131338918205,0.03051804379333589,3.2654306858930795,-1.2512397955290453
1539131338934209,-0.03051804379333589,3.3875028610666504,-0.7629510948347615
1539131338950214,-0.09155413138023505,3.570611123826893,-0.3967345693140487
1539131338966219,-0.2746623941404778,3.5095750362402214,-0.45777065690094787
1539131338982223,-0.2746623941404778,3.4485389486533222,-0.6408789196611906
1539131338998228,0.03051804379333589,2.8992141603723667,-0.6408789196611906
1539131339014232,0.5188067444876197,2.7771419851987957,-0.2746623941404778
1539131339030237,0.9460593575952316,2.7161058976118966,0.2746623941404778
1539131339046241,1.1291676203554744,2.4719615472647547,0.213626306553806
1539131339062246,1.2512397955290453,2.288853284504512,0.2746623941404778
1539131339078251,1.2512397955290453,2.410925459678083,1.0070954451819034
1539131339094255,1.0681315327688026,2.288853284504512,1.4343480582895154
1539131339110260,0.5798428320745188,2.227817196917613,1.3122758831159445
1539131339126264,0.03051804379333589,2.105745021744042,0.8239871824216607
1539131339142269,-0.3967345693140487,2.288853284504512,0.33569848172737693
1539131339158273,-0.2746623941404778,2.410925459678083,0.15259021896690683
1539131339174316,0.3967345693140487,2.04470893415737,-0.15259021896690683
1539131339190321,0.6408789196611906,2.655069810025225,-0.6408789196611906
1539131339206325,1.0070954451819034,2.9602502479590385,-0.5798428320745188
1539131339222330,1.3122758831159445,3.3875028610666504,-0.33569848172737693
1539131339238334,1.3122758831159445,3.7537193865873633,-0.03051804379333589
1539131339254339,1.2512397955290453,3.4485389486533222,-0.09155413138023505
1539131339270343,0.9460593575952316,3.1433585107195086,-0.45777065690094787
1539131339286348,0.45777065690094787,2.7771419851987957,-0.7019150072480898
1539131339302353,-0.03051804379333589,2.532997634851654,-0.8239871824216607
1539131339318357,-0.7019150072480898,2.7161058976118966,-0.5798428320745188
1539131339334362,-0.8850232700083325,2.7161058976118966,-0.3967345693140487
1539131339350366,-0.3967345693140487,2.7161058976118966,-0.09155413138023505
1539131339366371,0.5798428320745188,2.7771419851987957,0.2746623941404778
1539131339382375,1.4343480582895154,2.8381780727854675,0.3967345693140487
1539131339398380,2.105745021744042,2.5940337224383256,0.15259021896690683
1539131339414384,2.288853284504512,2.532997634851654,-0.3967345693140487
1539131339430389,2.04470893415737,2.655069810025225,-0.5188067444876197
1539131339446394,1.6174563210497581,2.8992141603723667,-0.213626306553806
1539131339462398,0.9460593575952316,3.7537193865873633,0.213626306553806
1539131339478403,0.8850232700083325,3.0823224231326094,0.213626306553806
1539131339494415,0.8850232700083325,2.7161058976118966,-0.2746623941404778
1539131339510419,0.5798428320745188,2.532997634851654,-0.45777065690094787
1539131339526424,0.09155413138023505,2.8992141603723667,-0.5188067444876197
1539131339542429,-0.03051804379333589,2.9602502479590385,-0.7629510948347615
1539131339558433,0.33569848172737693,2.5940337224383256,-0.9460593575952316
1539131339574438,0.8239871824216607,2.8992141603723667,-0.45777065690094787
1539131339590442,1.1902037079423735,3.0823224231326094,0.213626306553806
1539131339606447,1.1902037079423735,3.2654306858930795,0.2746623941404778
1539131339622451,1.0681315327688026,3.1433585107195086,-0.03051804379333589
1539131339638456,1.0070954451819034,2.8992141603723667,-0.45777065690094787
1539131339654461,0.7629510948347615,3.0823224231326094,-0.3967345693140487
1539131339670465,0.8850232700083325,2.8381780727854675,-0.09155413138023505
1539131339686470,0.9460593575952316,3.0212863355459376,0.213626306553806
1539131339702474,1.0070954451819034,2.8381780727854675,0.33569848172737693
1539131339718479,0.8850232700083325,2.532997634851654,0.2746623941404778
1539131339734483,0.5188067444876197,2.3498893720911838,0.33569848172737693
1539131339750488,0.03051804379333589,2.655069810025225,0.5798428320745188
1539131339766492,-0.33569848172737693,2.7161058976118966,0.6408789196611906
1539131339782497,-0.5798428320745188,2.7161058976118966,0.45777065690094787
1539131339798502,-0.7629510948347615,2.655069810025225,0.03051804379333589
1539131339814514,-0.3967345693140487,2.410925459678083,-0.213626306553806
1539131339830518,0.33569848172737693,2.7161058976118966,-0.213626306553806
1539131339846523,1.1902037079423735,2.7771419851987957,0.09155413138023505
1539131339862527,1.8005645838102282,2.8381780727854675,0.213626306553806
1539131339878532,1.983672846570471,2.7161058976118966,0.213626306553806
1539131339894537,1.6174563210497581,2.7771419851987957,0.15259021896690683
1539131339910541,1.0070954451819034,2.5940337224383256,0.2746623941404778
1539131339926546,0.33569848172737693,2.7161058976118966,0.5188067444876197
1539131339942550,-0.45777065690094787,2.7161058976118966,0.7629510948347615
1539131339958555,-1.0681315327688026,2.3498893720911838,0.3967345693140487
1539131339974559,-1.2512397955290453,1.9226367589837992,-0.213626306553806
1539131339990564,-1.0681315327688026,2.288853284504512,-0.15259021896690683
1539131340006569,-0.7629510948347615,2.3498893720911838,0.15259021896690683
1539131340022573,-0.3967345693140487,2.8381780727854675,0.213626306553806
1539131340038578,-0.03051804379333589,2.7771419851987957,-0.15259021896690683
1539131340054582,0.5798428320745188,2.3498893720911838,-0.7019150072480898
1539131340070587,1.2512397955290453,2.227817196917613,-0.8850232700083325
1539131340086591,1.6174563210497581,2.4719615472647547,-0.5798428320745188
1539131340102596,1.6174563210497581,2.655069810025225,-0.2746623941404778
1539131340118600,1.1291676203554744,2.532997634851654,-0.5188067444876197
1539131340134643,0.5188067444876197,2.166781109330941,-0.7019150072480898
1539131340150648,-0.09155413138023505,2.166781109330941,-0.7629510948347615
1539131340166652,-0.33569848172737693,2.227817196917613,-0.45777065690094787
1539131340182657,-0.33569848172737693,2.3498893720911838,-0.15259021896690683
1539131340198661,0.09155413138023505,2.166781109330941,-0.03051804379333589
1539131340214666,0.5798428320745188,1.983672846570471,0.213626306553806
1539131340230671,0.8239871824216607,2.04470893415737,0.45777065690094787
1539131340246675,0.6408789196611906,2.227817196917613,0.33569848172737693
1539131340262680,0.2746623941404778,2.288853284504512,0.15259021896690683
1539131340278684,0.33569848172737693,2.288853284504512,0.15259021896690683
1539131340294689,0.5188067444876197,2.288853284504512,0.2746623941404778
1539131340310693,0.5188067444876197,2.410925459678083,0.3967345693140487
1539131340326698,0.7019150072480898,2.532997634851654,0.33569848172737693
1539131340342702,0.8850232700083325,2.532997634851654,0.213626306553806
1539131340358707,0.9460593575952316,2.8992141603723667,0.33569848172737693
1539131340374712,0.9460593575952316,3.2654306858930795,0.5188067444876197
1539131340390716,1.0070954451819034,3.0212863355459376,0.15259021896690683
1539131340406721,1.0070954451819034,2.7771419851987957,-0.3967345693140487
1539131340422725,1.0070954451819034,2.9602502479590385,-0.3967345693140487
1539131340438730,0.8850232700083325,3.2654306858930795,-0.15259021896690683
1539131340454742,0.8850232700083325,3.570611123826893,0.09155413138023505
1539131340470747,0.7019150072480898,3.3264667734797513,-0.213626306553806
1539131340486751,0.45777065690094787,3.2654306858930795,-0.8850232700083325
1539131340502756,0.8850232700083325,3.0823224231326094,-0.9460593575952316
1539131340518760,1.8005645838102282,3.1433585107195086,-0.5798428320745188
1539131340534765,2.3498893720911838,2.8992141603723667,-0.33569848172737693
1539131340550769,2.288853284504512,3.1433585107195086,-0.45777065690094787
1539131340566774,1.9226367589837992,3.6316472114137923,-0.7019150072480898
1539131340582779,1.4953841458761872,4.180971999694748,-0.7019150072480898
1539131340598783,1.1902037079423735,4.119935912108076,-0.8239871824216607
1539131340614788,0.9460593575952316,3.7537193865873633,-1.1291676203554744
1539131340630792,0.7019150072480898,2.9602502479590385,-1.4343480582895154
1539131340646797,-0.03051804379333589,2.5940337224383256,-1.3122758831159445
1539131340662801,-0.5798428320745188,2.655069810025225,-0.8239871824216607
1539131340678806,-0.3967345693140487,2.4719615472647547,0.09155413138023505
1539131340694810,-0.03051804379333589,2.532997634851654,1.0681315327688026
1539131340710815,-0.33569848172737693,2.655069810025225,1.0681315327688026
1539131340726820,-0.6408789196611906,2.288853284504512,0.15259021896690683
1539131340742824,-0.213626306553806,1.9226367589837992,-0.7629510948347615
1539131340758829,0.7629510948347615,1.6784924086366573,-0.7629510948347615
1539131340774871,1.4953841458761872,2.04470893415737,-0.2746623941404778
1539131340790876,1.8005645838102282,2.7161058976118966,-0.09155413138023505
1539131340806882,1.8616006713969,2.7161058976118966,-0.3967345693140487
1539131340822887,1.9226367589837992,2.8992141603723667,-0.45777065690094787
1539131340838892,1.6784924086366573,3.2043945983061803,-0.2746623941404778
1539131340854897,0.9460593575952316,3.0823224231326094,-0.3967345693140487
1539131340870902,0.213626306553806,3.2654306858930795,-0.45777065690094787
1539131340886907,-0.3967345693140487,3.570611123826893,-0.213626306553806
1539131340902912,-0.7019150072480898,3.3875028610666504,0.03051804379333589
1539131340918917,-0.5798428320745188,3.2654306858930795,0.213626306553806
1539131340934922,-0.45777065690094787,2.9602502479590385,0.213626306553806
1539131340950927,-0.2746623941404778,2.8992141603723667,0.03051804379333589
1539131340966932,-0.09155413138023505,2.532997634851654,-0.3967345693140487
1539131340982937,0.3967345693140487,2.105745021744042,-0.3967345693140487
1539131340998942,0.8239871824216607,2.105745021744042,-0.15259021896690683
1539131341014947,1.1902037079423735,2.227817196917613,0.3967345693140487
1539131341030952,1.2512397955290453,1.8616006713969,0.45777065690094787
1539131341046957,0.8850232700083325,1.6174563210497581,-0.03051804379333589
1539131341062962,0.213626306553806,1.3122758831159445,-0.5798428320745188
1539131341078967,-0.5798428320745188,1.3122758831159445,-0.8239871824216607
1539131341094970,-1.1902037079423735,1.983672846570471,-0.8239871824216607
1539131341110975,-1.1902037079423735,2.04470893415737,-0.7629510948347615
1539131341126980,-0.8239871824216607,2.227817196917613,-0.7019150072480898
1539131341142985,-0.2746623941404778,2.7161058976118966,-0.6408789196611906
1539131341158990,0.5188067444876197,2.410925459678083,-0.5798428320745188
1539131341174996,1.0070954451819034,2.410925459678083,-0.5798428320745188
1539131341191001,1.1291676203554744,2.8381780727854675,-0.45777065690094787
1539131341207006,1.2512397955290453,2.8992141603723667,-0.213626306553806
1539131341223011,1.2512397955290453,2.532997634851654,-0.33569848172737693
1539131341239016,1.0681315327688026,2.166781109330941,-0.45777065690094787
1539131341255021,0.6408789196611906,2.166781109330941,-0.33569848172737693
1539131341271026,0.09155413138023505,2.4719615472647547,-0.03051804379333589
1539131341287031,-0.33569848172737693,2.8381780727854675,0.33569848172737693
1539131341303036,-1.0681315327688026,2.532997634851654,-0.03051804379333589
1539131341319041,-1.4953841458761872,2.227817196917613,-0.8239871824216607
1539131341335046,-1.3733119707026162,2.3498893720911838,-0.8239871824216607
1539131341351051,-1.1902037079423735,2.5940337224383256,-0.7629510948347615
1539131341367056,-0.9460593575952316,2.655069810025225,-1.1902037079423735
1539131341383061,-0.45777065690094787,2.655069810025225,-1.1902037079423735
1539131341399066,0.15259021896690683,2.8992141603723667,-0.6408789196611906
1539131341415069,1.1291676203554744,2.8381780727854675,-0.213626306553806
1539131341431074,1.739528496223329,2.5940337224383256,0.09155413138023505
1539131341447079,1.8005645838102282,2.7771419851987957,0.6408789196611906
1539131341463084,1.6784924086366573,2.9602502479590385,1.0681315327688026
1539131341479089,1.6174563210497581,2.5940337224383256,1.4343480582895154
1539131341495094,1.1902037079423735,2.288853284504512,1.1291676203554744
1539131341511099,0.7019150072480898,2.04470893415737,0.5188067444876197
1539131341527104,0.15259021896690683,2.3498893720911838,0.2746623941404778
1539131341543110,-0.03051804379333589,2.5940337224383256,0.45777065690094787
1539131341559115,0.03051804379333589,2.8992141603723667,0.6408789196611906
1539131341575120,0.5188067444876197,2.9602502479590385,0.8239871824216607
1539131341591125,0.7019150072480898,3.0212863355459376,0.6408789196611906
1539131341607130,0.5798428320745188,3.0212863355459376,0.213626306553806
1539131341623135,0.7629510948347615,2.7771419851987957,-0.03051804379333589
1539131341639140,0.7629510948347615,2.655069810025225,-0.2746623941404778
1539131341655145,0.9460593575952316,2.4719615472647547,-0.15259021896690683
1539131341671150,1.0070954451819034,2.4719615472647547,-0.15259021896690683
1539131341687155,1.0070954451819034,2.166781109330941,-0.03051804379333589
1539131341703160,1.0681315327688026,2.227817196917613,0.03051804379333589
1539131341719165,1.0070954451819034,2.532997634851654,0.2746623941404778
1539131341735199,0.7629510948347615,2.8381780727854675,0.15259021896690683
1539131341751204,0.3967345693140487,3.4485389486533222,-0.33569848172737693
1539131341767209,0.33569848172737693,3.3264667734797513,-0.8850232700083325
1539131341783214,0.7019150072480898,2.8992141603723667,-1.3733119707026162
1539131341799219,0.8239871824216607,3.0212863355459376,-1.4953841458761872
1539131341815224,0.6408789196611906,3.1433585107195086,-1.4343480582895154
1539131341831229,0.45777065690094787,3.6316472114137923,-1.3733119707026162
1539131341847234,0.45777065690094787,3.6316472114137923,-1.1291676203554744
1539131341863239,0.6408789196611906,3.6316472114137923,-0.5188067444876197
1539131341879244,0.6408789196611906,3.6316472114137923,-0.03051804379333589
1539131341895249,0.45777065690094787,2.7161058976118966,-0.15259021896690683
1539131341911254,0.15259021896690683,2.532997634851654,-0.2746623941404778
1539131341927259,0.2746623941404778,2.410925459678083,0.45777065690094787
1539131341943264,0.3967345693140487,2.288853284504512,1.1902037079423735
1539131341959269,0.5188067444876197,2.227817196917613,1.3733119707026162
1539131341975274,0.45777065690094787,1.983672846570471,0.9460593575952316
1539131341991279,0.8850232700083325,1.2512397955290453,0.8850232700083325
1539131342007284,1.1291676203554744,1.3733119707026162,1.0070954451819034
1539131342023289,1.0070954451819034,1.5564202334630863,1.1291676203554744
1539131342039294,1.0070954451819034,1.3733119707026162,1.1902037079423735
1539131342055297,0.9460593575952316,1.6784924086366573,1.2512397955290453
1539131342071303,0.6408789196611906,2.410925459678083,1.4343480582895154
1539131342087308,0.5188067444876197,2.7161058976118966,1.6174563210497581
1539131342103313,0.45777065690094787,2.8381780727854675,1.0070954451819034
1539131342119318,0.5798428320745188,2.8381780727854675,0.15259021896690683
1539131342135323,0.7629510948347615,3.0823224231326094,-0.213626306553806
1539131342151328,0.5188067444876197,3.4485389486533222,-0.8850232700083325
1539131342167333,0.45777065690094787,2.7161058976118966,-1.983672846570471
1539131342183338,0.7629510948347615,2.9602502479590385,-2.288853284504512
1539131342199343,1.3733119707026162,3.3875028610666504,-1.3733119707026162
1539131342215348,1.5564202334630863,3.936827649347606,-0.3967345693140487
1539131342231353,1.1902037079423735,4.058899824521177,-0.213626306553806
1539131342247358,0.7629510948347615,3.875791561760934,-0.5188067444876197
1539131342263363,0.5188067444876197,3.6316472114137923,-0.8239871824216607
1539131342279368,0.45777065690094787,3.3264667734797513,-0.45777065690094787
1539131342295373,0.5188067444876197,2.8992141603723667,0.15259021896690683
1539131342311378,0.33569848172737693,2.8992141603723667,0.3967345693140487
1539131342327383,0.2746623941404778,2.7161058976118966,0.45777065690094787
1539131342343388,0.33569848172737693,2.655069810025225,0.5188067444876197
1539131342359393,0.33569848172737693,3.2654306858930795,0.8850232700083325
1539131342375427,0.9460593575952316,2.9602502479590385,1.0681315327688026
1539131342391432,1.3122758831159445,2.227817196917613,0.45777065690094787
1539131342407437,1.4343480582895154,2.227817196917613,0.03051804379333589
1539131342423442,1.3733119707026162,2.532997634851654,0.3967345693140487
1539131342439447,1.2512397955290453,2.9602502479590385,0.6408789196611906
1539131342455452,1.1902037079423735,2.3498893720911838,0.03051804379333589
1539131342471457,0.8850232700083325,2.227817196917613,-0.7019150072480898
1539131342487462,0.5188067444876197,2.8992141603723667,-0.5188067444876197
1539131342503467,0.5798428320745188,3.3264667734797513,0.3967345693140487
1539131342519472,0.45777065690094787,3.570611123826893,0.5798428320745188
1539131342535477,0.15259021896690683,3.2654306858930795,-0.3967345693140487
1539131342551482,0.09155413138023505,2.8381780727854675,-1.1291676203554744
1539131342567487,0.09155413138023505,2.8992141603723667,-1.1291676203554744
1539131342583492,-0.15259021896690683,3.4485389486533222,-0.7019150072480898
1539131342599497,0.09155413138023505,3.692683299000464,-0.45777065690094787
1539131342615502,0.8850232700083325,3.3875028610666504,-0.5188067444876197
1539131342631507,1.739528496223329,2.8381780727854675,-0.2746623941404778
1539131342647513,1.9226367589837992,2.8992141603723667,0.15259021896690683
1539131342663518,1.8616006713969,2.8381780727854675,0.3967345693140487
1539131342679523,1.1902037079423735,2.8992141603723667,0.2746623941404778
1539131342695526,0.3967345693140487,2.8992141603723667,-0.213626306553806
1539131342711531,0.09155413138023505,2.5940337224383256,-0.6408789196611906
1539131342727536,0.09155413138023505,2.8381780727854675,-0.6408789196611906
1539131342743541,0.213626306553806,3.0823224231326094,-0.45777065690094787
1539131342759546,0.45777065690094787,3.3264667734797513,-0.7629510948347615
1539131342775551,0.5798428320745188,2.8381780727854675,-1.3122758831159445
1539131342791556,0.7629510948347615,2.8381780727854675,-1.4343480582895154
1539131342807561,0.9460593575952316,3.3264667734797513,-0.9460593575952316
1539131342823566,1.1291676203554744,3.0212863355459376,-0.5798428320745188
1539131342839571,1.1291676203554744,2.5940337224383256,-0.45777065690094787
1539131342855576,0.9460593575952316,2.227817196917613,-0.213626306553806
1539131342871581,0.5188067444876197,1.9226367589837992,0.09155413138023505
1539131342887586,0.09155413138023505,1.9226367589837992,0.7019150072480898
1539131342903591,-0.5798428320745188,2.288853284504512,1.0681315327688026
1539131342919596,-0.5798428320745188,1.8005645838102282,1.0070954451819034
1539131342935601,-0.45777065690094787,1.8005645838102282,0.7019150072480898
1539131342951606,-0.5798428320745188,2.4719615472647547,0.6408789196611906
1539131342967611,-1.739528496223329,4.364080262455218,0.15259021896690683
1539131342983616,-2.532997634851654,6.805523765926637,0.09155413138023505
1539131342999621,1.4343480582895154,4.303044174868319,0.15259021896690683
1539131343015625,6.012054627298312,2.410925459678083,0.6408789196611906
1539131343031630,4.547188525215461,4.669260700389032,0.6408789196611906
1539131343047635,1.8616006713969,6.317235065232353,0.6408789196611906
1539131343063640,1.5564202334630863,4.119935912108076,-0.5188067444876197
1539131343079645,1.0681315327688026,3.570611123826893,-1.4343480582895154
1539131343095650,-0.213626306553806,4.242008087281647,-1.3122758831159445
1539131343111655,-0.8239871824216607,3.875791561760934,-0.8850232700083325
1539131343127660,-0.7629510948347615,3.3264667734797513,-0.6408789196611906
1539131343143665,-0.5188067444876197,3.4485389486533222,-0.5798428320745188
1539131343159670,0.03051804379333589,3.2654306858930795,-0.5188067444876197
1539131343175675,0.8239871824216607,3.0212863355459376,-0.213626306553806
1539131343191680,1.4343480582895154,2.7771419851987957,0.2746623941404778
1539131343207685,1.8005645838102282,2.8992141603723667,0.45777065690094787
1539131343223690,2.166781109330941,3.0212863355459376,0.5188067444876197
1539131343239695,1.8616006713969,2.9602502479590385,0.45777065690094787
1539131343255700,1.3733119707026162,2.7771419851987957,0.5798428320745188
1539131343271705,0.8239871824216607,2.7161058976118966,0.3967345693140487
1539131343287710,0.2746623941404778,2.655069810025225,0.3967345693140487
1539131343303715,-0.09155413138023505,2.3498893720911838,0.213626306553806
1539131343319720,-0.213626306553806,2.5940337224383256,0.33569848172737693
1539131343335724,-0.15259021896690683,3.3875028610666504,0.6408789196611906
1539131343351729,0.3967345693140487,3.2043945983061803,0.45777065690094787
1539131343367734,0.7019150072480898,2.7161058976118966,-0.15259021896690683
1539131343383739,0.6408789196611906,3.0823224231326094,-0.6408789196611906
1539131343399744,0.9460593575952316,3.2654306858930795,-0.45777065690094787
1539131343415749,1.4953841458761872,3.0212863355459376,-0.213626306553806
1539131343431754,1.4343480582895154,3.2043945983061803,-0.2746623941404778
1539131343447759,0.7019150072480898,11.383230334935433,-0.6408789196611906
1539131343463764,97.44411383230363,-45.92965590905624,-1.4953841458761872
1539131343479769,101.04524299992363,-96.40650034332816,103.73083085374219
1539131343495774,-77.72945754177158,82.61234454871465,-30.914778362706784
1539131343511779,-85.54207675288012,70.89341573205184,-50.38529030289169
1539131343527784,101.65560387579171,-133.2112611581597,21.637293049515392
1539131343543789,169.7718776226443,-145.90676737621106,33.905546654459386
1539131343559794,141.32906080720204,-29.571984435797503,37.32356755931937
1539131343575799,71.0765239948123,68.32990005340662,27.61882963302037
1539131343591804,33.23414969100463,58.197909514,25.787747005416804
1539131343607809,34.76005188067438,-0.213626306553806,20.660715648126825
1539131343623814,43.9154650186922,-22.308690012970146,9.491111619745197
1539131343639819,36.95735103379866,-3.0212863355459376,-0.03051804379333589
1539131343655822,14.190890363927565,10.589761196307336,-0.6408789196611906
1539131343671827,-17.303730830853738,13.702601663233281,2.9602502479590385
1539131343687832,-50.38529030289169,25.36049439230942,-0.45777065690094787
1539131343703837,-74.79972533760588,35.91973754482319,-10.467689021133765
1539131343719843,-83.9551384756237,27.98504615854108,-19.562066071564686
1539131343735848,-80.04882887006943,8.392462043183059,-24.26184481574728
1539131343751853,-69.85580224307614,0.5798428320745188,-23.651483939879427
1539131343767858,-58.747234302281186,6.195162890058782,-19.195849546043974
1539131343783863,-49.591821164263365,13.946746013580423,-13.397421225299468
1539131343799868,-40.86366063935316,18.097199969481835,-9.73525597009234
1539131343815873,-31.280994888227724,18.76859693293659,-9.979400320439481
1539131343831878,-20.35553521019301,16.815442130159454,-12.787060349431613
1539131343847883,-9.430075532158298,14.251926451514464,-14.862287327382319
1539131343863888,-0.03051804379333589,12.23773556115043,-14.496070801861606
1539131343879893,6.317235065232353,12.23773556115043,-11.627374685282575
1539131343895898,9.369039444571627,11.993591210803288,-6.8665598535133086
1539131343911903,9.308003356984727,10.650797283894008,-2.3498893720911838
1539131343927908,6.744487678339738,8.209353780422589,-0.213626306553806
1539131343943913,2.8992141603723667,6.195162890058782,-0.15259021896690683
1539131343959918,-0.3967345693140487,4.119935912108076,-0.3967345693140487
1539131343975952,-2.7161058976118966,1.739528496223329,0.03051804379333589
1539131343991957,-4.180971999694748,0.5188067444876197,1.2512397955290453
1539131344007962,-4.974441138323073,0.03051804379333589,2.532997634851654
1539131344023967,-5.401693751430457,0.45777065690094787,3.3875028610666504
1539131344039972,-5.157549401083315,0.8850232700083325,3.814755474174035
1539131344055977,-4.547188525215461,0.7629510948347615,3.6316472114137923
1539131344071982,-3.3264667734797513,0.7019150072480898,2.9602502479590385
1539131344087987,-1.6174563210497581,0.8850232700083325,2.166781109330941
1539131344103992,0.03051804379333589,1.2512397955290453,1.2512397955290453
1539131344119997,1.3733119707026162,2.227817196917613,0.3967345693140487
1539131344136002,1.8616006713969,3.0823224231326094,0.03051804379333589
1539131344152007,1.983672846570471,3.2654306858930795,-0.15259021896690683
1539131344168012,1.739528496223329,3.570611123826893,-0.7019150072480898
1539131344184017,1.3733119707026162,3.936827649347606,-1.0681315327688026
1539131344200022,1.1902037079423735,3.814755474174035,-1.1902037079423735
1539131344216027,1.8616006713969,3.2654306858930795,-1.6174563210497581
1539131344232032,2.7161058976118966,0.15259021896690683,-1.1291676203554744
1539131344248037,-3.814755474174035,4.242008087281647,-1.1902037079423735
1539131344264042,-7.17174029144735,6.744487678339738,-1.4343480582895154
1539131344280048,-3.3264667734797513,4.119935912108076,-1.983672846570471
1539131344296051,1.5564202334630863,-0.45777065690094787,-1.3733119707026162
1539131344312056,1.3733119707026162,0.213626306553806,-0.3967345693140487
1539131344328061,-2.166781109330941,3.814755474174035,-0.15259021896690683
1539131344344066,-2.8381780727854675,3.875791561760934,-0.45777065690094787
1539131344360071,-0.2746623941404778,1.6174563210497581,-0.5798428320745188
1539131344376076,1.3733119707026162,0.9460593575952316,0.3967345693140487
1539131344392081,0.7629510948347615,2.227817196917613,1.3122758831159445
1539131344408086,-0.213626306553806,2.5940337224383256,1.3122758831159445
1539131344424091,-0.3967345693140487,2.5940337224383256,0.7019150072480898
1539131344440096,-0.2746623941404778,2.9602502479590385,0.45777065690094787
1539131344456101,0.03051804379333589,2.7771419851987957,0.2746623941404778
1539131344472106,0.09155413138023505,2.166781109330941,-0.6408789196611906
1539131344488111,-0.03051804379333589,2.4719615472647547,-1.3122758831159445
1539131344504116,0.33569848172737693,2.7771419851987957,-1.3122758831159445
1539131344520121,0.8850232700083325,2.7161058976118966,-0.8239871824216607
1539131344536126,0.6408789196611906,3.4485389486533222,0.03051804379333589
1539131344552131,-0.33569848172737693,4.303044174868319,0.3967345693140487
1539131344568136,-1.0070954451819034,4.119935912108076,-0.213626306553806
1539131344584141,-1.0681315327688026,3.5095750362402214,-1.1902037079423735
1539131344600146,-0.8239871824216607,3.0823224231326094,-1.9226367589837992
1539131344616150,-0.5798428320745188,3.0823224231326094,-1.8616006713969
1539131344632155,-0.2746623941404778,3.1433585107195086,-1.4343480582895154
1539131344648160,-0.09155413138023505,3.2043945983061803,-0.9460593575952316
1539131344664165,0.213626306553806,3.4485389486533222,-0.03051804379333589
1539131344680170,0.8239871824216607,3.570611123826893,0.7019150072480898
1539131344696175,1.2512397955290453,3.2654306858930795,0.7629510948347615
1539131344712180,1.5564202334630863,2.7161058976118966,0.3967345693140487
1539131344728185,1.6174563210497581,2.227817196917613,-0.15259021896690683
1539131344744190,1.6174563210497581,2.04470893415737,-0.3967345693140487
1539131344760195,1.4343480582895154,2.288853284504512,-0.15259021896690683
1539131344776200,1.2512397955290453,2.3498893720911838,0.5798428320745188
1539131344792205,0.8850232700083325,2.655069810025225,1.3122758831159445
1539131344808210,0.45777065690094787,2.8992141603723667,1.5564202334630863
1539131344824215,0.15259021896690683,2.7771419851987957,1.2512397955290453
1539131344840220,-0.15259021896690683,2.5940337224383256,0.45777065690094787
1539131344856225,-0.15259021896690683,2.4719615472647547,0.03051804379333589
1539131344872230,0.03051804379333589,2.532997634851654,0.03051804379333589
1539131344888235,0.2746623941404778,3.0212863355459376,0.15259021896690683
1539131344904240,0.33569848172737693,3.2654306858930795,0.09155413138023505
1539131344920245,0.2746623941404778,3.3264667734797513,-0.2746623941404778
1539131344936279,0.33569848172737693,3.0823224231326094,-0.7629510948347615
1539131344952284,0.3967345693140487,2.8992141603723667,-0.9460593575952316
1539131344968289,-0.2746623941404778,3.692683299000464,-0.8239871824216607
1539131344984294,-0.45777065690094787,3.7537193865873633,-0.5798428320745188
1539131345000299,-0.03051804379333589,3.2043945983061803,-0.7629510948347615
1539131345016304,0.45777065690094787,2.8381780727854675,-0.8239871824216607
1539131345032309,0.5798428320745188,2.7771419851987957,-0.7019150072480898
1539131345048314,0.5188067444876197,3.1433585107195086,-0.7629510948347615
1539131345064319,1.0681315327688026,2.9602502479590385,-0.33569848172737693
1539131345080324,1.6174563210497581,3.0212863355459376,-0.09155413138023505
1539131345096329,1.739528496223329,3.2654306858930795,0.03051804379333589
1539131345112334,1.9226367589837992,3.1433585107195086,0.03051804379333589
1539131345128339,1.983672846570471,3.0212863355459376,-0.15259021896690683
1539131345144344,1.8005645838102282,2.655069810025225,-0.33569848172737693
1539131345160349,1.3122758831159445,2.655069810025225,-0.15259021896690683
1539131345176355,0.8239871824216607,2.8381780727854675,0.15259021896690683
1539131345192360,0.6408789196611906,2.5940337224383256,0.3967345693140487
1539131345208365,0.5188067444876197,2.288853284504512,0.45777065690094787
1539131345224370,0.03051804379333589,2.166781109330941,0.15259021896690683
1539131345240375,-0.7019150072480898,2.166781109330941,-0.213626306553806
1539131345256378,-1.0681315327688026,2.655069810025225,-0.33569848172737693
1539131345272383,-0.7629510948347615,2.7161058976118966,-0.2746623941404778
1539131345288388,-0.213626306553806,2.4719615472647547,-0.2746623941404778
1539131345304393,0.15259021896690683,2.288853284504512,-0.6408789196611906
1539131345320398,-0.03051804379333589,2.288853284504512,-1.3122758831159445
1539131345336403,-0.09155413138023505,2.5940337224383256,-1.8005645838102282
1539131345352408,0.03051804379333589,2.7161058976118966,-1.8005645838102282
1539131345368413,-0.213626306553806,3.2654306858930795,-1.3122758831159445
1539131345384418,-0.03051804379333589,3.5095750362402214,-1.0681315327688026
1539131345400423,0.5798428320745188,2.227817196917613,-1.6784924086366573
1539131345416428,0.2746623941404778,2.288853284504512,-1.1902037079423735
1539131345432433,-0.8239871824216607,3.570611123826893,-0.33569848172737693
1539131345448438,-1.1902037079423735,2.9602502479590385,-0.09155413138023505
1539131345464443,-0.7629510948347615,1.8616006713969,-0.03051804379333589
1539131345480448,-0.6408789196611906,1.1902037079423735,-0.45777065690094787
1539131345496453,-0.7019150072480898,1.1291676203554744,-0.3967345693140487
1539131345512458,-0.7629510948347615,1.8005645838102282,-0.03051804379333589
1539131345528463,-0.45777065690094787,1.9226367589837992,0.45777065690094787
1539131345544469,0.213626306553806,1.739528496223329,0.2746623941404778
1539131345560474,0.7019150072480898,2.04470893415737,0.213626306553806
1539131345576507,1.0681315327688026,2.04470893415737,0.45777065690094787
1539131345592512,1.3733119707026162,2.227817196917613,0.5798428320745188
1539131345608517,1.3733119707026162,2.410925459678083,0.2746623941404778
1539131345624522,1.1902037079423735,2.04470893415737,-0.45777065690094787
1539131345640527,0.7629510948347615,2.04470893415737,-0.8239871824216607
1539131345656532,0.2746623941404778,2.3498893720911838,-0.5798428320745188
1539131345672537,-0.2746623941404778,2.655069810025225,-0.2746623941404778
1539131345688542,-0.9460593575952316,2.8992141603723667,-0.33569848172737693
1539131345704548,-1.3733119707026162,3.0212863355459376,-0.7019150072480898
1539131345720553,-1.2512397955290453,2.655069810025225,-1.0681315327688026
1539131345736558,-0.8239871824216607,2.227817196917613,-1.4343480582895154
1539131345752563,-0.8239871824216607,2.7771419851987957,-1.5564202334630863
1539131345768568,-0.5798428320745188,3.3875028610666504,-1.3122758831159445
1539131345784573,0.5188067444876197,2.8992141603723667,-1.2512397955290453
1539131345800578,1.4343480582895154,2.4719615472647547,-1.1902037079423735
1539131345816583,1.9226367589837992,2.8992141603723667,-0.8239871824216607
1539131345832588,1.9226367589837992,3.5095750362402214,-0.09155413138023505
1539131345848593,1.8616006713969,3.3875028610666504,0.33569848172737693
1539131345864598,1.6174563210497581,2.8381780727854675,0.213626306553806
1539131345880603,1.0070954451819034,2.655069810025225,-0.09155413138023505
1539131345896606,0.03051804379333589,2.7161058976118966,-0.213626306553806
1539131345912611,-0.3967345693140487,2.5940337224383256,0.09155413138023505
1539131345928616,-0.33569848172737693,2.3498893720911838,0.3967345693140487
1539131345944621,-0.5798428320745188,2.3498893720911838,0.15259021896690683
1539131345960626,-1.0681315327688026,2.410925459678083,-0.2746623941404778
1539131345976631,-1.2512397955290453,2.7161058976118966,-0.3967345693140487
1539131345992636,-1.0070954451819034,3.0212863355459376,-0.09155413138023505
1539131346008641,-0.45777065690094787,3.0823224231326094,0.15259021896690683
1539131346024646,-0.213626306553806,3.4485389486533222,-0.03051804379333589
1539131346040651,0.213626306553806,3.6316472114137923,-0.45777065690094787
1539131346056656,0.7019150072480898,3.570611123826893,-0.7019150072480898
1539131346072662,1.1291676203554744,3.997863736934505,-0.3967345693140487
1539131346088667,1.3733119707026162,4.058899824521177,-0.03051804379333589
1539131346104672,1.3122758831159445,3.814755474174035,-0.09155413138023505
1539131346120677,0.5798428320745188,3.814755474174035,-0.45777065690094787
1539131346136682,0.15259021896690683,3.570611123826893,-0.3967345693140487
1539131346152687,0.15259021896690683,3.3875028610666504,0.15259021896690683
1539131346168692,0.03051804379333589,3.2654306858930795,0.33569848172737693
1539131346184697,-0.09155413138023505,2.8381780727854675,0.15259021896690683
1539131346200702,-0.15259021896690683,2.655069810025225,-0.5188067444876197
1539131346216705,-0.03051804379333589,2.4719615472647547,-0.45777065690094787
1539131346232710,0.33569848172737693,2.7161058976118966,0.03051804379333589
1539131346248715,0.7629510948347615,2.7771419851987957,0.6408789196611906
1539131346264720,1.0681315327688026,2.655069810025225,0.6408789196611906
1539131346280725,1.0070954451819034,2.288853284504512,-0.03051804379333589
1539131346296730,0.9460593575952316,2.4719615472647547,-0.3967345693140487
1539131346312735,0.8239871824216607,2.9602502479590385,-0.2746623941404778
1539131346328740,0.7019150072480898,3.1433585107195086,-0.15259021896690683
1539131346344745,0.45777065690094787,3.2654306858930795,-0.3967345693140487
1539131346360750,0.03051804379333589,3.2043945983061803,-0.9460593575952316
1539131346376755,-0.3967345693140487,3.0823224231326094,-1.2512397955290453
1539131346392760,-0.5188067444876197,3.2654306858930795,-1.1902037079423735
1539131346408765,-0.6408789196611906,3.692683299000464,-0.7019150072480898
1539131346424770,-0.45777065690094787,3.6316472114137923,-0.45777065690094787
1539131346440775,-0.45777065690094787,3.570611123826893,-0.7629510948347615
1539131346456781,-0.15259021896690683,3.3264667734797513,-1.0681315327688026
1539131346472786,0.33569848172737693,3.0823224231326094,-1.0070954451819034
1539131346488791,0.5798428320745188,3.1433585107195086,-0.6408789196611906
1539131346504796,0.6408789196611906,3.0823224231326094,-0.2746623941404778
1539131346520801,0.3967345693140487,3.2654306858930795,0.03051804379333589
1539131346536834,0.33569848172737693,2.9602502479590385,0.15259021896690683
1539131346552840,0.45777065690094787,2.288853284504512,0.09155413138023505
1539131346568845,0.15259021896690683,2.166781109330941,0.03051804379333589
1539131346584851,-0.03051804379333589,2.227817196917613,0.3967345693140487
1539131346600856,0.15259021896690683,2.5940337224383256,0.7629510948347615
1539131346616862,0.5798428320745188,2.105745021744042,0.9460593575952316
1539131346632867,0.5188067444876197,1.6784924086366573,0.45777065690094787
1539131346648873,0.2746623941404778,1.8616006713969,0.09155413138023505
1539131346664878,0.2746623941404778,2.4719615472647547,0.33569848172737693
1539131346680884,0.33569848172737693,2.5940337224383256,0.5188067444876197
1539131346696890,0.15259021896690683,2.532997634851654,0.2746623941404778
1539131346712895,0.09155413138023505,2.4719615472647547,-0.213626306553806
1539131346728901,0.33569848172737693,2.5940337224383256,-0.3967345693140487
1539131346744906,0.7019150072480898,3.2043945983061803,-0.09155413138023505
1539131346760912,0.8850232700083325,3.692683299000464,0.15259021896690683
1539131346776917,1.2512397955290453,3.5095750362402214,0.09155413138023505
1539131346792923,1.1902037079423735,3.570611123826893,-0.3967345693140487
1539131346808928,0.7629510948347615,3.7537193865873633,-0.5798428320745188
1539131346824934,0.5798428320745188,3.936827649347606,-0.5798428320745188
1539131346840939,0.45777065690094787,3.7537193865873633,-0.8239871824216607
1539131346856933,0.3967345693140487,3.3875028610666504,-1.3733119707026162
1539131346872939,0.213626306553806,3.2654306858930795,-1.4953841458761872
1539131346888944,0.09155413138023505,3.1433585107195086,-1.2512397955290453
1539131346904950,-0.03051804379333589,3.0823224231326094,-0.8239871824216607
1539131346920955,0.03051804379333589,3.0823224231326094,-0.8239871824216607
1539131346936961,-0.03051804379333589,2.655069810025225,-0.8850232700083325
1539131346952966,0.15259021896690683,2.04470893415737,-1.0681315327688026
1539131346968972,0.5188067444876197,1.6174563210497581,-1.0681315327688026
1539131346984977,0.9460593575952316,1.2512397955290453,-0.7019150072480898
1539131347000983,1.2512397955290453,1.3733119707026162,-0.213626306553806
1539131347016988,1.1902037079423735,1.5564202334630863,0.45777065690094787
1539131347032994,1.0681315327688026,1.2512397955290453,0.6408789196611906
1539131347048999,1.0070954451819034,0.8239871824216607,0.6408789196611906
1539131347065005,0.8239871824216607,0.7019150072480898,0.5798428320745188
1539131347081010,0.5188067444876197,0.9460593575952316,0.5798428320745188
1539131347097016,0.2746623941404778,1.739528496223329,0.8850232700083325
1539131347113021,0.213626306553806,2.4719615472647547,1.1291676203554744
1539131347129027,0.3967345693140487,2.655069810025225,0.7629510948347615
1539131347145033,0.5798428320745188,2.7161058976118966,0.213626306553806
1539131347161038,0.7019150072480898,3.0212863355459376,-0.15259021896690683
1539131347177032,0.5188067444876197,3.1433585107195086,-0.6408789196611906
1539131347193037,0.15259021896690683,3.2043945983061803,-1.0681315327688026
1539131347209042,-0.2746623941404778,3.3264667734797513,-1.0070954451819034
1539131347225047,-0.6408789196611906,3.570611123826893,-0.7629510948347615
1539131347241052,-1.1291676203554744,3.7537193865873633,-0.45777065690094787
1539131347257057,-1.4343480582895154,4.058899824521177,-0.15259021896690683
1539131347273062,-1.3122758831159445,3.4485389486533222,-0.213626306553806
1539131347289067,-0.8239871824216607,2.5940337224383256,-0.7629510948347615
1539131347305072,-0.2746623941404778,2.166781109330941,-1.1291676203554744
1539131347321077,0.3967345693140487,2.04470893415737,-0.45777065690094787
1539131347337082,1.1902037079423735,1.9226367589837992,0.45777065690094787
1539131347353088,1.6174563210497581,1.6784924086366573,1.1291676203554744
1539131347369093,1.5564202334630863,1.6174563210497581,1.2512397955290453
1539131347385098,1.3733119707026162,1.6174563210497581,1.0070954451819034
1539131347401103,1.1291676203554744,1.2512397955290453,0.3967345693140487
1539131347417108,0.7629510948347615,1.2512397955290453,0.03051804379333589
1539131347433113,0.5188067444876197,1.4953841458761872,-0.2746623941404778
1539131347449118,0.03051804379333589,1.9226367589837992,-0.5798428320745188
1539131347465123,-0.45777065690094787,2.227817196917613,-0.8850232700083325
1539131347481128,-0.8239871824216607,3.2043945983061803,-0.6408789196611906
1539131347497161,-0.5188067444876197,3.692683299000464,-0.45777065690094787
1539131347513167,-0.15259021896690683,3.692683299000464,-0.9460593575952316
1539131347529173,0.09155413138023505,3.2654306858930795,-1.8616006713969
1539131347545178,0.2746623941404778,3.0212863355459376,-2.3498893720911838
1539131347561184,0.3967345693140487,2.8992141603723667,-2.04470893415737
1539131347577189,0.3967345693140487,3.1433585107195086,-1.3122758831159445
1539131347593195,0.213626306553806,3.0823224231326094,-0.7629510948347615
1539131347609200,0.03051804379333589,3.1433585107195086,-0.3967345693140487
1539131347625206,0.3967345693140487,2.7161058976118966,0.09155413138023505
1539131347641211,0.7019150072480898,2.288853284504512,0.5188067444876197
1539131347657217,1.1291676203554744,2.105745021744042,0.7019150072480898
1539131347673222,1.3733119707026162,2.04470893415737,0.8239871824216607
1539131347689228,1.5564202334630863,1.739528496223329,0.8850232700083325
1539131347705233,1.4953841458761872,1.739528496223329,0.7019150072480898
1539131347721239,1.1902037079423735,1.983672846570471,0.5798428320745188
1539131347737244,0.7019150072480898,2.105745021744042,0.45777065690094787
1539131347753250,0.3967345693140487,2.288853284504512,0.213626306553806
1539131347769255,0.2746623941404778,2.532997634851654,0.213626306553806
1539131347785261,0.45777065690094787,2.288853284504512,-0.213626306553806
1539131347801266,0.8239871824216607,2.166781109330941,-0.45777065690094787
1539131347817260,1.1902037079423735,2.288853284504512,-0.09155413138023505
1539131347833266,1.0681315327688026,2.655069810025225,0.33569848172737693
1539131347849271,0.8239871824216607,3.0212863355459376,0.3967345693140487
1539131347865277,0.5188067444876197,2.9602502479590385,0.213626306553806
1539131347881282,0.15259021896690683,2.8381780727854675,-0.33569848172737693
1539131347897288,-0.09155413138023505,2.532997634851654,-0.8239871824216607
1539131347913293,-0.03051804379333589,2.288853284504512,-0.8239871824216607
1539131347929299,-0.03051804379333589,2.8381780727854675,-0.33569848172737693
1539131347945304,0.03051804379333589,3.2654306858930795,0.09155413138023505
1539131347961310,0.45777065690094787,2.655069810025225,-0.09155413138023505
1539131347977316,0.8239871824216607,2.4719615472647547,-0.45777065690094787
1539131347993321,1.1902037079423735,2.9602502479590385,-0.3967345693140487
1539131348009327,1.739528496223329,2.8381780727854675,-0.09155413138023505
1539131348025332,2.105745021744042,2.7161058976118966,-0.2746623941404778
1539131348041338,2.105745021744042,2.5940337224383256,-0.45777065690094787
1539131348057343,1.8616006713969,2.4719615472647547,-0.2746623941404778
1539131348073349,1.5564202334630863,2.532997634851654,0.03051804379333589
1539131348089354,1.0681315327688026,2.288853284504512,0.2746623941404778
1539131348105360,0.213626306553806,1.8616006713969,0.09155413138023505
1539131348121365,-0.9460593575952316,1.0681315327688026,-0.7629510948347615
1539131348137390,-1.6784924086366573,1.0681315327688026,-1.1291676203554744
1539131348153395,-1.8616006713969,1.4953841458761872,-0.5798428320745188
1539131348169401,-1.8616006713969,1.983672846570471,-0.09155413138023505
1539131348185406,-1.6174563210497581,2.410925459678083,-0.15259021896690683
1539131348201412,-0.9460593575952316,2.166781109330941,-0.5188067444876197
1539131348217417,-0.3967345693140487,1.8616006713969,-1.0681315327688026
1539131348233423,0.33569848172737693,1.983672846570471,-1.0681315327688026
1539131348249428,0.8239871824216607,2.532997634851654,-0.6408789196611906
1539131348265434,1.1902037079423735,2.655069810025225,-0.15259021896690683
1539131348281439,1.4343480582895154,2.7771419851987957,0.03051804379333589
1539131348297445,1.4343480582895154,2.410925459678083,0.33569848172737693
1539131348313450,1.1902037079423735,2.288853284504512,0.5188067444876197
1539131348329456,0.9460593575952316,1.8005645838102282,0.7629510948347615
1539131348345461,0.33569848172737693,1.2512397955290453,0.2746623941404778
1539131348361467,-0.7629510948347615,1.3733119707026162,-0.45777065690094787
1539131348377473,-1.3122758831159445,1.4343480582895154,-0.6408789196611906
1539131348393478,-1.2512397955290453,1.739528496223329,-0.2746623941404778
1539131348409484,-0.8850232700083325,2.227817196917613,0.15259021896690683
1539131348425489,-0.5798428320745188,2.532997634851654,0.03051804379333589
1539131348441495,-0.45777065690094787,2.288853284504512,-0.9460593575952316
1539131348457489,-0.3967345693140487,1.983672846570471,-1.983672846570471
1539131348473494,-0.3967345693140487,2.4719615472647547,-2.227817196917613
1539131348489500,-0.03051804379333589,2.7771419851987957,-1.8005645838102282
1539131348505505,0.213626306553806,2.655069810025225,-1.6174563210497581
1539131348521511,-0.03051804379333589,2.9602502479590385,-1.5564202334630863
1539131348537516,-0.3967345693140487,3.2043945983061803,-1.1902037079423735
1539131348553522,-0.33569848172737693,2.7771419851987957,-0.7629510948347615
1539131348569527,-0.2746623941404778,2.3498893720911838,-0.7629510948347615
1539131348585533,-0.3967345693140487,2.04470893415737,-1.1902037079423735
1539131348601538,-0.33569848172737693,2.105745021744042,-1.0681315327688026
1539131348617544,-0.2746623941404778,1.6174563210497581,-0.8850232700083325
1539131348633549,-0.3967345693140487,1.8616006713969,-0.5188067444876197
1539131348649555,-0.09155413138023505,1.739528496223329,-0.09155413138023505
1539131348665560,0.33569848172737693,1.3733119707026162,0.213626306553806
1539131348681566,0.45777065690094787,1.6174563210497581,0.3967345693140487
1539131348697571,0.3967345693140487,1.6174563210497581,0.3967345693140487
1539131348713577,0.2746623941404778,1.6174563210497581,0.15259021896690683
1539131348729582,0.213626306553806,1.2512397955290453,-0.33569848172737693
1539131348745588,0.213626306553806,1.4343480582895154,-0.15259021896690683
1539131348761593,0.213626306553806,2.4719615472647547,0.5798428320745188
1539131348777588,0.33569848172737693,2.532997634851654,0.7629510948347615
1539131348793593,0.45777065690094787,2.410925459678083,-0.03051804379333589
1539131348809599,0.3967345693140487,2.288853284504512,-0.6408789196611906
1539131348825604,0.33569848172737693,2.655069810025225,-0.6408789196611906
1539131348841610,0.15259021896690683,3.2043945983061803,-0.2746623941404778
1539131348857615,0.09155413138023505,3.2654306858930795,0.03051804379333589
1539131348873621,0.15259021896690683,2.8381780727854675,-0.2746623941404778
1539131348889626,-0.09155413138023505,2.532997634851654,-0.7629510948347615
1539131348905632,-0.15259021896690683,2.7161058976118966,-0.5798428320745188
1539131348921637,0.09155413138023505,2.8992141603723667,0.15259021896690683
1539131348937643,0.5188067444876197,2.655069810025225,0.6408789196611906
1539131348953648,0.7019150072480898,2.288853284504512,0.45777065690094787
1539131348969654,0.7629510948347615,2.410925459678083,0.2746623941404778
1539131348985659,1.1902037079423735,2.04470893415737,0.45777065690094787
1539131349001665,1.1902037079423735,1.983672846570471,0.45777065690094787
1539131349017670,1.0070954451819034,1.8616006713969,0.3967345693140487
1539131349033676,1.2512397955290453,1.3733119707026162,0.5188067444876197
1539131349049681,0.9460593575952316,1.4953841458761872,0.7019150072480898
1539131349065687,0.33569848172737693,1.3122758831159445,0.7019150072480898
1539131349081692,-0.09155413138023505,1.4953841458761872,0.6408789196611906
1539131349097717,-0.213626306553806,1.3733119707026162,0.5798428320745188
1539131349113722,-0.33569848172737693,1.1291676203554744,0.33569848172737693
1539131349129728,-0.6408789196611906,1.8005645838102282,-0.03051804379333589
1539131349145733,-0.5188067444876197,1.8616006713969,-0.3967345693140487
1539131349161739,-0.213626306553806,1.983672846570471,-0.5798428320745188
1539131349177744,0.09155413138023505,2.3498893720911838,-0.5188067444876197
1539131349193750,0.213626306553806,2.532997634851654,-0.6408789196611906
1539131349209756,0.09155413138023505,3.0823224231326094,-0.8850232700083325
1539131349225761,-0.15259021896690683,3.6316472114137923,-0.8850232700083325
1539131349241767,-0.03051804379333589,3.692683299000464,-0.9460593575952316
1539131349257772,0.33569848172737693,3.6316472114137923,-1.1902037079423735
1539131349273778,0.8239871824216607,3.875791561760934,-1.0681315327688026
1539131349289783,1.1902037079423735,3.936827649347606,-0.5188067444876197
1539131349305789,1.3122758831159445,4.180971999694748,-0.09155413138023505
1539131349321794,1.0070954451819034,3.814755474174035,-0.15259021896690683
1539131349337800,0.213626306553806,3.0212863355459376,-0.8239871824216607
1539131349353805,-0.15259021896690683,2.7161058976118966,-1.0681315327688026
1539131349369811,-0.03051804379333589,2.5940337224383256,-0.2746623941404778
1539131349385816,-0.09155413138023505,2.8381780727854675,0.7019150072480898
1539131349401822,-0.5188067444876197,2.8992141603723667,0.7629510948347615
1539131349417785,-0.6408789196611906,2.532997634851654,0.213626306553806
1539131349433791,-0.5798428320745188,2.8992141603723667,0.09155413138023505
1539131349449796,0.2746623941404778,3.0212863355459376,0.45777065690094787
1539131349465802,0.7629510948347615,2.8992141603723667,0.6408789196611906
1539131349481807,0.5798428320745188,2.8992141603723667,0.15259021896690683
1539131349497813,0.5188067444876197,2.8992141603723667,-0.03051804379333589
1539131349513818,0.3967345693140487,3.0212863355459376,0.03051804379333589
1539131349529824,0.2746623941404778,2.9602502479590385,0.213626306553806
1539131349545829,-0.03051804379333589,2.8381780727854675,-0.03051804379333589
1539131349561835,-0.2746623941404778,2.7161058976118966,-0.213626306553806
1539131349577840,-0.6408789196611906,2.8992141603723667,-0.5188067444876197
1539131349593846,-0.7629510948347615,3.2654306858930795,-0.45777065690094787
1539131349609851,-0.5798428320745188,3.0823224231326094,-0.5188067444876197
1539131349625857,-0.3967345693140487,3.0823224231326094,-0.8239871824216607
1539131349641862,-0.33569848172737693,3.3875028610666504,-1.1291676203554744
1539131349657868,0.09155413138023505,3.2654306858930795,-1.1902037079423735
1539131349673874,0.7629510948347615,3.0823224231326094,-0.7019150072480898
1539131349689879,1.2512397955290453,2.8381780727854675,-0.2746623941404778
1539131349705885,1.3733119707026162,2.7161058976118966,-0.03051804379333589
1539131349721890,1.3733119707026162,2.8381780727854675,0.09155413138023505
1539131349737915,1.4343480582895154,2.5940337224383256,0.15259021896690683
1539131349753920,1.2512397955290453,2.532997634851654,0.2746623941404778
1539131349769926,0.7019150072480898,2.655069810025225,0.33569848172737693
1539131349785931,0.15259021896690683,2.655069810025225,-0.03051804379333589
1539131349801937,-0.8239871824216607,2.7771419851987957,-0.45777065690094787
1539131349817942,-1.0070954451819034,2.5940337224383256,-0.8239871824216607
1539131349833948,-1.0070954451819034,2.04470893415737,-1.2512397955290453
1539131349849953,-1.3733119707026162,2.5940337224383256,-1.2512397955290453
1539131349865959,-1.1902037079423735,3.3875028610666504,-0.9460593575952316
1539131349881964,-0.6408789196611906,3.2654306858930795,-1.0070954451819034
1539131349897970,-0.15259021896690683,3.5095750362402214,-1.2512397955290453
1539131349913975,1.0070954451819034,3.997863736934505,-0.8850232700083325
1539131349929981,2.04470893415737,4.119935912108076,-0.2746623941404778
1539131349945986,2.105745021744042,4.547188525215461,-0.213626306553806
1539131349961992,1.8616006713969,4.180971999694748,-0.7019150072480898
1539131349977997,1.4953841458761872,3.570611123826893,-1.1902037079423735
1539131349994003,1.0681315327688026,3.3875028610666504,-1.0681315327688026
1539131350010008,0.5188067444876197,3.5095750362402214,-0.5188067444876197
1539131350026014,0.15259021896690683,3.3875028610666504,0.09155413138023505
1539131350042019,0.03051804379333589,3.2043945983061803,0.33569848172737693
1539131350058014,0.213626306553806,2.5940337224383256,0.3967345693140487
1539131350074019,0.15259021896690683,2.227817196917613,0.3967345693140487
1539131350090025,0.15259021896690683,2.04470893415737,0.33569848172737693
1539131350106030,0.2746623941404778,1.6784924086366573,0.213626306553806
1539131350122036,0.213626306553806,1.5564202334630863,-0.213626306553806
1539131350138041,-0.03051804379333589,1.8005645838102282,-0.5188067444876197
1539131350154047,0.15259021896690683,2.04470893415737,-0.2746623941404778
1539131350170052,0.15259021896690683,2.8381780727854675,0.03051804379333589
1539131350186058,0.15259021896690683,3.3875028610666504,-0.03051804379333589
1539131350202063,0.3967345693140487,3.3264667734797513,-0.45777065690094787
1539131350218069,0.45777065690094787,2.8992141603723667,-1.0070954451819034
1539131350234074,0.2746623941404778,2.410925459678083,-1.6174563210497581
1539131350250080,-0.09155413138023505,2.288853284504512,-1.6174563210497581
1539131350266085,-0.45777065690094787,2.3498893720911838,-1.3122758831159445
1539131350282091,-0.8239871824216607,2.5940337224383256,-0.5798428320745188
1539131350298096,-0.7629510948347615,2.7161058976118966,0.15259021896690683
1539131350314102,-0.7629510948347615,2.410925459678083,0.5188067444876197
1539131350330107,-0.7629510948347615,2.410925459678083,0.2746623941404778
1539131350346113,-0.7019150072480898,2.3498893720911838,-0.33569848172737693
1539131350362118,-0.213626306553806,1.9226367589837992,-0.8239871824216607
1539131350378112,0.5798428320745188,1.8005645838102282,-0.9460593575952316
1539131350394118,1.0070954451819034,1.6784924086366573,-0.6408789196611906
1539131350410123,1.1902037079423735,1.6784924086366573,-0.5188067444876197
1539131350426129,1.1291676203554744,1.9226367589837992,-0.15259021896690683
1539131350442134,0.8850232700083325,2.166781109330941,0.15259021896690683
1539131350458140,0.45777065690094787,1.983672846570471,-0.09155413138023505
1539131350474146,0.213626306553806,1.6784924086366573,-0.8850232700083325
1539131350490151,-0.03051804379333589,1.8005645838102282,-1.5564202334630863
1539131350506157,-0.09155413138023505,2.8992141603723667,-1.4953841458761872
1539131350522162,0.3967345693140487,3.814755474174035,-1.0070954451819034
1539131350538168,0.9460593575952316,4.852368963149502,-0.5188067444876197
1539131350554173,1.2512397955290453,6.317235065232353,-0.6408789196611906
1539131350570179,1.4953841458761872,7.049668116273779,-1.3733119707026162
1539131350586184,1.8616006713969,6.317235065232353,-1.739528496223329
1539131350602190,2.04470893415737,5.645838101777599,-1.5564202334630863
1539131350618195,1.6784924086366573,5.279621576256886,-0.7019150072480898
1539131350634201,1.1291676203554744,4.669260700389032,0.45777065690094787
1539131350650206,0.15259021896690683,4.547188525215461,1.1902037079423735
1539131350666212,-0.8850232700083325,4.119935912108076,1.5564202334630863
1539131350682217,-1.4343480582895154,3.3264667734797513,1.6784924086366573
1539131350698242,-1.0070954451819034,2.9602502479590385,1.8005645838102282
1539131350714247,-0.33569848172737693,2.288853284504512,1.6784924086366573
1539131350730253,0.03051804379333589,1.8005645838102282,1.6784924086366573
1539131350746258,0.5798428320745188,1.983672846570471,1.6784924086366573
1539131350762264,1.5564202334630863,2.166781109330941,1.9226367589837992
1539131350778269,2.410925459678083,1.9226367589837992,2.04470893415737
1539131350794275,2.8992141603723667,1.739528496223329,2.04470893415737
1539131350810280,2.7161058976118966,2.105745021744042,1.6784924086366573
1539131350826286,2.288853284504512,2.227817196917613,1.4343480582895154
1539131350842291,1.6174563210497581,2.7771419851987957,1.2512397955290453
1539131350858297,0.8850232700083325,2.8992141603723667,1.1291676203554744
1539131350874302,0.33569848172737693,2.7161058976118966,0.7629510948347615
1539131350890308,-0.09155413138023505,2.7771419851987957,0.5188067444876197
1539131350906314,-0.33569848172737693,3.0212863355459376,0.09155413138023505
1539131350922319,0.03051804379333589,2.7161058976118966,-0.2746623941404778
1539131350938325,0.5798428320745188,2.288853284504512,-0.2746623941404778
1539131350954330,1.0681315327688026,2.5940337224383256,0.03051804379333589
1539131350970336,1.1902037079423735,2.5940337224383256,0.09155413138023505
1539131350986341,1.2512397955290453,2.410925459678083,-0.09155413138023505
1539131351002347,0.8850232700083325,2.4719615472647547,-0.2746623941404778
1539131351018341,0.6408789196611906,2.04470893415737,-0.2746623941404778
1539131351034346,0.2746623941404778,2.166781109330941,-0.33569848172737693
1539131351050352,-0.15259021896690683,2.288853284504512,-0.33569848172737693
1539131351066357,-0.15259021896690683,1.6784924086366573,-0.03051804379333589
1539131351082363,-0.15259021896690683,1.3733119707026162,0.6408789196611906
1539131351098368,-0.2746623941404778,1.3733119707026162,1.1291676203554744
1539131351114374,-0.5798428320745188,1.739528496223329,0.8850232700083325
1539131351130379,-0.33569848172737693,1.5564202334630863,0.3967345693140487
1539131351146385,-0.2746623941404778,1.8005645838102282,0.213626306553806
1539131351162390,-0.09155413138023505,2.04470893415737,0.213626306553806
1539131351178396,0.03051804379333589,2.410925459678083,0.03051804379333589
1539131351194401,0.09155413138023505,2.3498893720911838,-0.03051804379333589
1539131351210407,-0.15259021896690683,2.410925459678083,-0.213626306553806
1539131351226412,-0.45777065690094787,2.4719615472647547,-0.3967345693140487
1539131351242418,-0.3967345693140487,2.4719615472647547,-0.45777065690094787
1539131351258423,0.03051804379333589,2.288853284504512,0.03051804379333589
1539131351274429,0.3967345693140487,2.532997634851654,0.5798428320745188
1539131351290434,0.5798428320745188,2.8381780727854675,0.7019150072480898
1539131351306440,0.8850232700083325,2.8381780727854675,0.3967345693140487
1539131351322445,1.2512397955290453,2.8992141603723667,0.09155413138023505
1539131351338470,1.1902037079423735,2.8992141603723667,-0.03051804379333589
1539131351354476,0.9460593575952316,3.3264667734797513,0.03051804379333589
1539131351370481,0.7629510948347615,3.3875028610666504,-0.33569848172737693
1539131351386487,0.3967345693140487,3.875791561760934,-0.6408789196611906
1539131351402492,-0.03051804379333589,4.242008087281647,-0.5798428320745188
1539131351418498,-0.213626306553806,4.486152437628789,-0.15259021896690683
1539131351434503,-0.2746623941404778,4.242008087281647,-0.09155413138023505
1539131351450509,-0.7629510948347615,4.486152437628789,-0.3967345693140487
1539131351466514,-0.9460593575952316,4.42511635004189,-0.9460593575952316
1539131351482520,-1.0681315327688026,4.180971999694748,-1.5564202334630863
1539131351498525,-0.7019150072480898,4.119935912108076,-1.6784924086366573
1539131351514531,0.09155413138023505,4.242008087281647,-1.2512397955290453
1539131351530536,0.45777065690094787,4.119935912108076,-0.9460593575952316
1539131351546542,0.5188067444876197,3.570611123826893,-0.8850232700083325
1539131351562547,0.5798428320745188,2.655069810025225,-0.7629510948347615
1539131351578553,0.3967345693140487,2.410925459678083,0.09155413138023505
1539131351594558,0.45777065690094787,2.04470893415737,1.1902037079423735
1539131351610564,0.6408789196611906,2.410925459678083,2.105745021744042
1539131351626569,1.3733119707026162,2.532997634851654,3.0212863355459376
1539131351642575,2.288853284504512,2.04470893415737,3.814755474174035
1539131351658569,3.0823224231326094,1.6174563210497581,3.875791561760934
1539131351674574,3.936827649347606,0.8239871824216607,3.5095750362402214
1539131351690580,4.180971999694748,0.8239871824216607,3.2654306858930795
1539131351706586,3.5095750362402214,1.5564202334630863,3.0212863355459376
1539131351722591,2.4719615472647547,1.4343480582895154,2.288853284504512
1539131351738597,1.3122758831159445,1.4953841458761872,1.0681315327688026
1539131351754602,-0.09155413138023505,2.288853284504512,0.2746623941404778
1539131351770608,-1.0681315327688026,3.0823224231326094,0.03051804379333589
1539131351786613,-1.1902037079423735,3.2043945983061803,-0.3967345693140487
1539131351802619,-1.0681315327688026,3.4485389486533222,-1.1902037079423735
1539131351818624,-0.7629510948347615,3.936827649347606,-1.983672846570471
1539131351834630,-0.2746623941404778,4.669260700389032,-2.04470893415737
1539131351850635,0.09155413138023505,5.645838101777599,-1.739528496223329
1539131351866641,0.6408789196611906,5.828946364538069,-1.6174563210497581
1539131351882646,1.0070954451819034,5.523765926604028,-1.983672846570471
1539131351898652,0.9460593575952316,5.2185854886702145,-2.410925459678083
1539131351914657,0.5188067444876197,4.791332875562603,-2.532997634851654
1539131351930663,0.09155413138023505,3.997863736934505,-2.105745021744042
1539131351946668,-0.3967345693140487,3.7537193865873633,-1.2512397955290453
1539131351962674,-0.8850232700083325,3.875791561760934,-0.09155413138023505
1539131351978668,-0.8850232700083325,3.875791561760934,0.8239871824216607
1539131351994673,-0.5188067444876197,2.9602502479590385,0.8850232700083325
1539131352010679,0.2746623941404778,2.166781109330941,0.7629510948347615
1539131352026684,1.0681315327688026,2.04470893415737,0.7019150072480898
1539131352042690,1.5564202334630863,2.166781109330941,0.5188067444876197
1539131352058695,1.983672846570471,2.105745021744042,0.2746623941404778
1539131352074701,2.105745021744042,2.04470893415737,0.5188067444876197
1539131352090706,1.6784924086366573,2.410925459678083,0.8239871824216607
1539131352106712,1.4953841458761872,2.5940337224383256,1.1291676203554744
1539131352122717,1.0681315327688026,2.655069810025225,1.1291676203554744
1539131352138723,0.33569848172737693,2.8992141603723667,0.6408789196611906
1539131352154729,-0.15259021896690683,2.7161058976118966,0.03051804379333589
1539131352170734,-0.6408789196611906,2.7161058976118966,-0.3967345693140487
1539131352186740,-0.7019150072480898,3.0823224231326094,0.03051804379333589
1539131352202745,-0.15259021896690683,3.0823224231326094,0.3967345693140487
1539131352218751,-0.2746623941404778,3.2043945983061803,0.45777065690094787
1539131352234756,-0.7019150072480898,3.5095750362402214,0.2746623941404778
1539131352250762,-0.6408789196611906,3.3875028610666504,0.03051804379333589
1539131352266767,0.3967345693140487,2.7161058976118966,-0.03051804379333589
1539131352282773,1.5564202334630863,2.4719615472647547,0.213626306553806
1539131352298797,2.04470893415737,1.983672846570471,0.6408789196611906
1539131352314803,1.8616006713969,1.8616006713969,0.6408789196611906
1539131352330808,1.1291676203554744,1.8005645838102282,0.7019150072480898
1539131352346814,0.2746623941404778,1.4953841458761872,0.9460593575952316
1539131352362819,-0.45777065690094787,1.3122758831159445,1.1291676203554744
1539131352378825,-1.0070954451819034,0.9460593575952316,1.0681315327688026
1539131352394830,-1.4953841458761872,0.2746623941404778,0.5188067444876197
1539131352410836,-1.983672846570471,-0.45777065690094787,-0.6408789196611906
1539131352426841,-2.166781109330941,-2.04470893415737,-2.8381780727854675
1539131352442847,-2.04470893415737,-4.486152437628789,-5.889982452124741
1539131352458852,-2.105745021744042,-7.660028992141633,-10.528725108720437
1539131352474858,-1.6174563210497581,-7.843137254901876,-13.336385137712568
1539131352490863,0.5798428320745188,-5.462729839017356,-11.627374685282575
1539131352506869,2.8381780727854675,-1.8005645838102282,-6.744487678339738
1539131352522874,3.936827649347606,2.105745021744042,-1.5564202334630863
1539131352538880,3.570611123826893,4.730296787975931,2.4719615472647547
1539131352554885,2.288853284504512,5.523765926604028,3.875791561760934
1539131352570891,0.8239871824216607,5.584802014190927,3.4485389486533222
1539131352586897,-0.45777065690094787,5.279621576256886,2.8381780727854675
1539131352602902,-1.1902037079423735,5.2185854886702145,2.3498893720911838
1539131352618896,-1.6174563210497581,5.523765926604028,1.5564202334630863
1539131352634902,-1.4953841458761872,4.058899824521177,0.2746623941404778
1539131352650907,-1.0070954451819034,2.9602502479590385,-0.3967345693140487
1539131352666913,-0.213626306553806,3.6316472114137923,0.2746623941404778
1539131352682918,0.7629510948347615,4.730296787975931,1.1902037079423735
1539131352698924,1.6784924086366573,4.730296787975931,1.3733119707026162
1539131352714929,1.983672846570471,4.303044174868319,0.7019150072480898
1539131352730935,1.739528496223329,4.242008087281647,0.15259021896690683
1539131352746940,1.739528496223329,4.119935912108076,-0.03051804379333589
1539131352762946,1.9226367589837992,3.936827649347606,0.3967345693140487
1539131352778951,1.8005645838102282,3.5095750362402214,0.5798428320745188
1539131352794957,1.2512397955290453,3.3264667734797513,0.2746623941404778
1539131352810962,1.1291676203554744,3.0823224231326094,0.3967345693140487
1539131352826968,1.0681315327688026,2.8992141603723667,0.7019150072480898
1539131352842973,0.7629510948347615,2.7771419851987957,0.8239871824216607
1539131352858979,0.5798428320745188,2.5940337224383256,0.5798428320745188
1539131352874984,0.5188067444876197,2.7161058976118966,0.3967345693140487
1539131352890990,0.7019150072480898,2.8381780727854675,0.5188067444876197
1539131352906995,0.8850232700083325,2.8381780727854675,0.6408789196611906
1539131352923001,1.0070954451819034,3.0212863355459376,0.2746623941404778
1539131352938995,1.2512397955290453,2.8992141603723667,-0.15259021896690683
1539131352955001,1.4953841458761872,2.7771419851987957,-0.7629510948347615
1539131352971006,1.6784924086366573,3.2043945983061803,-0.9460593575952316
1539131352987012,1.6174563210497581,3.3875028610666504,-0.6408789196611906
1539131353003017,1.2512397955290453,3.814755474174035,-0.33569848172737693
1539131353019023,0.5188067444876197,3.6316472114137923,-0.33569848172737693
1539131353035028,-0.15259021896690683,3.3875028610666504,-0.5798428320745188
1539131353051034,-0.6408789196611906,2.410925459678083,-0.8850232700083325
1539131353067039,-0.8239871824216607,1.6784924086366573,-1.0070954451819034
1539131353083045,-1.1291676203554744,1.6784924086366573,-1.0070954451819034
1539131353099050,-0.8239871824216607,1.9226367589837992,-0.7019150072480898
1539131353115056,-0.03051804379333589,1.4953841458761872,-0.6408789196611906
1539131353131061,0.3967345693140487,1.5564202334630863,-0.6408789196611906
1539131353147067,1.1902037079423735,1.739528496223329,-0.2746623941404778
1539131353163072,1.9226367589837992,1.6784924086366573,0.2746623941404778
1539131353179078,2.04470893415737,2.105745021744042,0.6408789196611906
1539131353195083,2.105745021744042,2.04470893415737,0.5798428320745188
1539131353211089,2.105745021744042,1.6784924086366573,0.15259021896690683
1539131353227094,1.6784924086366573,1.4343480582895154,-0.03051804379333589
1539131353243100,1.0681315327688026,1.6174563210497581,-0.09155413138023505
1539131353259124,0.09155413138023505,1.739528496223329,-0.33569848172737693
1539131353275130,-1.1291676203554744,1.983672846570471,-0.8850232700083325
1539131353291135,-1.739528496223329,2.227817196917613,-1.2512397955290453
1539131353307141,-1.2512397955290453,2.166781109330941,-1.2512397955290453
1539131353323146,-0.8850232700083325,2.410925459678083,-1.0070954451819034
1539131353339152,-1.0681315327688026,3.4485389486533222,-0.5798428320745188
1539131353355157,-0.9460593575952316,4.180971999694748,-0.5188067444876197
1539131353371163,-0.03051804379333589,3.6316472114137923,-0.8239871824216607
1539131353387169,0.45777065690094787,3.2043945983061803,-1.4953841458761872
1539131353403174,0.6408789196611906,2.9602502479590385,-1.739528496223329
1539131353419180,0.7019150072480898,2.655069810025225,-1.4953841458761872
1539131353435185,0.5188067444876197,1.9226367589837992,-1.8616006713969
1539131353451191,0.2746623941404778,0.8239871824216607,-2.410925459678083
1539131353467196,0.2746623941404778,0.7629510948347615,-2.166781109330941
1539131353483202,0.3967345693140487,0.7019150072480898,-1.4953841458761872
1539131353499207,0.45777065690094787,0.7629510948347615,-0.7019150072480898
1539131353515213,-0.03051804379333589,1.6784924086366573,0.3967345693140487
1539131353531218,-0.213626306553806,2.227817196917613,1.6174563210497581
1539131353547224,-0.33569848172737693,2.8381780727854675,2.105745021744042
1539131353563229,-0.6408789196611906,2.8381780727854675,1.6174563210497581
1539131353579223,-0.2746623941404778,2.4719615472647547,0.5188067444876197
1539131353595229,0.3967345693140487,2.227817196917613,-0.213626306553806
1539131353611234,0.45777065690094787,2.655069810025225,-0.3967345693140487
1539131353627240,0.45777065690094787,3.0823224231326094,-0.5188067444876197
1539131353643245,0.3967345693140487,3.2654306858930795,-0.6408789196611906
1539131353659251,0.5188067444876197,3.1433585107195086,-1.0681315327688026
1539131353675256,0.5798428320745188,3.0823224231326094,-1.1902037079423735
1539131353691262,0.45777065690094787,3.7537193865873633,-0.5188067444876197
1539131353707267,0.7629510948347615,4.364080262455218,-0.15259021896690683
1539131353723273,0.8850232700083325,4.364080262455218,-0.2746623941404778
1539131353739278,0.7629510948347615,4.547188525215461,-0.5188067444876197
1539131353755284,0.5798428320745188,4.547188525215461,-1.1291676203554744
1539131353771289,0.33569848172737693,4.730296787975931,-1.1902037079423735
1539131353787295,0.213626306553806,5.828946364538069,-0.5188067444876197
1539131353803300,-0.09155413138023505,6.256198977645454,-0.2746623941404778
1539131353819306,-0.03051804379333589,6.378271152819025,-1.1291676203554744
1539131353835312,3.5095750362402214,3.2654306858930795,-0.15259021896690683
1539131353851317,5.645838101777599,1.8005645838102282,0.8239871824216607
1539131353867323,3.4485389486533222,3.6316472114137923,1.3733119707026162
1539131353883328,1.1291676203554744,3.6316472114137923,0.8850232700083325
1539131353899353,0.45777065690094787,2.5940337224383256,0.09155413138023505
1539131353915358,-0.03051804379333589,3.0823224231326094,0.33569848172737693
1539131353931364,-0.7019150072480898,3.5095750362402214,0.7019150072480898
1539131353947369,-0.5188067444876197,3.0823224231326094,0.5188067444876197
1539131353963375,0.15259021896690683,2.7771419851987957,0.15259021896690683
1539131353979380,0.8239871824216607,2.8381780727854675,0.09155413138023505
1539131353995386,1.2512397955290453,3.2043945983061803,0.15259021896690683
1539131354011391,1.4343480582895154,3.3875028610666504,-0.03051804379333589
1539131354027397,1.5564202334630863,3.3264667734797513,-0.15259021896690683
1539131354043402,1.983672846570471,3.0212863355459376,0.2746623941404778
1539131354059408,2.166781109330941,3.0212863355459376,0.8239871824216607
1539131354075413,1.5564202334630863,3.1433585107195086,0.7629510948347615
1539131354091419,1.0681315327688026,3.0212863355459376,0.5798428320745188
1539131354107424,0.7019150072480898,3.2654306858930795,0.7019150072480898
1539131354123430,0.5188067444876197,3.1433585107195086,0.7019150072480898
1539131354139435,0.5798428320745188,2.8992141603723667,0.15259021896690683
1539131354155441,0.9460593575952316,2.9602502479590385,-0.03051804379333589
1539131354171446,1.6174563210497581,3.5095750362402214,0.5798428320745188
1539131354187452,1.8005645838102282,3.6316472114137923,0.6408789196611906
1539131354203457,1.6174563210497581,3.4485389486533222,-0.03051804379333589
1539131354219452,1.3122758831159445,3.692683299000464,-0.45777065690094787
1539131354235457,1.3122758831159445,3.814755474174035,-0.15259021896690683
1539131354251463,1.2512397955290453,3.7537193865873633,0.213626306553806
1539131354267468,0.8850232700083325,3.6316472114137923,0.45777065690094787
1539131354283474,0.5798428320745188,3.4485389486533222,0.2746623941404778
1539131354299479,0.3967345693140487,2.9602502479590385,0.03051804379333589
1539131354315485,24.628061341267994,36.89631494621176,-19.745174334325156
1539131354331490,181.00251773861282,-163.66826886396598,87.25108720531034
1539131354347496,4.42511635004189,16.1440451667047,38.48325322346818
1539131354363501,-126.68039978637375,113.37453269245452,-45.563439383535524
1539131354379507,-13.76363775082018,-16.08300907911803,-10.528725108720437
1539131354395512,123.75066758220783,-158.0529488059817,24.322880903333953
1539131354411518,155.79461356527054,-109.6513313496605,22.369726100556818
1539131354427523,108.49164568551168,18.341344319828977,21.45418478675515
1539131354443529,52.76569771877621,75.34905012588706,20.11139085984587
1539131354459534,30.792706187533213,39.032578011749365,22.79697871366443
1539131354475540,36.22491798275723,-11.932555123216616,17.48683909361398
1539131354491545,40.314335851071746,-12.115663385976859,6.012054627298312
1539131354507551,26.6422522316318,6.927595941100208,-0.8239871824216607
1539131354523556,-2.166781109330941,13.58052948805971,-0.8239871824216607
1539131354539581,-36.4080262455177,20.843823910887295,-2.227817196917613
1539131354555586,-65.40016784924092,31.76928358892178,-9.85732814526591
1539131354571592,-81.025406271458,30.792706187533213,-18.95170519569683
1539131354587597,-80.9643701838711,15.289539940489703,-23.773556115052997
1539131354603603,-72.23620965896089,2.288853284504512,-23.590447852292527
1539131354619609,-61.67696650644689,3.2043945983061803,-19.684138246738257
1539131354635614,-52.88776989394978,10.345616845960194,-14.190890363927565
1539131354651620,-44.95307850766767,15.899900816357558,-9.491111619745197
1539131354667625,-35.85870145723675,18.89066910811016,-8.270389868009488
1539131354683631,-24.444953078507524,17.914091706721592,-10.223544670786623
1539131354699636,-12.115663385976859,14.80125123979542,-12.481879911497572
1539131354715642,-0.8850232700083325,11.261158159761862,-12.787060349431613
1539131354731647,6.927595941100208,10.772869459067579,-11.20012207217519
1539131354747653,10.89494163424115,11.139085984588291,-7.049668116273779
1539131354763658,11.139085984588291,10.284580758373295,-2.4719615472647547
1539131354779664,8.575570305943302,8.33142595559616,0.8850232700083325
1539131354795669,5.584802014190927,6.683451590753066,2.227817196917613
1539131354811675,3.1433585107195086,5.0354772259097444,2.288853284504512
1539131354827680,1.3122758831159445,2.4719615472647547,2.532997634851654
1539131354843686,-0.6408789196611906,0.45777065690094787,2.7161058976118966
1539131354859680,-3.0823224231326094,-0.09155413138023505,2.3498893720911838
1539131354875685,-4.974441138323073,0.3967345693140487,2.227817196917613
1539131354891691,-5.706874189364498,0.6408789196611906,2.105745021744042
1539131354907696,-5.279621576256886,0.3967345693140487,1.739528496223329
1539131354923702,-4.364080262455218,0.09155413138023505,1.1291676203554744
1539131354939707,-3.1433585107195086,0.9460593575952316,0.7019150072480898
1539131354955713,-1.6784924086366573,2.227817196917613,0.45777065690094787
1539131354971718,-0.09155413138023505,3.1433585107195086,0.3967345693140487
1539131354987724,1.1291676203554744,3.692683299000464,0.09155413138023505
1539131355003729,1.739528496223329,4.364080262455218,-0.2746623941404778
1539131355019735,1.739528496223329,4.669260700389032,-0.8850232700083325
1539131355035740,1.2512397955290453,4.303044174868319,-1.983672846570471
1539131355051746,0.7629510948347615,3.997863736934505,-2.9602502479590385
1539131355067752,0.7019150072480898,3.692683299000464,-2.9602502479590385
1539131355083757,0.6408789196611906,3.4485389486533222,-2.4719615472647547
1539131355099763,0.6408789196611906,3.6316472114137923,-1.4343480582895154
1539131355115768,0.5188067444876197,3.875791561760934,-0.2746623941404778
1539131355131774,0.2746623941404778,3.936827649347606,0.45777065690094787
1539131355147779,-0.15259021896690683,3.570611123826893,0.33569848172737693
1539131355163785,-0.33569848172737693,3.0212863355459376,-0.09155413138023505
1539131355179779,-0.5188067444876197,2.4719615472647547,-0.213626306553806
1539131355195784,-0.213626306553806,2.166781109330941,0.03051804379333589
1539131355211790,0.15259021896690683,2.288853284504512,0.45777065690094787
1539131355227795,0.2746623941404778,2.3498893720911838,0.8239871824216607
1539131355243801,1.2512397955290453,2.410925459678083,0.2746623941404778
1539131355259806,5.584802014190927,-1.9226367589837992,1.2512397955290453
1539131355275812,-0.09155413138023505,1.8616006713969,2.410925459678083
1539131355291817,-5.462729839017356,8.026245517662346,1.6174563210497581
1539131355307823,-0.09155413138023505,3.2654306858930795,-0.7629510948347615
1539131355323828,4.852368963149502,-3.4485389486533222,-1.5564202334630863
1539131355339834,1.8616006713969,-0.03051804379333589,-1.3122758831159445
1539131355355839,-1.3122758831159445,4.242008087281647,-1.0070954451819034
1539131355371845,-0.5798428320745188,2.8381780727854675,-0.5188067444876197
1539131355387850,0.213626306553806,2.532997634851654,-0.7629510948347615
1539131355403856,0.5798428320745188,3.3264667734797513,-0.7019150072480898
1539131355419861,1.0681315327688026,3.0212863355459376,-0.7019150072480898
1539131355435867,0.7019150072480898,3.1433585107195086,-1.0070954451819034
1539131355451872,0.3967345693140487,4.058899824521177,-1.0681315327688026
1539131355467878,0.7019150072480898,4.242008087281647,-0.8239871824216607
1539131355483883,0.5798428320745188,4.364080262455218,-1.0681315327688026
1539131355499878,0.5798428320745188,3.7537193865873633,-1.6174563210497581
1539131355515883,0.5798428320745188,3.692683299000464,-1.4953841458761872
1539131355531889,0.3967345693140487,4.058899824521177,-0.5188067444876197
1539131355547894,0.15259021896690683,3.7537193865873633,-0.33569848172737693
1539131355563900,-0.213626306553806,2.8381780727854675,-0.8239871824216607
1539131355579905,-0.7019150072480898,2.532997634851654,-0.9460593575952316
1539131355595911,-1.0070954451819034,2.04470893415737,-0.45777065690094787
1539131355611916,-1.0681315327688026,1.6784924086366573,0.15259021896690683
1539131355627922,-0.7629510948347615,1.6174563210497581,0.3967345693140487
1539131355643927,-0.213626306553806,0.9460593575952316,0.7629510948347615
1539131355659933,0.3967345693140487,0.6408789196611906,0.8239871824216607
1539131355675938,0.9460593575952316,0.45777065690094787,0.7629510948347615
1539131355691944,1.1291676203554744,0.33569848172737693,0.7629510948347615
1539131355707949,1.3122758831159445,0.5188067444876197,0.7019150072480898
1539131355723955,1.4953841458761872,0.5188067444876197,0.5188067444876197
1539131355739960,1.0070954451819034,1.3733119707026162,0.09155413138023505
1539131355755966,0.213626306553806,2.166781109330941,-0.33569848172737693
1539131355771971,-0.5188067444876197,2.7161058976118966,-0.9460593575952316
1539131355787977,-1.2512397955290453,2.8992141603723667,-2.04470893415737
1539131355803982,-1.739528496223329,3.3875028610666504,-2.8992141603723667
1539131355819976,-1.8616006713969,3.7537193865873633,-3.3875028610666504
1539131355835982,-1.6174563210497581,3.7537193865873633,-3.875791561760934
1539131355851987,-1.4953841458761872,3.936827649347606,-4.119935912108076
1539131355867993,-1.3733119707026162,4.547188525215461,-3.692683299000464
1539131355883998,-1.1902037079423735,4.852368963149502,-2.532997634851654
1539131355900004,-0.7019150072480898,4.547188525215461,-1.6784924086366573
1539131355916010,-0.09155413138023505,3.3264667734797513,-1.1902037079423735
1539131355932015,0.09155413138023505,1.983672846570471,-1.2512397955290453
1539131355948021,-0.03051804379333589,1.2512397955290453,-0.7629510948347615
1539131355964026,0.5188067444876197,0.3967345693140487,0.3967345693140487
1539131355980032,0.8850232700083325,-0.03051804379333589,1.8005645838102282
1539131355996037,1.1291676203554744,-0.45777065690094787,2.8381780727854675
1539131356012043,1.2512397955290453,-0.7019150072480898,3.1433585107195086
1539131356028048,1.1902037079423735,-0.8239871824216607,2.8381780727854675
1539131356044054,0.9460593575952316,-0.6408789196611906,2.288853284504512
1539131356060059,0.2746623941404778,0.213626306553806,1.4343480582895154
1539131356076065,-0.2746623941404778,0.5188067444876197,0.45777065690094787
1539131356092070,-0.8850232700083325,1.6784924086366573,-0.7019150072480898
1539131356108076,-1.3733119707026162,2.655069810025225,-1.6174563210497581
1539131356124081,-1.4343480582895154,2.8381780727854675,-2.410925459678083
1539131356140075,-1.1291676203554744,3.3875028610666504,-3.1433585107195086
1539131356156081,-0.7629510948347615,3.936827649347606,-3.0823224231326094
1539131356172086,-0.5188067444876197,4.364080262455218,-2.4719615472647547
1539131356188092,-0.33569848172737693,4.547188525215461,-1.9226367589837992
1539131356204097,-0.3967345693140487,4.547188525215461,-1.1902037079423735
1539131356220103,-0.33569848172737693,4.119935912108076,-0.7629510948347615
1539131356236108,-0.33569848172737693,3.3875028610666504,-0.6408789196611906
1539131356252114,-0.213626306553806,2.5940337224383256,-0.33569848172737693
1539131356268119,-0.03051804379333589,1.983672846570471,0.09155413138023505
1539131356284125,0.09155413138023505,1.4343480582895154,0.7629510948347615
1539131356300130,0.2746623941404778,0.5798428320745188,1.3733119707026162
1539131356316136,0.213626306553806,0.5188067444876197,1.5564202334630863
1539131356332142,0.3967345693140487,0.3967345693140487,1.739528496223329
1539131356348147,0.2746623941404778,0.5188067444876197,1.6784924086366573
1539131356364153,0.213626306553806,0.8850232700083325,1.3122758831159445
1539131356380158,0.213626306553806,1.0681315327688026,0.6408789196611906
1539131356396164,0.5188067444876197,1.5564202334630863,-0.03051804379333589
1539131356412169,0.45777065690094787,2.166781109330941,-0.6408789196611906
1539131356428175,0.213626306553806,2.532997634851654,-1.1291676203554744
1539131356444180,-0.09155413138023505,2.8992141603723667,-1.0681315327688026
1539131356460205,-0.213626306553806,2.5940337224383256,-0.7629510948347615
1539131356476210,-0.2746623941404778,2.8381780727854675,-0.33569848172737693
1539131356492216,-0.5188067444876197,3.2043945983061803,-0.09155413138023505
1539131356508221,-0.9460593575952316,3.1433585107195086,-0.213626306553806
1539131356524227,-1.5564202334630863,2.655069810025225,-0.8850232700083325
1539131356540232,-1.6174563210497581,2.4719615472647547,-1.1291676203554744
1539131356556238,-1.1291676203554744,2.3498893720911838,-0.3967345693140487
1539131356572243,-0.33569848172737693,2.166781109330941,0.7019150072480898
1539131356588249,0.5188067444876197,1.8616006713969,1.3122758831159445
1539131356604254,1.0070954451819034,1.3733119707026162,1.2512397955290453
1539131356620260,1.0070954451819034,1.9226367589837992,1.0681315327688026
1539131356636265,1.0070954451819034,1.9226367589837992,0.7019150072480898
1539131356652271,1.1291676203554744,1.6174563210497581,0.15259021896690683
1539131356668276,1.0681315327688026,2.04470893415737,-0.33569848172737693
1539131356684282,1.2512397955290453,2.166781109330941,-0.33569848172737693
1539131356700287,1.1291676203554744,2.8381780727854675,-0.09155413138023505
1539131356716293,0.8239871824216607,3.5095750362402214,0.15259021896690683
1539131356732298,0.2746623941404778,3.936827649347606,-0.09155413138023505
1539131356748304,0.03051804379333589,3.997863736934505,-0.5798428320745188
1539131356764310,-0.15259021896690683,3.875791561760934,-1.0070954451819034
1539131356780304,-0.3967345693140487,3.936827649347606,-0.9460593575952316
1539131356796309,-0.5188067444876197,4.119935912108076,-0.5798428320745188
1539131356812315,-0.03051804379333589,4.303044174868319,-0.03051804379333589
1539131356828320,0.3967345693140487,4.242008087281647,0.33569848172737693
1539131356844326,0.45777065690094787,3.6316472114137923,0.15259021896690683
1539131356860331,0.3967345693140487,3.4485389486533222,-0.03051804379333589
1539131356876337,0.7629510948347615,3.3264667734797513,0.2746623941404778
1539131356892342,1.6174563210497581,2.5940337224383256,1.0070954451819034
1539131356908348,2.3498893720911838,2.227817196917613,1.6174563210497581
1539131356924353,2.655069810025225,2.4719615472647547,2.3498893720911838
1539131356940359,2.8992141603723667,2.3498893720911838,3.1433585107195086
1539131356956364,2.9602502479590385,2.166781109330941,3.2654306858930795
1539131356972370,2.7771419851987957,1.9226367589837992,2.7771419851987957
1539131356988375,2.532997634851654,1.6784924086366573,2.410925459678083
1539131357004381,2.288853284504512,1.4343480582895154,1.983672846570471
1539131357020386,1.8616006713969,0.8850232700083325,1.3733119707026162
1539131357036392,1.1902037079423735,1.2512397955290453,1.1291676203554744
1539131357052397,0.7629510948347615,1.739528496223329,1.2512397955290453
1539131357068403,0.7629510948347615,2.105745021744042,1.5564202334630863
1539131357084408,0.9460593575952316,2.532997634851654,1.5564202334630863
1539131357100433,0.7019150072480898,3.0823224231326094,1.4343480582895154
1539131357116438,0.2746623941404778,3.875791561760934,0.8239871824216607
1539131357132444,0.03051804379333589,3.814755474174035,-0.09155413138023505
1539131357148450,-0.03051804379333589,3.3875028610666504,-0.8850232700083325
1539131357164455,-0.09155413138023505,3.7537193865873633,-0.7629510948347615
1539131357180461,-0.15259021896690683,3.936827649347606,-0.7629510948347615
1539131357196466,0.213626306553806,3.570611123826893,-0.8850232700083325
1539131357212472,0.8239871824216607,3.570611123826893,-0.3967345693140487
1539131357228477,1.1902037079423735,3.5095750362402214,0.45777065690094787
1539131357244483,1.2512397955290453,3.4485389486533222,1.0070954451819034
1539131357260488,0.8850232700083325,3.2654306858930795,1.1291676203554744
1539131357276494,0.6408789196611906,2.3498893720911838,0.5188067444876197
1539131357292499,0.3967345693140487,1.6784924086366573,0.33569848172737693
1539131357308505,0.213626306553806,1.3733119707026162,0.7019150072480898
1539131357324510,0.03051804379333589,1.1902037079423735,0.8850232700083325
1539131357340516,-0.3967345693140487,1.0681315327688026,0.213626306553806
1539131357356521,-1.0681315327688026,1.6174563210497581,-0.15259021896690683
1539131357372527,-0.6408789196611906,1.983672846570471,0.2746623941404778
1539131357388532,0.15259021896690683,2.227817196917613,0.8850232700083325
1539131357404538,0.2746623941404778,2.8992141603723667,1.1291676203554744
1539131357420532,-0.15259021896690683,3.692683299000464,0.7629510948347615
1539131357436537,-0.33569848172737693,3.997863736934505,0.213626306553806
1539131357452543,0.15259021896690683,3.6316472114137923,0.2746623941404778
1539131357468548,0.45777065690094787,3.936827649347606,0.8239871824216607
1539131357484554,0.15259021896690683,3.875791561760934,0.8850232700083325
1539131357500559,-0.213626306553806,3.814755474174035,0.5188067444876197
1539131357516565,-0.213626306553806,4.486152437628789,0.45777065690094787
1539131357532570,0.33569848172737693,4.119935912108076,1.2512397955290453
1539131357548576,1.0070954451819034,4.058899824521177,1.8616006713969
1539131357564581,1.3122758831159445,4.180971999694748,2.105745021744042
1539131357580587,1.3733119707026162,3.814755474174035,2.105745021744042
1539131357596593,1.1291676203554744,4.242008087281647,1.983672846570471
1539131357612598,0.8850232700083325,3.875791561760934,1.8616006713969
1539131357628604,0.15259021896690683,3.814755474174035,1.4343480582895154
1539131357644609,-0.3967345693140487,3.2043945983061803,0.8850232700083325
1539131357660615,-0.7019150072480898,2.288853284504512,0.33569848172737693
1539131357676620,-1.0681315327688026,2.227817196917613,-0.09155413138023505
1539131357692626,-1.3733119707026162,2.5940337224383256,-0.213626306553806
1539131357708631,-1.3733119707026162,3.3875028610666504,-0.03051804379333589
1539131357724637,-0.6408789196611906,3.3875028610666504,0.33569848172737693
1539131357740631,0.03051804379333589,3.4485389486533222,0.45777065690094787
1539131357756636,0.8239871824216607,3.1433585107195086,0.213626306553806
1539131357772642,1.5564202334630863,2.8381780727854675,0.09155413138023505
1539131357788647,2.105745021744042,2.8381780727854675,0.2746623941404778
