Timestamp (microseconds),Accel X (g),Accel Y (g),Accel Z (g)
1539131777395935,0.09918364232852639,-0.059754329747462975,0.9341573205157552
1539131777411931,0.10003814755474139,-0.06427100022888554,0.9273212787060352
1539131777427927,0.0966201266498814,-0.06451514457923269,0.9357442587930116
1539131777443923,0.09088273441672357,-0.058411535820553695,0.9411154345006487
1539131777459919,0.0831921873807886,-0.054505226214999425,0.9560082398718244
1539131777475915,0.07904173342488718,-0.06512550545510054,0.9687037460898758
1539131777491911,0.08221560997940003,-0.07220569161516766,0.9735866330968186
1539131777507907,0.08587777523460716,-0.06060883497367797,0.9860379949645228
1539131777523903,0.09588769359883997,-0.0319218738078888,0.9884794384679942
1539131777539898,0.10467689021133708,-0.015075913633936011,0.973464560921645
1539131777555894,0.12042420080872773,-0.020935378042267416,0.9556420233463037
1539131777571890,0.13470664530403642,-0.03717097734035235,0.9539330128938737
1539131777587886,0.14227512016479782,-0.04388494697489875,0.9529564354924851
1539131777603882,0.1491111619745178,-0.03729304951552592,0.934767681391623
1539131777619878,0.14349584191653353,-0.0365606164644845,0.9235370412756545
1539131777635874,0.13580529488059856,-0.04205386434729519,0.9315938048371102
1539131777651870,0.11822690165560346,-0.06915388723582838,0.9293965056839859
1539131777667866,0.10907148851758564,-0.10663004501411466,0.9232928969253074
1539131777683862,0.10113679713130352,-0.11981383993286032,0.9297627222095066
1539131777699858,0.08673228046082215,-0.08844129091325259,0.9387960631723509
1539131777715850,0.07489127946898577,-0.0470588235294116,0.9355001144426645
1539131777731846,0.060975051499198685,-0.028137636377508102,0.9523460746166172
1539131777747842,0.04571602960250232,-0.023010605020218122,0.9702906843671322
1539131777763838,0.04473945220111375,-0.013855191882200302,0.9859159227893493
1539131777779834,0.051941710536354435,-0.004943923094529623,0.9909208819714657
1539131777795830,0.06744487678339794,-0.003479056992446772,0.9953154802777142
1539131777811826,0.09039444571602928,-0.005920500495918191,0.9867704280155642
1539131777827822,0.12042420080872773,-0.012024109254596738,0.975173571374075
1539131777843818,0.1444724193179221,-0.021057450217440987,0.9541771572442208
1539131777859814,0.1532616159304192,-0.0319218738078888,0.945021744106203
1539131777875810,0.15069810025177421,-0.04229800869764233,0.9479514763103687
1539131777891806,0.1453269245441371,-0.051941710536354435,0.9265888456549938
1539131777907802,0.1343404287785157,-0.06207370107576082,0.9129167620355538
1539131777923798,0.12213321126115773,-0.06976424811169624,0.9176775768673231
1539131777939794,0.10724040588998207,-0.07220569161516766,0.9225604638742659
1539131777955790,0.09918364232852639,-0.06683451590753053,0.9204852368963152
1539131777971786,0.08001831082627575,-0.08392462043183047,0.9314717326619366
1539131777987782,0.054627298390172996,-0.10809491111619751,0.9626001373311972
1539131778003778,0.037659266041046635,-0.12335393301289388,0.9861600671396964
1539131778019774,0.03961242084382377,-0.11309987029831392,0.9972686350804914
1539131778035736,0.05633630884260299,-0.08197146562905333,0.9911650263218128
1539131778051732,0.06927595941100151,-0.03607232776379021,0.9787136644541086
1539131778067728,0.09100480659189714,-0.001037613488975353,0.9815213244831007
1539131778083724,0.11078049897001563,-0.00836194399938961,0.9748073548485543
1539131778099720,0.13165484092469715,-0.030823224231326662,0.9602807660028994
1539131778115716,0.14984359502555922,-0.04852368963149445,0.947585259784848
1539131778131712,0.15484855420767563,-0.04461738002594018,0.9480735484855423
1539131778147708,0.15106431677729493,-0.03814755474174092,0.946730754558633
1539131778163704,0.13665980010681356,-0.03595025558861664,0.9379415579461359
1539131778179700,0.11371023117418133,-0.04449530785076661,0.9358663309681852
1539131778195696,0.09613183794918712,-0.052063782711528006,0.9456321049820708
1539131778211691,0.08709849698634287,-0.048157473105973736,0.96748302433814
1539131778227687,0.07782101167315147,-0.04119935912108019,0.9827420462348364
1539131778243683,0.0756237125200272,-0.0357061112382695,0.9838406958113985
1539131778259679,0.08172732127870574,-0.0319218738078888,0.9824979018844893
1539131778275675,0.08770885786221072,-0.017029068436713146,0.9776150148775464
1539131778291671,0.1004043640802621,9.15541313801782E-4,0.9687037460898758
1539131778307667,0.10833905546654421,-0.0026245517662317752,0.9572289616235601
1539131778323663,0.12042420080872773,-0.02923628595407024,0.9500267032883194
1539131778339659,0.12945754177157287,-0.06329442282749698,0.9362325474937059
1539131778355377,0.12884718089570502,-0.08075074387731762,0.9334248874647137
1539131778371371,0.12909132524605216,-0.08136110475318548,0.9306172274357216
1539131778387366,0.12457465476462914,-0.07769893949797835,0.919996948195621
1539131778403360,0.11493095292591704,-0.07672236209658978,0.9234149691004809
1539131778419355,0.10345616845960137,-0.06768902113374553,0.942458228427558
1539131778435350,0.08868543526359929,-0.056946669718470844,0.9508812085145344
1539131778451344,0.08368047608148288,-0.049134050507362304,0.9550316624704358
1539131778467339,0.08111696040283789,-0.049134050507362304,0.9678492408636608
1539131778483333,0.08392462043183002,-0.05242999923704872,0.9641870756084536
1539131778499328,0.08905165178912,-0.048157473105973736,0.9643091477836272
1539131778515322,0.09076066224155,-0.039124132143129486,0.9698023956664379
1539131778531317,0.09796292057679068,-0.030945296406500233,0.9656519417105365
1539131778547311,0.10870527199206492,-0.035217822537575216,0.9604028381780729
1539131778563306,0.1041886015106428,-0.0394903486686502,0.9663843747615779
1539131778579301,0.10455481803616351,-0.038757915617608774,0.9627222095063708
1539131778595295,0.09967193102922067,-0.03436331731136022,0.9542992294193944
1539131778611290,0.09246967269397999,-0.028137636377508102,0.9566186007476922
1539131778627284,0.0861219195849543,-0.02667277027542525,0.955275806820783
1539131778643279,0.08661020828564858,-0.027038986800945963,0.9541771572442208
1539131778659273,0.08599984740978073,-0.027649347676813818,0.9566186007476922
1539131778674987,0.07611200122072148,-0.040100709544518054,0.9610131990539408
1539131778690981,0.07598992904554791,-0.054383154039825854,0.9561303120469979
1539131778706975,0.07782101167315147,-0.053040360112916574,0.9528343633173115
1539131778722968,0.07867551689936647,-0.05267414358739586,0.949294270237278
1539131778738962,0.09796292057679068,-0.041443503471427334,0.9572289616235601
1539131778754955,0.09246967269397999,-0.036316472114137355,0.9652857251850158
1539131778770949,0.10077058060578281,-0.03216601815823594,0.9569848172732129
1539131778786943,0.09710841535057568,-0.030945296406500233,0.951857785915923
1539131778802936,0.09564354924849283,-0.02386511024643312,0.9524681467917908
1539131778818930,0.08917372396429357,-0.017273212787060288,0.9428244449530787
1539131778834923,0.08880750743877286,-0.011535820553902454,0.9533226520180058
1539131778850917,0.0928358892195007,-0.014343480582894585,0.9607690547035936
1539131778866911,0.0957656214236664,-0.030945296406500233,0.9607690547035936
1539131778882904,0.1024795910582128,-0.050476844434271584,0.9564965285725187
1539131778898898,0.10211337453269209,-0.062439917601281536,0.9628442816815443
1539131778914891,0.10748455024032921,-0.06500343327992697,0.9590600442511636
1539131778930885,0.1251850156404979,-0.06146334019989297,0.9486839093614101
1539131778946879,0.132265201800565,-0.046692607003890885,0.9495384145876251
1539131778962872,0.13409628442816857,-0.023376821545738835,0.9580834668497751
1539131778978866,0.123476005188067,-0.004943923094529623,0.9615014877546351
1539131778994629,0.11529716945143775,0.00457770656900891,0.9660181582360572
1539131779010621,0.10614175631341993,0.004455634393835339,0.9740749217975129
1539131779026614,0.10028229190508853,-0.003356984817273201,0.9776150148775464
1539131779042606,0.08978408484016143,-0.02032501716639956,0.9822537575341421
1539131779058599,0.05938811322194226,-0.02288853284504455,0.9766384374761579
1539131779074592,0.0663462272068358,-0.0038452735179674846,0.9568627450980394
1539131779090584,0.06866559853513365,0.004455634393835339,0.9459983215075916
1539131779106577,0.08636606393530144,-0.01104753185320817,0.9505149919890137
1539131779122570,0.1129777981231399,-0.041565575646600905,0.9298847943846802
1539131779138562,0.12970168612192,-0.05621423666742942,0.9143816281376367
1539131779154555,0.1561913481345849,-0.056946669718470844,0.9138933394369424
1539131779170548,0.1616845960173956,-0.04583810177767589,0.928786144808118
1539131779186540,0.1768215457389184,-0.041443503471427334,0.9259784847791259
1539131779202533,0.18402380407415908,-0.03961242084382377,0.919996948195621
1539131779218526,0.17621118486305054,-0.04132143129625376,0.9269550621805145
1539131779234518,0.16913099870298343,-0.04437323567559304,0.9462424658579387
1539131779250511,0.15057602807660064,-0.045349813076981604,0.9485618371862365
1539131779266503,0.12945754177157287,-0.042908369573510186,0.9453879606317237
1539131779282496,0.11261158159761919,-0.0357061112382695,0.9569848172732129
1539131779298489,0.09600976577401354,-0.025696192874036683,0.9646753643091479
1539131779314270,0.09234760051880642,-0.014099336232547444,0.9597924773022051
1539131779330261,0.08807507438773143,-0.029602502479590953,0.953566796368353
1539131779346253,0.0957656214236664,-0.05389486533913157,0.946730754558633
1539131779362245,0.11017013809414777,-0.06353856717784412,0.945021744106203
1539131779378236,0.11908140688181845,-0.05865568017090084,0.9462424658579387
1539131779394228,0.12469672693980272,-0.0462043183031966,0.9536888685435265
1539131779410220,0.13287556267643286,-0.03558403906309593,0.9523460746166172
1539131779426211,0.13141069657435,-0.03326466773479808,0.9444113832303351
1539131779442203,0.1318989852750443,-0.04217593652246876,0.9512474250400551
1539131779458195,0.13275349050125929,-0.051819638361180864,0.9652857251850158
1539131779474187,0.12921339742122573,-0.04852368963149445,0.9667505912870986
1539131779490178,0.13580529488059856,-0.027405203326466676,0.971755550469215
1539131779506170,0.12494087129014986,-0.02130159456778813,0.9741969939726864
1539131779522162,0.130556191348135,-0.023620965896085977,0.9739528496223393
1539131779538153,0.1444724193179221,-0.014343480582894585,0.9571068894483865
1539131779554145,0.15082017242694779,-0.00836194399938961,0.946730754558633
1539131779570137,0.16559090562294987,-0.018371862363622427,0.9479514763103687
1539131779586128,0.1738918135347527,-0.043030441748683756,0.9456321049820708
1539131779602120,0.1620508125429163,-0.05487144274052014,0.9541771572442208
1539131779618112,0.16192874036774274,-0.04083314259555948,0.949294270237278
1539131779633850,0.14581521324483138,-0.02398718242160669,0.9318379491874573
1539131779649840,0.13080033569848215,-0.016540779736018862,0.9208514534218359
1539131779665831,0.10955977721827992,-0.03851377126726163,0.905470359349966
1539131779681822,0.08673228046082215,-0.04730296787975874,0.9335469596398873
1539131779697813,0.07257190814068792,-0.05816739147020655,0.9591821164263372
1539131779713803,0.07037460898756365,-0.07611200122072193,0.9748073548485543
1539131779729794,0.07537956816968006,-0.07147325856412623,0.9798123140306707
1539131779745785,0.09918364232852639,-0.05023270008392444,0.9822537575341421
1539131779761776,0.11688410772869418,-0.036194399938963784,0.987136644541085
1539131779777766,0.14300755321583924,-0.03302052338445094,0.9827420462348364
1539131779793757,0.16534676127260273,-0.036194399938963784,0.9679713130388343
1539131779809748,0.17962920576791053,-0.036194399938963784,0.9503929198138401
1539131779825739,0.18585488670176264,-0.034973678187228074,0.9479514763103687
1539131779841729,0.1801174944686048,-0.029480430304417382,0.9409933623254751
1539131779857720,0.1541161211566342,-0.032288090333409514,0.9420920119020373
1539131779873711,0.12384222171358772,-0.028137636377508102,0.9469748989089801
1539131779889701,0.09967193102922067,-0.026306553749904538,0.9494163424124515
1539131779905692,0.09063859006637642,-0.02264438849469741,0.9528343633173115
1539131779921683,0.08270389868009431,-0.017639429312581,0.9536888685435265
1539131779937674,0.09417868314640998,-0.009948882276646032,0.9479514763103687
1539131779953491,0.10907148851758564,-0.003479056992446772,0.9485618371862365
1539131779969481,0.13409628442816857,0.010559243152513886,0.9361104753185323
1539131779985471,0.16278324559395774,0.028747997253375956,0.9132829785610745
1539131780001462,0.166689555199512,0.017639429312581,0.9202410925459681
1539131780017452,0.15643549248493205,-0.008972304875257464,0.946730754558633
1539131780033442,0.1482566567483028,-0.023743038071259548,0.9557640955214772
1539131780049432,0.1474021515220878,-0.04364080262455161,0.9517357137407494
1539131780065423,0.14691386282139351,-0.06378271152819126,0.9477073319600215
1539131780081413,0.14056610971236783,-0.06878767071030767,0.9466086823834594
1539131780097403,0.12274357213702558,-0.06341649500267055,0.9626001373311972
1539131780113393,0.10345616845960137,-0.07306019684138265,0.9712672617685207
1539131780129384,0.09845120927748496,-0.09027237354085615,0.9685816739147022
1539131780145374,0.09808499275196425,-0.10174715800717182,0.9619897764553293
1539131780161364,0.1033340962844278,-0.09686427100022899,0.9680933852140079
1539131780177354,0.10968184939345349,-0.09515526054779899,0.9688258182650493
1539131780193345,0.12152285038528987,-0.09869535362783255,0.9586938277256429
1539131780209335,0.12774853131914288,-0.10736247806515609,0.949294270237278
1539131780225325,0.13665980010681356,-0.10406652933546967,0.942458228427558
1539131780241315,0.14032196536202068,-0.07464713511863907,0.948439765011063
1539131780257306,0.1351949340047307,-0.03973449301899734,0.9470969710841537
1539131780273101,0.13421835660334214,-0.02789349202716096,0.9430685893034259
1539131780289091,0.13177691309987072,-0.03717097734035235,0.9376974135957887
1539131780305080,0.1276264591439693,-0.055970092317082276,0.9466086823834594
1539131780321069,0.12237735561150487,-0.07110704203860552,0.9532005798428322
1539131780337059,0.12457465476462914,-0.06878767071030767,0.9488059815365837
1539131780353048,0.12005798428320702,-0.060975051499198685,0.9481956206607158
1539131780369037,0.12152285038528987,-0.058289463645380124,0.9557640955214772
1539131780385027,0.11651789120317346,-0.06561379415579482,0.9695582513160907
1539131780401016,0.12152285038528987,-0.07110704203860552,0.9693141069657436
1539131780417005,0.12396429388876129,-0.07098496986343195,0.9656519417105365
1539131780432994,0.12884718089570502,-0.06878767071030767,0.9713893339436943
1539131780448984,0.1369039444571607,-0.08404669260700404,0.97773708705272
1539131780464973,0.12774853131914288,-0.09198138399328615,0.9464866102082858
1539131780480962,0.13043411917296144,-0.09015030136568258,0.9453879606317237
1539131780496952,0.12457465476462914,-0.07794308384832549,0.9428244449530787
1539131780512941,0.1193255512321656,-0.07000839246204338,0.9561303120469979
1539131780528930,0.11810482948042988,-0.07061875333791123,0.9615014877546351
1539131780544920,0.11981383993285988,-0.08331425955596261,0.9606469825284201
1539131780560909,0.11663996337834703,-0.09576562142366685,0.9707789730678265
1539131780576898,0.11969176775768631,-0.09515526054779899,0.9711451895933472
1539131780592743,0.12030212863355416,-0.07696650644693692,0.9722438391699093
1539131780608731,0.12176699473563701,-0.06439307240405912,0.9865262836652171
1539131780624720,0.11993591210803345,-0.07208361943999408,0.9788357366292821
1539131780640709,0.11358815899900776,-0.08136110475318548,0.9387960631723509
1539131780656698,0.11419851987487561,-0.07550164034485407,0.9462424658579387
1539131780672687,0.11248950942244562,-0.06390478370336483,0.9397726405737394
1539131780688676,0.11749446860456203,-0.05889982452124798,0.9138933394369424
1539131780704664,0.11993591210803345,-0.0715953307392998,0.9053482871747924
1539131780720653,0.12457465476462914,-0.08404669260700404,0.9057145037003131
1539131780736642,0.12481879911497629,-0.08233768215457404,0.9004654001678496
1539131780752631,0.1255512321660186,-0.0657358663309684,0.9009536888685439
1539131780768620,0.12042420080872773,-0.06256198977645555,0.9236591134508281
1539131780784608,0.11407644769970204,-0.07415884641794479,0.9486839093614101
1539131780800597,0.11444266422522276,-0.0858777752346076,0.9491721980621044
1539131780816586,0.11285572594796633,-0.091737239642939,0.9667505912870986
1539131780832575,0.11248950942244562,-0.08917372396429402,0.9784695201037614
1539131780848564,0.10992599374380063,-0.08197146562905333,0.9793240253299764
1539131780864553,0.10748455024032921,-0.07257190814068837,0.9865262836652171
1539131780880541,0.10638590066376707,-0.06427100022888554,0.9812771801327536
1539131780896530,0.11114671549553634,-0.057190814068817986,0.96748302433814
1539131780912353,0.11834897383077703,-0.057190814068817986,0.9626001373311972
1539131780928341,0.12542915999084503,-0.05951018539711583,0.951003280689708
1539131780944329,0.12542915999084503,-0.058533607995727266,0.9457541771572444
1539131780960317,0.12884718089570502,-0.05889982452124798,0.9363546196688795
1539131780976305,0.13336385137712714,-0.06366063935301769,0.9268329900053409
1539131780992293,0.135683222705425,-0.06732280460822482,0.9278095674067295
1539131781008280,0.13556115053025142,-0.06622415503166268,0.9376974135957887
1539131781024268,0.1289692530708786,-0.06268406195162912,0.9480735484855423
1539131781040256,0.1281147478446636,-0.06341649500267055,0.9619897764553293
1539131781056244,0.12970168612192,-0.059754329747462975,0.9605249103532465
1539131781072232,0.13067826352330858,-0.05743495841916513,0.9578393224994279
1539131781088220,0.12835889219501073,-0.06707866025787768,0.9597924773022051
1539131781104208,0.1284809643701843,-0.08331425955596261,0.9645532921339743
1539131781120195,0.12408636606393486,-0.09210345616845972,0.9622339208056765
1539131781136183,0.12445258258945557,-0.08477912565804546,0.9434348058289466
1539131781152171,0.1222552834363313,-0.07879758907454049,0.9434348058289466
1539131781168159,0.12701609826810145,-0.07464713511863907,0.9422140840772109
1539131781184147,0.1343404287785157,-0.06817730983443981,0.9306172274357216
1539131781200135,0.13116655222400286,-0.0613412680247194,0.9333028152895402
1539131781216123,0.130556191348135,-0.055848020141908705,0.9503929198138401
1539131781231964,0.12469672693980272,-0.04901197833218873,0.9573510337987337
1539131781247951,0.12408636606393486,-0.04449530785076661,0.954421301594568
1539131781263939,0.13324177920195357,-0.04840161745632088,0.9564965285725187
1539131781279926,0.1448386358434428,-0.060975051499198685,0.9573510337987337
1539131781295913,0.14923323414969136,-0.07574578469520121,0.9528343633173115
1539131781311901,0.13543907835507785,-0.07794308384832549,0.9586938277256429
1539131781327888,0.12384222171358772,-0.0707408255130848,0.9682154573891815
1539131781343876,0.12030212863355416,-0.060975051499198685,0.964919508659495
1539131781359863,0.12689402609292788,-0.058289463645380124,0.9497825589379723
1539131781375850,0.13556115053025142,-0.07025253681239052,0.9469748989089801
1539131781391838,0.14337376974135996,-0.07965209430075548,0.9536888685435265
1539131781407825,0.14435034714274853,-0.08197146562905333,0.9571068894483865
1539131781423812,0.14264133669031853,-0.08062867170214405,0.9547875181200887
1539131781439800,0.14422827496757495,-0.08856336308842616,0.949294270237278
1539131781455787,0.1474021515220878,-0.08807507438773188,0.9466086823834594
1539131781471775,0.1448386358434428,-0.07635614557106907,0.943312733653773
1539131781487762,0.1439841306172278,-0.06475928892957983,0.9403830014496073
1539131781503749,0.14044403753719426,-0.06341649500267055,0.9446555275806823
1539131781519737,0.13409628442816857,-0.06927595941100195,0.953566796368353
1539131781535724,0.12750438696879574,-0.07525749599450693,0.9643091477836272
1539131781551605,0.12738231479362216,-0.07769893949797835,0.9667505912870986
1539131781567592,0.12921339742122573,-0.07354848554207694,0.9615014877546351
1539131781583579,0.12945754177157287,-0.058533607995727266,0.9635767147325858
1539131781599566,0.13299763485160643,-0.048035400930800165,0.9586938277256429
1539131781615553,0.13751430533302855,-0.04596017395284946,0.9562523842221715
1539131781631539,0.15631342030975848,-0.04718089570458517,0.9413595788509959
1539131781647526,0.16571297779812344,-0.05108720531013944,0.9274433508812088
1539131781663513,0.16327153429465202,-0.05535973144121442,0.9246356908522166
1539131781679500,0.15045395590142707,-0.060975051499198685,0.9217059586480509
1539131781695487,0.13739223315785498,-0.06707866025787768,0.9312275883115895
1539131781711474,0.13263141832608571,-0.07733272297245763,0.9372091248950944
1539131781727461,0.13482871747921,-0.08062867170214405,0.9400167849240866
1539131781743448,0.13641565575646641,-0.0791638056000612,0.9468528267338066
1539131781759435,0.1439841306172278,-0.07269398031586194,0.9503929198138401
1539131781775422,0.1410543984130621,-0.0657358663309684,0.9638208590829329
1539131781791409,0.135683222705425,-0.06146334019989297,0.9644312199588008
1539131781807396,0.1289692530708786,-0.0707408255130848,0.9634546425574122
1539131781823382,0.13031204699778787,-0.07782101167315192,0.9647974364843215
1539131781839369,0.13177691309987072,-0.0774547951476312,0.9632104982070651
1539131781855356,0.133974212252995,-0.06707866025787768,0.9584496833752958
1539131781871246,0.13800259403372284,-0.05609216449225585,0.9513694972152287
1539131781887232,0.13751430533302855,-0.06146334019989297,0.9473411154345008
1539131781903219,0.13885709925993783,-0.06927595941100195,0.9419699397268637
1539131781919205,0.14300755321583924,-0.07135118638895266,0.9370870527199209
1539131781935192,0.14129854276340925,-0.06378271152819126,0.9430685893034259
1539131781951178,0.13653772793163999,-0.062195773250934394,0.9488059815365837
1539131781967165,0.13202105745021786,-0.07171740291447337,0.9464866102082858
1539131781983151,0.1293354695963993,-0.07464713511863907,0.9524681467917908
1539131781999138,0.1284809643701843,-0.07147325856412623,0.9541771572442208
1539131782015124,0.12652780956740717,-0.0686655985351341,0.9568627450980394
1539131782031110,0.130556191348135,-0.0678110933089191,0.9549095902952622
1539131782047097,0.13458457312886285,-0.06598001068131554,0.9516136415655758
1539131782063083,0.13910124361028497,-0.06805523765926624,0.9545433737697415
1539131782079070,0.13714808880750784,-0.06805523765926624,0.9551537346456094
1539131782095056,0.13287556267643286,-0.0613412680247194,0.9541771572442208
1539131782111043,0.12884718089570502,-0.05951018539711583,0.9557640955214772
1539131782127029,0.13043411917296144,-0.06060883497367797,0.9464866102082858
1539131782143015,0.13177691309987072,-0.06414892805371197,0.947585259784848
1539131782159002,0.13556115053025142,-0.06976424811169624,0.9486839093614101
1539131782174988,0.1377584496833757,-0.07135118638895266,0.9461203936827651
1539131782190857,0.13934538796063212,-0.06927595941100195,0.9508812085145344
1539131782206843,0.13665980010681356,-0.06671244373235696,0.9538109407187001
1539131782222828,0.13873502708476426,-0.06659037155718339,0.9445334554055087
1539131782238814,0.14312962539101282,-0.07025253681239052,0.9405050736247809
1539131782254800,0.14666971847104637,-0.07428091859311836,0.9395284962233923
1539131782270786,0.14544899671931066,-0.07647821774624264,0.9392843518730452
1539131782286772,0.14264133669031853,-0.06817730983443981,0.9525902189669644
1539131782302758,0.1343404287785157,-0.0648813611047534,0.9577172503242544
1539131782318744,0.1310444800488293,-0.06829938200961339,0.9500267032883194
1539131782334730,0.13263141832608571,-0.0695201037613491,0.9497825589379723
1539131782350716,0.133974212252995,-0.0657358663309684,0.9551537346456094
1539131782366702,0.13250934615091214,-0.06280613412680269,0.9574731059739072
1539131782382688,0.12994583047226715,-0.06268406195162912,0.9562523842221715
1539131782398674,0.12750438696879574,-0.06512550545510054,0.9551537346456094
1539131782414660,0.13495078965438356,-0.0733043411917298,0.9542992294193944
1539131782430646,0.13910124361028497,-0.07647821774624264,0.9466086823834594
1539131782446632,0.13824673838406998,-0.07513542381933336,0.9419699397268637
1539131782462618,0.13739223315785498,-0.07550164034485407,0.9427023727779051
1539131782478604,0.13873502708476426,-0.08331425955596261,0.9379415579461359
1539131782494590,0.13995574883649997,-0.0867322804608226,0.9342793926909287
1539131782510498,0.13556115053025142,-0.08319218738078904,0.9409933623254751
1539131782526483,0.12982375829709358,-0.07257190814068837,0.9506370641641873
1539131782542469,0.1267719539177543,-0.06427100022888554,0.9602807660028994
1539131782558454,0.1255512321660186,-0.06634622720683625,0.9589379720759901
1539131782574440,0.1281147478446636,-0.0707408255130848,0.9596704051270315
1539131782590425,0.13263141832608571,-0.07000839246204338,0.9582055390249486
1539131782606411,0.13592736705577213,-0.06366063935301769,0.9541771572442208
1539131782622396,0.13922331578545855,-0.053040360112916574,0.9536888685435265
1539131782638382,0.13702601663233427,-0.05267414358739586,0.933913176165408
1539131782654367,0.13922331578545855,-0.06414892805371197,0.929640650034333
1539131782670353,0.13922331578545855,-0.07708857862211049,0.9396505683985659
1539131782686338,0.13910124361028497,-0.08197146562905333,0.9406271457999544
1539131782702324,0.13287556267643286,-0.07574578469520121,0.948439765011063
1539131782718309,0.1289692530708786,-0.07281605249103551,0.9588158999008165
1539131782734295,0.12750438696879574,-0.07867551689936692,0.9577172503242544
1539131782750280,0.13006790264744073,-0.08514534218356618,0.9524681467917908
1539131782766265,0.13641565575646641,-0.08783093003738474,0.9566186007476922
1539131782782251,0.13592736705577213,-0.08599984740978117,0.9623559929808501
1539131782798236,0.13788052185854927,-0.08368047608148332,0.9545433737697415
1539131782814222,0.13995574883649997,-0.08343633173113618,0.9459983215075916
1539131782830078,0.13958953231097926,-0.07672236209658978,0.946730754558633
1539131782846063,0.1381246662088964,-0.0678110933089191,0.9442893110551616
1539131782862048,0.13641565575646641,-0.06121919584954583,0.945876249332418
1539131782878033,0.13287556267643286,-0.06329442282749698,0.9456321049820708
1539131782894018,0.1318989852750443,-0.0613412680247194,0.9547875181200887
1539131782910003,0.12860303654535787,-0.06121919584954583,0.9613794155794615
1539131782925988,0.13446250095368928,-0.06500343327992697,0.9505149919890137
1539131782941973,0.13641565575646641,-0.07696650644693692,0.9494163424124515
1539131782957958,0.13556115053025142,-0.08770885786221116,0.9523460746166172
1539131782973943,0.13531700617990428,-0.09662012664988184,0.9448996719310294
1539131782989928,0.13116655222400286,-0.09710841535057613,0.9472190432593273
1539131783005913,0.12249942778667844,-0.09076066224155044,0.9483176928358894
1539131783021898,0.11944762340733917,-0.08941786831464116,0.9469748989089801
1539131783037883,0.12530708781567146,-0.08892957961394687,0.9507591363393608
1539131783053868,0.13311970702678,-0.08770885786221116,0.9459983215075916
1539131783069853,0.1377584496833757,-0.08245975432974761,0.9405050736247809
1539131783085838,0.14508278019378995,-0.07647821774624264,0.9477073319600215
1539131783101823,0.14691386282139351,-0.07965209430075548,0.945876249332418
1539131783117808,0.14789044022278208,-0.0783093003738462,0.9417257953765166
1539131783133793,0.14593728542000495,-0.07598992904554835,0.9456321049820708
1539131783149688,0.14044403753719426,-0.07232776379034123,0.9519798580910965
1539131783165673,0.13006790264744073,-0.07086289768825837,0.9583276112001222
1539131783181658,0.1231097886625463,-0.0736705577172505,0.9591821164263372
1539131783197643,0.12237735561150487,-0.08343633173113618,0.9628442816815443
1539131783213628,0.1214007782101163,-0.08917372396429402,0.9623559929808501
1539131783229613,0.12359807736324058,-0.08307011520561547,0.9514915693904022
1539131783245598,0.12542915999084503,-0.07855344472419334,0.9383077744716566
1539131783261583,0.12689402609292788,-0.08807507438773188,0.9372091248950944
1539131783277568,0.13324177920195357,-0.10174715800717182,0.9340352483405816
1539131783293553,0.1423971923399714,-0.10626382848859395,0.9248798352025638
1539131783309538,0.1444724193179221,-0.09649805447470827,0.9253681239032581
1539131783325523,0.1372701609826814,-0.08514534218356618,0.9335469596398873
1539131783341508,0.13617151140611927,-0.08526741435873975,0.9481956206607158
1539131783357494,0.14117647058823568,-0.091737239642939,0.9444113832303351
1539131783373479,0.13556115053025142,-0.09320210574502186,0.949294270237278
1539131783389464,0.12567330434119217,-0.09686427100022899,0.9607690547035936
1539131783405449,0.12201113908598415,-0.10052643625543611,0.9682154573891815
1539131783421434,0.1214007782101163,-0.09893949797817969,0.9695582513160907
1539131783437419,0.1267719539177543,-0.09588769359884042,0.9632104982070651
1539131783453404,0.13287556267643286,-0.10260166323338682,0.9624780651560236
1539131783469299,0.1351949340047307,-0.10760662241550323,0.9623559929808501
1539131783485283,0.13580529488059856,-0.10736247806515609,0.9456321049820708
1539131783501268,0.13385214007782142,-0.10113679713130397,0.9444113832303351
1539131783517253,0.12909132524605216,-0.09698634317540256,0.9422140840772109
1539131783533237,0.124330510414282,-0.09564354924849328,0.9383077744716566
1539131783549222,0.12469672693980272,-0.09063859006637687,0.9348897535667966
1539131783565206,0.1222552834363313,-0.08026245517662334,0.9355001144426645
1539131783581191,0.12298771648737272,-0.0736705577172505,0.9400167849240866
1539131783597175,0.12115663385976916,-0.07257190814068837,0.9485618371862365
1539131783613160,0.12689402609292788,-0.07598992904554835,0.9483176928358894
1539131783629144,0.13629358358129284,-0.08075074387731762,0.9370870527199209
1539131783645129,0.13580529488059856,-0.08099488822766476,0.9438010223544673
1539131783661113,0.13336385137712714,-0.0850232700083926,0.9470969710841537
1539131783677098,0.130556191348135,-0.0867322804608226,0.942458228427558
1539131783693082,0.1251850156404979,-0.08783093003738474,0.941603723201343
1539131783709067,0.1255512321660186,-0.09466697184710471,0.9397726405737394
1539131783725052,0.13238727397573857,-0.10809491111619751,0.9401388570992602
1539131783741036,0.13971160448615283,-0.1203021286335546,0.9502708476386665
1539131783757021,0.1461814297703521,-0.12884718089570457,0.9557640955214772
1539131783773005,0.14874494544899708,-0.13446250095368883,0.9600366216525522
1539131783788940,0.14386205844205424,-0.1325093461509117,0.9678492408636608
1539131783804924,0.13629358358129284,-0.12298771648737317,0.9654077973601893
1539131783820908,0.12164492256046344,-0.11285572594796678,0.9607690547035936
1539131783836892,0.10870527199206492,-0.10797283894102394,0.9624780651560236
1539131783852876,0.10345616845960137,-0.1123674372472725,0.9561303120469979
1539131783868860,0.10565346761272565,-0.11798275730525676,0.941603723201343
1539131783884844,0.12213321126115773,-0.11859311818112461,0.930495155260548
1539131783900828,0.13971160448615283,-0.11419851987487606,0.9230487525749602
1539131783916813,0.1558251316090642,-0.10199130235751896,0.9197528038452738
1539131783932797,0.16107423514152774,-0.092591744869154,0.9198748760204474
1539131783948781,0.15985351338979203,-0.09149309529259186,0.9306172274357216
1539131783964765,0.1544823376821549,-0.09234760051880686,0.9397726405737394
1539131783980749,0.1432516975661864,-0.09576562142366685,0.9499046311131458
1539131783996733,0.13165484092469715,-0.10919356069275965,0.9549095902952622
1539131784012717,0.12652780956740717,-0.11773861295490962,0.9615014877546351
1539131784028701,0.12359807736324058,-0.1161516746776532,0.9656519417105365
1539131784044685,0.12359807736324058,-0.10724040588998252,0.9503929198138401
1539131784060669,0.1255512321660186,-0.10247959105821325,0.9422140840772109
1539131784076653,0.13360799572747428,-0.09991607537956826,0.9470969710841537
1539131784092637,0.13067826352330858,-0.10247959105821325,0.9540550850690472
1539131784108551,0.13482871747921,-0.11871519035629818,0.9566186007476922
1539131784124535,0.13580529488059856,-0.1350728618295567,0.9486839093614101
1539131784140519,0.15631342030975848,-0.14154268711375595,0.9376974135957887
1539131784156503,0.1553368429083699,-0.12945754177157243,0.9312275883115895
1539131784172487,0.14972152285038565,-0.11285572594796678,0.9348897535667966
1539131784188471,0.13543907835507785,-0.11017013809414822,0.9387960631723509
1539131784204455,0.12579537651636574,-0.1228656443121996,0.9508812085145344
1539131784220439,0.1267719539177543,-0.13678187228198668,0.9502708476386665
1539131784236423,0.13250934615091214,-0.13568322270542454,0.9474631876096744
1539131784252407,0.14227512016479782,-0.12567330434119173,0.9528343633173115
1539131784268391,0.14850080109864994,-0.1211566338597696,0.9481956206607158
1539131784284375,0.15472648203250206,-0.11847104600595104,0.9439230945296408
1539131784300359,0.14789044022278208,-0.11590753032730605,0.9470969710841537
1539131784316343,0.14605935759517852,-0.11407644769970249,0.945876249332418
1539131784332327,0.13678187228198713,-0.11883726253147175,0.9452658884565501
1539131784348312,0.12774853131914288,-0.12591744869153887,0.9457541771572444
1539131784364296,0.13116655222400286,-0.12591744869153887,0.9491721980621044
1539131784380280,0.14142061493858282,-0.12274357213702602,0.9405050736247809
1539131784396264,0.1423971923399714,-0.11712825207904176,0.9383077744716566
1539131784412248,0.14520485236896352,-0.12249942778667888,0.9456321049820708
1539131784428161,0.14801251239795565,-0.12506294346532387,0.9414816510261694
1539131784444145,0.1439841306172278,-0.1211566338597696,0.9391622796978716
1539131784460128,0.14312962539101282,-0.11834897383077747,0.9423361562523844
1539131784476112,0.14166475928892996,-0.11761654077973605,0.9412375066758223
1539131784492096,0.13629358358129284,-0.1115129320210575,0.9370870527199209
1539131784508079,0.135683222705425,-0.10760662241550323,0.9376974135957887
1539131784524063,0.13336385137712714,-0.10992599374380108,0.9479514763103687
1539131784540046,0.1351949340047307,-0.12054627298390175,0.9532005798428322
1539131784556030,0.13958953231097926,-0.1290913252460517,0.946730754558633
1539131784572013,0.14837872892347637,-0.12945754177157243,0.9413595788509959
1539131784587997,0.1456931410696578,-0.1228656443121996,0.9473411154345008
1539131784603981,0.1453269245441371,-0.11493095292591748,0.9529564354924851
1539131784619964,0.14288548104066567,-0.11297779812314035,0.9495384145876251
1539131784635948,0.13409628442816857,-0.11944762340733961,0.9560082398718244
1539131784651931,0.13141069657435,-0.12591744869153887,0.9563744563973451
1539131784667915,0.13507286182955713,-0.12945754177157243,0.9479514763103687
1539131784683899,0.13849088273441712,-0.12738231479362172,0.9389181353475244
1539131784699882,0.13885709925993783,-0.11554131380178534,0.9300068665598538
1539131784715866,0.13751430533302855,-0.10675211718928823,0.9243915465018695
1539131784731849,0.14117647058823568,-0.1123674372472725,0.929640650034333
1539131784747772,0.1401998931868471,-0.12249942778667888,0.9333028152895402
1539131784763755,0.13885709925993783,-0.11749446860456247,0.9453879606317237
1539131784779739,0.13592736705577213,-0.10504310673685824,0.9457541771572444
1539131784795723,0.13971160448615283,-0.10553139543755252,0.9439230945296408
1539131784811706,0.1436179140917071,-0.11566338597695891,0.9529564354924851
1539131784827690,0.1461814297703521,-0.1275043869687953,0.9472190432593273
1539131784843673,0.14435034714274853,-0.13202105745021742,0.946730754558633
1539131784859657,0.14581521324483138,-0.1283588921950103,0.9490501258869308
1539131784875640,0.14386205844205424,-0.11786068513008319,0.9438010223544673
1539131784891624,0.1389791714351114,-0.1085831998168918,0.9397726405737394
1539131784907608,0.13665980010681356,-0.11273365377279321,0.9418478675516901
1539131784923591,0.1369039444571607,-0.12396429388876173,0.9440451667048144
1539131784939575,0.1386129549095907,-0.12591744869153887,0.944167238879988
1539131784955558,0.14081025406271497,-0.12018005645838103,0.9445334554055087
1539131784971542,0.14410620279240138,-0.12054627298390175,0.9456321049820708
1539131784987526,0.14581521324483138,-0.11871519035629818,0.9420920119020373
1539131785003509,0.14203097581445068,-0.11859311818112461,0.9429465171282523
1539131785019493,0.13641565575646641,-0.11944762340733961,0.945021744106203
1539131785035476,0.1377584496833757,-0.12042420080872818,0.944167238879988
1539131785051460,0.13507286182955713,-0.11578545815213248,0.9477073319600215
1539131785067382,0.13617151140611927,-0.11200122072175178,0.9452658884565501
1539131785083366,0.13958953231097926,-0.11322194247348749,0.9406271457999544
1539131785099349,0.1515526054779892,-0.11407644769970249,0.9367208361944002
1539131785115332,0.15545891508354348,-0.11834897383077747,0.9346456092164495
1539131785131315,0.1511863889524685,-0.11334401464866106,0.9350118257419702
1539131785147298,0.14215304798962425,-0.10736247806515609,0.9445334554055087
1539131785163281,0.1334859235523007,-0.10455481803616395,0.9517357137407494
1539131785179264,0.1360494392309457,-0.10833905546654465,0.9453879606317237
1539131785195247,0.14251926451514496,-0.11468680857557034,0.941603723201343
1539131785211230,0.1386129549095907,-0.11932555123216604,0.9470969710841537
1539131785227213,0.13470664530403642,-0.12152285038529032,0.9542992294193944
1539131785243197,0.14117647058823568,-0.12335393301289388,0.9541771572442208
1539131785259180,0.14691386282139351,-0.12005798428320746,0.945021744106203
1539131785275163,0.15399404898146063,-0.1123674372472725,0.945876249332418
1539131785291146,0.1763332570382241,-0.1060196841382468,0.9396505683985659
1539131785307129,0.18573281452658907,-0.10736247806515609,0.9456321049820708
1539131785323112,0.15265125505455135,-0.11749446860456247,0.9403830014496073
1539131785339095,0.10528725108720494,-0.11920347905699247,0.9386739909971773
1539131785355078,0.06549172198062081,-0.10846112764171822,0.9425803006027316
1539131785371061,0.04852368963149445,-0.0896620126649883,0.9473411154345008
1539131785387024,0.06024261844815726,-0.08685435263599617,0.9486839093614101
1539131785403007,0.09356832227054213,-0.09332417792019543,0.9453879606317237
1539131785418990,0.13238727397573857,-0.10418860151064324,0.9480735484855423
1539131785434973,0.1776760509651334,-0.10797283894102394,0.9503929198138401
1539131785450956,0.21356527046616325,-0.10296787975890753,0.9387960631723509
1539131785466939,0.22980086976424818,-0.09478904402227828,0.9419699397268637
1539131785482922,0.22235446707866036,-0.09369039444571614,0.9574731059739072
1539131785498905,0.19635309376668975,-0.10040436408026254,0.9702906843671322
1539131785514888,0.16937514305333057,-0.10235751888303968,0.9696803234912643
1539131785530871,0.14300755321583924,-0.09942778667887398,0.9740749217975129
1539131785546855,0.12298771648737272,-0.09784084840161755,0.9816433966582743
1539131785562838,0.10174715800717138,-0.09442282749675757,0.9741969939726864
1539131785578821,0.0869764248111693,-0.09759670405127041,0.9508812085145344
1539131785594804,0.08929579613946714,-0.09576562142366685,0.9403830014496073
1539131785610787,0.10431067368581637,-0.08868543526359973,0.9357442587930116
1539131785626770,0.13653772793163999,-0.07904173342488763,0.9312275883115895
1539131785642753,0.1646143282215613,-0.07318226901655622,0.9170672159914552
1539131785658736,0.17547875181200911,-0.06634622720683625,0.919142442969406
1539131785674719,0.18121614404516695,-0.06829938200961339,0.9239032578011752
1539131785690703,0.1818265049210348,-0.07415884641794479,0.9306172274357216
1539131785706634,0.17462424658579412,-0.07977416647592905,0.939894712748913
1539131785722617,0.16559090562294987,-0.08148317692835905,0.9438010223544673
1539131785738599,0.15167467765316278,-0.08136110475318548,0.9428244449530787
1539131785754582,0.13885709925993783,-0.07806515602349906,0.9397726405737394
1539131785770565,0.13080033569848215,-0.09356832227054257,0.9370870527199209
1539131785786547,0.1264057373922336,-0.1337300679026474,0.9208514534218359
1539131785802530,0.1477683680476085,-0.1581445029373616,0.9147478446631574
1539131785818513,0.14251926451514496,-0.1564354924849316,0.9361104753185323
1539131785834495,0.10980392156862706,-0.1509422446021209,0.9650415808346686
1539131785850478,0.08856336308842572,-0.1392233157854581,0.9687037460898758
1539131785866460,0.09271381704432713,-0.11334401464866106,0.9400167849240866
1539131785882443,0.11285572594796633,-0.0829480430304419,0.9243915465018695
1539131785898426,0.11651789120317346,-0.0800183108262762,0.9425803006027316
1539131785914408,0.12359807736324058,-0.09771877622644398,0.9626001373311972
1539131785930391,0.12152285038528987,-0.12823682001983672,0.9739528496223393
1539131785946374,0.12664988174258074,-0.14019989318684667,0.9722438391699093
1539131785962356,0.12970168612192,-0.12811474784466315,0.9690699626153965
1539131785978339,0.13739223315785498,-0.10321202410925467,0.9651636530098422
1539131785994321,0.13421835660334214,-0.08343633173113618,0.9606469825284201
1539131786010304,0.12567330434119217,-0.08368047608148332,0.9594262607766844
1539131786026245,0.11822690165560346,-0.07086289768825837,0.9495384145876251
1539131786042227,0.10687418936446136,-0.04693675135423803,0.9291523613336388
1539131786058210,0.09442282749675712,-0.027161058976119534,0.9314717326619366
1539131786074193,0.08197146562905289,-0.034851606012054503,0.9470969710841537
1539131786090175,0.0680552376592658,-0.06366063935301769,0.9678492408636608
1539131786106158,0.06561379415579438,-0.09283588921950114,0.9665064469367515
1539131786122141,0.08099488822766432,-0.10431067368581681,0.9596704051270315
1539131786138123,0.0869764248111693,-0.092591744869154,0.9497825589379723
1539131786154106,0.08783093003738429,-0.060852979324025114,0.9461203936827651
1539131786170088,0.08770885786221072,-0.028870069428549527,0.9506370641641873
1539131786186071,0.08221560997940003,-0.03070115205615309,0.9728542000457772
1539131786202054,0.08343633173113574,-0.06353856717784412,0.97602807660029
1539131786218036,0.08783093003738429,-0.07428091859311836,0.9542992294193944
1539131786234019,0.09637598229953426,-0.06060883497367797,0.9444113832303351
1539131786250002,0.10077058060578281,-0.045471885252155175,0.9392843518730452
1539131786265984,0.10113679713130352,-0.029724574654764524,0.951003280689708
1539131786281967,0.09527733272297212,-0.029602502479590953,0.9561303120469979
1539131786297949,0.0831921873807886,-0.03961242084382377,0.9667505912870986
1539131786313932,0.0663462272068358,-0.0575570305943387,0.9750514991989014
1539131786329915,0.051819638361180864,-0.07562371252002764,0.987136644541085
1539131786345855,0.038757915617608774,-0.07342641336690336,1.0005645838101778
1539131786361838,0.03460746166170736,-0.04864576180666802,1.0248569466697184
1539131786377821,0.037781338216220206,-0.02935835812924381,1.0616006713969632
1539131786393803,0.05218585488670158,-0.029724574654764524,1.0846723125047681
1539131786409786,0.08111696040283789,-0.055970092317082276,1.094071869993133
1539131786425768,0.060975051499198685,-0.08111696040283833,1.118852521553368
1539131786441751,0.1646143282215613,0.035095750362401645,1.2388494697489891
1539131786457734,0.22394140535591678,0.024719615472648115,1.5502555886167695
1539131786473716,0.2653238727397573,0.01751735713740743,1.7824368657969023
1539131786489699,0.24347295338368813,-0.024353398947127403,1.9255054551003283
1539131786505682,0.23553826199740602,-0.08892957961394687,1.8901045242999928
1539131786521664,0.22284275577935464,-0.15362783245593947,1.6742809185931185
1539131786537647,0.15887693598840347,-0.15362783245593947,1.3438315403982601
1539131786553630,0.05426108186465228,-0.11017013809414822,0.9984893568322271
1539131786569612,-0.06341649500267055,-0.08136110475318548,0.6887922484168767
1539131786585595,-0.12384222171358816,-0.0613412680247194,0.4221866178377969
1539131786601577,-0.1948882276646069,-0.08087281605249119,0.29083695735103365
1539131786617560,-0.20001525902189687,-0.07379262989242408,0.2048981460288397
1539131786633543,-0.1919584954604412,-0.05792324711985941,0.20794995040817899
1539131786649525,-0.20880445563439398,-0.006897077897306758,0.2330968184939346
1539131786665466,-0.2603189135576409,-0.0020141908903639205,0.3007248035400929
1539131786681448,-0.26361486228732733,0.04254215304798947,0.35724422064545625
1539131786697430,-0.26727702754253446,0.05157549401083372,0.4350041962310218
1539131786713412,-0.24982070649271382,0.06536964980544724,0.4695506218051424
1539131786729395,-0.2410315098802167,0.08648813611047501,0.49115739681086446
1539131786745377,-0.23419546807049674,0.09820706492713782,0.46564431219958813
1539131786761359,-0.23468375677119102,0.09185931181811213,0.41474021515220905
1539131786777341,-0.22833600366216533,0.10406652933546923,0.3175707637140457
1539131786793323,-0.16412603952086657,0.12176699473563701,0.12384222171358772
1539131786809305,-0.1152971694514382,0.13665980010681356,-0.18475623712520006
1539131786825287,-0.08184939345387976,0.21173418783855968,-0.5855191882200352
1539131786841270,0.060975051499198685,0.2943770504310672,-0.929518577859159
1539131786857252,0.2600747692072938,0.28204776073853655,-1.0541542687113754
1539131786873234,0.54023041123064,0.25226214999618524,-0.7669184405279621
1539131786889216,1.060257877470054,0.14813458457312922,-0.00848401617456318
1539131786905198,0.37201495384145833,-2.0611276417181656,4.0
1539131786921180,0.13177691309987072,0.7030746929121845,2.6553749904631117
1539131786937163,0.07611200122072148,0.3275806820782785,0.4771190966659038
1539131786953145,0.09845120927748496,0.31110093842984643,0.39459830624856984
1539131786969127,0.10003814755474139,0.31293202105745,0.7077134355687802
1539131786985077,0.13531700617990428,0.3346608682383456,1.057694361791409
1539131787001059,0.26556801709010447,0.20184634164950044,1.467002365148394
1539131787017041,0.41351949340047334,-0.1995269703212026,1.7621728847180895
1539131787033023,0.3814145113298242,0.16571297779812344,1.583947508964675
1539131787049005,0.30975814450293715,0.03997863736934448,1.471030746929122
1539131787064987,0.2196688792248418,0.0289921416037231,1.1861142900740065
1539131787080969,0.15265125505455135,-0.02667277027542525,0.9179217212176702
1539131787096952,0.05267414358739586,-0.04718089570458517,0.6751201647974368
1539131787112934,-0.007263294422827471,-0.0470588235294116,0.4901808194094759
1539131787128916,-0.05902189669642155,-0.04583810177767589,0.3872739757381556
1539131787144898,-0.08490119783321903,-0.036316472114137355,0.3515068284122984
1539131787160880,-0.07513542381933336,-0.04217593652246876,0.3909361409933627
1539131787176862,-0.042786297398336615,-0.03717097734035235,0.4721141374837874
1539131787192844,-0.015686274509803866,-0.04876783398184159,0.5791714351110091
1539131787208827,-0.012878614480811734,-0.042908369573510186,0.6887922484168767
1539131787224809,-0.005432211795223907,-0.03460746166170736,0.8131837949187455
1539131787240791,0.023743038071259548,-0.020691233691920274,0.9177996490424967
1539131787256773,0.046692607003890885,-0.006897077897306758,0.9761501487754636
1539131787272755,0.041443503471427334,0.0025024795910582043,0.9976348516060121
1539131787288737,0.017761501487754572,0.012512397955291021,1.009597924773022
1539131787304687,0.0061646448462653325,0.04449530785076661,1.0231479362172884
1539131787320669,0.03460746166170736,0.060975051499198685,1.0349889372091248
1539131787336651,0.04779125658045302,0.08221560997940003,1.0307164110780498
1539131787352634,0.04364080262455161,0.08453498130769788,0.9965362020294499
1539131787368616,0.013977264057373873,0.08941786831464071,0.9779812314030671
1539131787384598,0.02410925459678026,0.09112687876707071,0.9696803234912643
1539131787400580,0.036194399938963784,0.09417868314640998,0.9617456321049822
1539131787416562,0.04461738002594018,0.09002822919050857,0.9545433737697415
1539131787432544,0.049134050507362304,0.07696650644693648,0.9210955977721831
1539131787448526,0.04058899824521234,0.06732280460822437,0.9115739681086446
1539131787464509,0.04876783398184159,0.05889982452124798,0.9203631647211417
1539131787480491,0.07122911421377864,0.050476844434271584,0.9308613717860688
1539131787496473,0.08941786831464071,0.03729304951552592,0.9219501029983981
1539131787512455,0.07244983596551435,0.0109254596780346,0.9209735255970095
1539131787528437,0.0831921873807886,-0.0039673456931410556,0.9051041428244453
1539131787544419,0.10052643625543567,-0.009948882276646032,0.8788586251621275
1539131787560402,0.12457465476462914,0.004455634393835339,0.8412603952086668
1539131787576384,0.16913099870298343,0.01641870756084529,1.6138551918822
1539131787592366,0.08184939345387932,-0.11566338597695891,1.5015487907225147
1539131787608348,0.04449530785076661,-0.16913099870298298,0.9206073090714888
1539131787624298,0.07403677424277078,-0.010437170977340315,0.8009765774013884
1539131787640280,0.14227512016479782,0.17267109178301698,0.946730754558633
1539131787656262,0.16156252384222203,0.14117647058823568,0.9258564126039524
1539131787672244,0.15838864728770918,0.0709849698634315,0.9052262149996189
1539131787688226,0.13482871747921,0.06707866025787723,0.9875028610666057
1539131787704208,0.11187914854657777,0.04888990615701516,0.9911650263218128
1539131787720191,0.11200122072175134,0.020691233691920274,0.9710231174181736
1539131787736173,0.10785076676584993,0.029602502479590953,0.9877470054169528
1539131787752155,0.10638590066376707,0.04510566872663446,0.9730983443961243
1539131787768137,0.0949111161974514,0.05035477225909801,0.9499046311131458
1539131787784119,0.10101472495612995,0.057312886243991557,0.9591821164263372
1539131787800101,0.10345616845960137,0.05169756618600729,0.9555199511711301
1539131787816084,0.12237735561150487,0.03741512169069949,0.9500267032883194
1539131787832066,0.12872510872053144,0.02423132677195383,0.9512474250400551
1539131787848048,0.13043411917296144,0.033630884260318794,0.9621118486305029
1539131787864030,0.1372701609826814,0.043030441748683756,0.9569848172732129
1539131787880012,0.130556191348135,0.04730296787975874,0.9508812085145344
1539131787895994,0.11712825207904132,0.0508430609597923,0.9577172503242544
1539131787911976,0.11285572594796633,0.051819638361180864,0.9553978789959565
1539131787927959,0.09600976577401354,0.052918287937743,0.9676050965133136
1539131787943908,0.08709849698634287,0.04498359655146089,0.9844510566872664
1539131787959890,0.09088273441672357,0.031311512932020946,0.9756618600747693
1539131787975872,0.10113679713130352,0.02935835812924381,0.9622339208056765
1539131787991853,0.10077058060578281,0.04132143129625376,0.951857785915923
1539131788007835,0.09246967269397999,0.0499885557335773,0.946730754558633
1539131788023817,0.07586785687037434,0.04876783398184159,0.9547875181200887
1539131788039798,0.08209353780422646,0.0357061112382695,0.9621118486305029
1539131788055780,0.10235751888303923,0.030823224231326662,0.9549095902952622
1539131788071762,0.12066834515907487,0.038879987792782345,0.943312733653773
1539131788087743,0.1343404287785157,0.05780117494468584,0.9314717326619366
1539131788103725,0.14312962539101282,0.07159533073929936,0.9284199282825973
1539131788119707,0.1381246662088964,0.07232776379034078,0.9355001144426645
1539131788135688,0.12909132524605216,0.052918287937743,0.9545433737697415
1539131788151670,0.12152285038528987,0.027161058976119534,0.9687037460898758
1539131788167652,0.10931563286793278,0.01629663538567172,0.9776150148775464
1539131788183633,0.0995498588540471,0.02935835812924381,0.9805447470817121
1539131788199615,0.0986953536278321,0.04962233920805659,0.9596704051270315
1539131788215597,0.09613183794918712,0.06366063935301725,0.9452658884565501
1539131788231578,0.09027237354085571,0.05035477225909801,0.9489280537117573
1539131788247560,0.089906157015335,0.017761501487754572,0.9682154573891815
1539131788263519,0.09674219882505497,-0.006897077897306758,0.9716334782940415
1539131788279501,0.10272373540855995,-0.004821850919356052,0.9624780651560236
1539131788295482,0.10785076676584993,0.020569161516746703,0.9442893110551616
1539131788311464,0.10699626153963493,0.037781338216220206,0.9328145265888459
1539131788327446,0.10003814755474139,0.038757915617608774,0.9358663309681852
1539131788343427,0.08844129091325215,0.017883573662928143,0.9563744563973451
1539131788359409,0.09015030136568214,0.0060425726710917615,0.9693141069657436
1539131788375391,0.09063859006637642,0.016662851911192433,0.9663843747615779
1539131788391372,0.09137102311741785,0.03704890516517878,0.9547875181200887
1539131788407354,0.09710841535057568,0.04510566872663446,0.9507591363393608
1539131788423336,0.10101472495612995,0.036194399938963784,0.9578393224994279
1539131788439317,0.10614175631341993,0.023254749370565264,0.9721217669947357
1539131788455299,0.11029221026932134,0.019470511940184565,0.9688258182650493
1539131788471281,0.11639581902799989,0.027038986800945963,0.9573510337987337
1539131788487262,0.11822690165560346,0.033875028610665936,0.9477073319600215
1539131788503244,0.12213321126115773,0.03204394598306237,0.9478294041351951
1539131788519226,0.12787060349431645,0.02252231631952384,0.9557640955214772
1539131788535207,0.13373006790264785,0.00836194399938961,0.9528343633173115
1539131788551189,0.13238727397573857,0.006897077897306758,0.9508812085145344
1539131788567171,0.12603952086671288,0.01873807888914314,0.9474631876096744
1539131788583130,0.1146868085755699,0.031311512932020946,0.9448996719310294
1539131788599111,0.10162508583199781,0.03302052338445094,0.9468528267338066
1539131788615093,0.09381246662088927,0.031189440756847375,0.9556420233463037
1539131788631075,0.08599984740978073,0.02667277027542525,0.9597924773022051
1539131788647056,0.08075074387731718,0.02545204852368954,0.9638208590829329
1539131788663038,0.07672236209658934,0.033630884260318794,0.9655298695353629
1539131788679020,0.07965209430075504,0.03961242084382377,0.9578393224994279
1539131788695001,0.09161516746776499,0.04180971999694805,0.9610131990539408
1539131788710983,0.10406652933546923,0.03839169909208806,0.9627222095063708
1539131788726965,0.11236743724727205,0.03399710078583951,0.970046540016785
1539131788742946,0.11956969558251274,0.02923628595407024,0.9673609521629665
1539131788758928,0.1276264591439693,0.0289921416037231,0.9613794155794615
1539131788774910,0.14032196536202068,0.03472953383688093,0.9512474250400551
1539131788790891,0.14422827496757495,0.03717097734035235,0.9357442587930116
1539131788806873,0.1401998931868471,0.04229800869764233,0.9319600213626309
1539131788822855,0.1264057373922336,0.03790341039139378,0.9389181353475244
1539131788838836,0.11212329289692491,0.024719615472648115,0.9474631876096744
1539131788854818,0.1004043640802621,0.01898222323949028,0.955275806820783
1539131788870800,0.09466697184710426,0.02252231631952384,0.9588158999008165
1539131788886781,0.08978408484016143,0.030212863355458808,0.9602807660028994
1539131788902740,0.09442282749675712,0.03289845120927737,0.9582055390249486
1539131788918722,0.10272373540855995,0.027283131151293105,0.9636987869077593
1539131788934703,0.11786068513008274,0.02410925459678026,0.9694361791409172
1539131788950685,0.12713817044327502,0.026184481574730967,0.9705348287174793
1539131788966667,0.12957961394674644,0.03314259555962451,0.9636987869077593
1539131788982648,0.12457465476462914,0.0432745860990309,0.9499046311131458
1539131788998630,0.1167620355535206,0.04827954528114731,0.943312733653773
1539131789014612,0.10492103456168422,0.04730296787975874,0.9405050736247809
1539131789030593,0.09515526054779855,0.0394903486686502,0.9528343633173115
1539131789046575,0.09210345616845927,0.03167772945754166,0.9604028381780729
1539131789062557,0.09796292057679068,0.029480430304417382,0.9584496833752958
1539131789078539,0.10980392156862706,0.028625925078202386,0.9553978789959565
1539131789094520,0.11956969558251274,0.028747997253375956,0.953566796368353
1539131789110502,0.12469672693980272,0.025940337224383825,0.9536888685435265
1539131789126484,0.12982375829709358,0.02642862592507811,0.9604028381780729
1539131789142465,0.12506294346532432,0.028747997253375956,0.9564965285725187
1539131789158447,0.12237735561150487,0.035217822537575216,0.9491721980621044
1539131789174429,0.11737239642938846,0.043030441748683756,0.950148775463493
1539131789190410,0.11334401464866062,0.04119935912108019,0.9508812085145344
1539131789206392,0.10577553978789922,0.03558403906309593,0.9530785076676587
1539131789222351,0.10064850843060924,0.036194399938963784,0.9610131990539408
1539131789238332,0.10345616845960137,0.030823224231326662,0.9663843747615779
1539131789254314,0.10601968413824636,0.028259708552681673,0.9594262607766844
1539131789270296,0.11309987029831348,0.028381780727855244,0.9589379720759901
1539131789286277,0.12188906691081058,0.03289845120927737,0.9546654459449151
1539131789302259,0.12457465476462914,0.03533989471274879,0.9550316624704358
1539131789318241,0.12701609826810145,0.032532234683756656,0.9546654459449151
1539131789334222,0.12701609826810145,0.023254749370565264,0.953566796368353
1539131789350204,0.12274357213702558,0.016540779736018862,0.9569848172732129
1539131789366186,0.11248950942244562,0.01886015106431671,0.9562523842221715
1539131789382167,0.10357824063477494,0.02642862592507811,0.951857785915923
1539131789398149,0.09210345616845927,0.03826962691691449,0.950148775463493
1539131789414131,0.07928587777523433,0.04473945220111375,0.9571068894483865
1539131789430112,0.07000839246204293,0.039002059967955915,0.9644312199588008
1539131789446094,0.07086289768825793,0.029602502479590953,0.964919508659495
1539131789462076,0.08538948653391287,0.02789349202716096,0.9615014877546351
1539131789478057,0.10724040588998207,0.03155565728236809,0.9577172503242544
1539131789494039,0.12274357213702558,0.032410162508583085,0.9523460746166172
1539131789510021,0.14129854276340925,0.031067368581673804,0.9540550850690472
1539131789526003,0.15228503852903064,0.027405203326466676,0.9521019302662701
1539131789541961,0.15301747158007206,0.025574120698863112,0.9530785076676587
1539131789557942,0.14679179064621994,0.032288090333409514,0.951003280689708
1539131789573924,0.1293354695963993,0.04229800869764233,0.9401388570992602
1539131789589905,0.10675211718928779,0.05023270008392444,0.9455100328068973
1539131789605886,0.08307011520561502,0.04388494697489875,0.9568627450980394
1539131789621867,0.07330434119172935,0.025818265049210254,0.9618677042801558
1539131789637848,0.07818722819867219,0.013366903181506018,0.9647974364843215
1539131789653830,0.08392462043183002,0.008850232700083893,0.9628442816815443
1539131789669811,0.09600976577401354,0.015197985809109582,0.9615014877546351
1539131789685792,0.1100480659189742,0.02276646066987098,0.9582055390249486
1539131789701773,0.11944762340733917,0.026306553749904538,0.9489280537117573
1539131789717754,0.12530708781567146,0.030212863355458808,0.9495384145876251
1539131789733736,0.13031204699778787,0.025574120698863112,0.9485618371862365
1539131789749717,0.13531700617990428,0.02532997634851597,0.941603723201343
1539131789765698,0.12664988174258074,0.02545204852368954,0.9503929198138401
1539131789781679,0.11493095292591704,0.02032501716639956,0.9630884260318915
1539131789797660,0.10809491111619707,0.01373311970702673,0.9711451895933472
1539131789813642,0.1079728389410235,0.024475471122300974,0.9613794155794615
1539131789829623,0.09808499275196425,0.03582818341344307,0.9662623025864043
1539131789845604,0.1012588693064771,0.041687647821774476,0.9735866330968186
1539131789861602,0.11456473640039633,0.05133134966048658,0.9633325703822386
1539131789877584,0.10870527199206492,0.06939803158617508,0.9563744563973451
1539131789893565,0.10467689021133708,0.0861219195849543,0.9499046311131458
1539131789909546,0.1079728389410235,0.06927595941100151,0.9542992294193944
1539131789925527,0.11725032425421489,0.02801556420233453,0.9680933852140079
1539131789941508,0.13543907835507785,0.015808346684977437,0.9738307774471657
1539131789957490,0.14935530632486493,0.04449530785076661,0.9505149919890137
1539131789973471,0.16095216296635417,0.08563363088426001,0.9134050507362481
1539131789989452,0.16144045166704846,0.10955977721827992,0.8904554818036168
1539131790005433,0.14264133669031853,0.09649805447470783,0.9090104524299996
1539131790021414,0.12457465476462914,0.057312886243991557,0.9386739909971773
1539131790037396,0.10321202410925423,0.027283131151293105,0.9604028381780729
1539131790053377,0.08783093003738429,0.02923628595407024,0.9705348287174793
1539131790069358,0.0739147020675972,0.04315251392385733,0.9699244678416115
1539131790085339,0.0747692072938122,0.05645838101777656,0.9661402304112308
1539131790101320,0.08355840390630931,0.06732280460822437,0.9601586938277258
1539131790117302,0.09015030136568214,0.07257190814068792,0.9582055390249486
1539131790133283,0.09674219882505497,0.06744487678339794,0.9695582513160907
1539131790149264,0.10467689021133708,0.061097123674372256,0.9746852826733807
1539131790165245,0.1091935606927592,0.057190814068817986,0.9661402304112308
1539131790181213,0.11212329289692491,0.0663462272068358,0.9551537346456094
1539131790197194,0.10687418936446136,0.07049668116273722,0.9532005798428322
1539131790213175,0.10870527199206492,0.07672236209658934,0.9524681467917908
1539131790229157,0.1088273441672385,0.06842145418478651,0.9566186007476922
1539131790245138,0.10833905546654421,0.062195773250934394,0.9562523842221715
1539131790261119,0.11285572594796633,0.06073090714885154,0.9538109407187001
1539131790277100,0.11407644769970204,0.06207370107576082,0.9494163424124515
1539131790293081,0.11627374685282632,0.06195162890058725,0.9525902189669644
1539131790309063,0.11407644769970204,0.05877775234607441,0.9571068894483865
1539131790325044,0.11102464332036277,0.05926604104676869,0.9687037460898758
1539131790341025,0.11529716945143775,0.07086289768825793,0.96919203479057
1539131790357006,0.11810482948042988,0.09100480659189714,0.9525902189669644
1539131790372987,0.12103456168459559,0.11053635461966849,0.9375753414206152
1539131790388969,0.1146868085755699,0.11700617990386775,0.9333028152895402
1539131790404950,0.10553139543755208,0.10772869459067635,0.9389181353475244
1539131790420931,0.09259174486915356,0.08844129091325215,0.9516136415655758
1539131790436912,0.08197146562905289,0.07782101167315147,0.9596704051270315
1539131790452893,0.08172732127870574,0.08245975432974717,0.9564965285725187
1539131790468875,0.07733272297245719,0.08953994048981428,0.9499046311131458
1539131790484856,0.0764782177462422,0.09857328145265853,0.9489280537117573
1539131790500824,0.0802624551766229,0.09967193102922067,0.955275806820783
1539131790516805,0.08783093003738429,0.09185931181811213,0.9562523842221715
1539131790532786,0.09320210574502141,0.08087281605249075,0.9574731059739072
1539131790548767,0.1004043640802621,0.0794079499504079,0.96406500343328
1539131790564748,0.10382238498512208,0.08038452735179646,0.9671168078126193
1539131790580730,0.11200122072175134,0.08563363088426001,0.9585717555504694
1539131790596711,0.11456473640039633,0.0974746318760964,0.9459983215075916
1539131790612692,0.10894941634241206,0.10357824063477494,0.9451438162813766
1539131790628673,0.1100480659189742,0.09600976577401354,0.9457541771572444
1539131790644654,0.10455481803616351,0.08197146562905289,0.9517357137407494
1539131790660636,0.10211337453269209,0.07867551689936647,0.9495384145876251
1539131790676617,0.10492103456168422,0.08868543526359929,0.9397726405737394
1539131790692598,0.09991607537956781,0.10492103456168422,0.9409933623254751
1539131790708579,0.09039444571602928,0.11895933470664488,0.9551537346456094
1539131790724560,0.08734264133669001,0.11078049897001563,0.9599145494773786
1539131790740542,0.08514534218356573,0.0936903944457157,0.9682154573891815
1539131790756523,0.09027237354085571,0.0919813839932857,0.9745632104982072
1539131790772504,0.0844129091325243,0.09808499275196425,0.98115510795758
1539131790788485,0.09320210574502141,0.10284580758373352,0.9685816739147022
1539131790804466,0.08917372396429357,0.10223544670786566,0.9676050965133136
1539131790820434,0.09308003356984784,0.11224536507209848,0.9650415808346686
1539131790836415,0.09466697184710426,0.12835889219501073,0.9389181353475244
1539131790852397,0.09100480659189714,0.135683222705425,0.9337911039902345
1539131790868378,0.09185931181811213,0.12384222171358772,0.9502708476386665
1539131790884359,0.1062638284885935,0.1129777981231399,0.9497825589379723
1539131790900340,0.11346608682383419,0.11810482948042988,0.9303730830853745
1539131790916321,0.10431067368581637,0.13324177920195357,0.9188982986190588
1539131790932303,0.09759670405126997,0.15057602807660064,0.930495155260548
1539131790948284,0.08282597085526788,0.15057602807660064,0.9662623025864043
1539131790964265,0.08941786831464071,0.13763637750820212,0.9809109636072328
1539131790980246,0.10431067368581637,0.1410543984130621,0.9645532921339743
1539131790996227,0.10467689021133708,0.15338368810559277,0.939040207522698
1539131791012209,0.09259174486915356,0.17828641184100125,0.944167238879988
1539131791028190,0.08331425955596217,0.18170443274586123,0.9542992294193944
1539131791044171,0.08844129091325215,0.16144045166704846,0.949294270237278
1539131791060152,0.09918364232852639,0.15167467765316278,0.9264667734798202
1539131791076133,0.09246967269397999,0.16485847257190844,0.9185320820935381
1539131791092115,0.0814831769283586,0.18316929884794408,0.9315938048371102
1539131791108096,0.08636606393530144,0.18109407186999338,0.934767681391623
1539131791124077,0.09649805447470783,0.1541161211566342,0.9237811856260016
1539131791140045,0.10003814755474139,0.13702601663233427,0.9352559700923173
1539131791156026,0.09832913710231139,0.14093232623788854,0.9564965285725187
1539131791172007,0.09039444571602928,0.15191882200350992,0.9549095902952622
1539131791187988,0.07843137254901933,0.167544060425727,0.9513694972152287
1539131791203970,0.0739147020675972,0.18158236057068766,0.947585259784848
1539131791219951,0.06744487678339794,0.19293507286182976,0.9448996719310294
1539131791235932,0.06878767071030722,0.21173418783855968,0.9472190432593273
1539131791251913,0.07843137254901933,0.22528419928282606,0.939894712748913
1539131791267894,0.09442282749675712,0.22442969405661106,0.9206073090714888
1539131791283876,0.10382238498512208,0.21869230182345323,0.9197528038452738
1539131791299857,0.11139085984588348,0.2167391470206761,0.9329365987640195
1539131791315838,0.10138094148165067,0.2100251773861297,0.940749217975128
1539131791331819,0.08880750743877286,0.20025940337224402,0.9405050736247809
1539131791347800,0.09893949797817925,0.1961089494163426,0.9333028152895402
1539131791363782,0.1024795910582128,0.19293507286182976,0.9435568780041201
1539131791379763,0.09564354924849283,0.19562066071564832,0.9447775997558558
1539131791395744,0.09173723964293856,0.19684138246738403,0.9412375066758223
1539131791411725,0.08477912565804502,0.19708552681773117,0.9469748989089801
1539131791427706,0.08807507438773143,0.1957427328908219,0.9394064240482187
1539131791443688,0.09039444571602928,0.19476615548943332,0.9319600213626309
1539131791459655,0.08722056916151644,0.20550850690470757,0.9337911039902345
1539131791475637,0.08282597085526788,0.20648508430609613,0.9311055161364159
1539131791491618,0.07623407339589505,0.20062561989776473,0.9334248874647137
1539131791507599,0.07501335164415934,0.1961089494163426,0.939040207522698
1539131791523580,0.06939803158617508,0.1961089494163426,0.9434348058289466
1539131791539561,0.0680552376592658,0.204531929503319,0.9448996719310294
1539131791555543,0.07049668116273722,0.20929274433508827,0.9386739909971773
1539131791571524,0.07867551689936647,0.21197833218890683,0.9408712901503016
1539131791587505,0.08136110475318503,0.20904859998474112,0.939040207522698
1539131791603486,0.08355840390630931,0.19708552681773117,0.9412375066758223
1539131791619467,0.08538948653391287,0.19098191805905262,0.9418478675516901
1539131791635449,0.09112687876707071,0.18915083543144906,0.9369649805447473
1539131791651430,0.08709849698634287,0.18963912413214334,0.9376974135957887
1539131791667411,0.09112687876707071,0.19391165026321833,0.9372091248950944
1539131791683392,0.09344625009536855,0.201968413824674,0.9274433508812088
1539131791699373,0.08184939345387932,0.19537651636530118,0.9383077744716566
1539131791715355,0.07879758907454004,0.18793011367971335,0.9470969710841537
1539131791731336,0.07867551689936647,0.1826810101472498,0.9538109407187001
1539131791747317,0.07696650644693648,0.18365758754863837,0.9560082398718244
1539131791763298,0.08172732127870574,0.18548867017624193,0.9409933623254751
1539131791779266,0.0785534447241929,0.19415579461356547,0.9246356908522166
1539131791795247,0.07611200122072148,0.20428778515297186,0.9229266803997866
1539131791811228,0.06964217593652222,0.20294499122606258,0.9462424658579387
1539131791827210,0.06683451590753009,0.18976119630731692,0.9538109407187001
1539131791843191,0.0689097428854808,0.18329137102311766,0.9385519188220037
1539131791859172,0.07232776379034078,0.19342336156252404,0.9374532692454416
1539131791875153,0.06988632028686936,0.202822919050889,0.9387960631723509
1539131791891134,0.07171740291447293,0.19855039291981402,0.9423361562523844
1539131791907116,0.0794079499504079,0.18780804150453978,0.9400167849240866
1539131791923097,0.08380254825665645,0.18670939192797764,0.9367208361944002
1539131791939078,0.08184939345387932,0.19366750591287119,0.9402609292744337
1539131791955059,0.0802624551766229,0.1981841763942933,0.945876249332418
1539131791971040,0.0806286717021436,0.19391165026321833,0.9456321049820708
1539131791987022,0.07977416647592861,0.1914702067597469,0.9419699397268637
1539131792003003,0.08270389868009431,0.19183642328526762,0.9386739909971773
1539131792018984,0.0806286717021436,0.1998931868467233,0.9425803006027316
1539131792034965,0.07550164034485363,0.2016021972991533,0.9423361562523844
1539131792050946,0.07550164034485363,0.19415579461356547,0.945021744106203
1539131792066928,0.0747692072938122,0.18207064927138195,0.941603723201343
1539131792082909,0.07489127946898577,0.1680323491264213,0.9427023727779051
1539131792098877,0.08099488822766432,0.169253070878157,0.9391622796978716
1539131792114858,0.0831921873807886,0.17462424658579412,0.9318379491874573
1539131792130839,0.08856336308842572,0.1696192874036777,0.9345235370412759
1539131792146820,0.08709849698634287,0.15692378118562633,0.9469748989089801
1539131792162801,0.08258182650492074,0.1386129549095907,0.9574731059739072
1539131792178783,0.07745479514763076,0.1401998931868471,0.9624780651560236
1539131792194764,0.07293812466620864,0.15643549248493205,0.9593041886015108
1539131792210745,0.07208361943999364,0.17022964827954556,0.9481956206607158
1539131792226726,0.0756237125200272,0.16949721522850414,0.947585259784848
1539131792242707,0.08429083695735073,0.15301747158007206,0.9511253528648815
1539131792258689,0.09039444571602928,0.13373006790264785,0.9539330128938737
1539131792274670,0.089906157015335,0.12909132524605216,0.9540550850690472
1539131792290651,0.09222552834363285,0.1398336766613264,0.9436789501792937
1539131792306632,0.08807507438773143,0.15521477073319634,0.9374532692454416
1539131792322613,0.0814831769283586,0.15899900816357704,0.933913176165408
1539131792338595,0.07452506294346506,0.15765621423666776,0.9395284962233923
1539131792354576,0.07110704203860507,0.1544823376821549,0.9430685893034259
1539131792370557,0.06939803158617508,0.15216296635385707,0.9486839093614101
1539131792386538,0.06500343327992653,0.1541161211566342,0.9495384145876251
1539131792402519,0.06878767071030722,0.15741206988632062,0.9439230945296408
1539131792418487,0.06988632028686936,0.15460440985732848,0.9419699397268637
1539131792434468,0.06939803158617508,0.1520408941786835,0.9502708476386665
1539131792450449,0.06939803158617508,0.1477683680476085,0.9600366216525522
1539131792466429,0.06817730983443937,0.14728007934691423,0.9588158999008165
1539131792482410,0.08307011520561502,0.14886701762417065,0.9434348058289466
1539131792498391,0.08624399176012787,0.15362783245593992,0.9358663309681852
1539131792514371,0.09552147707331926,0.15423819333180777,0.9357442587930116
1539131792530352,0.09918364232852639,0.14630350194552566,0.9341573205157552
1539131792546333,0.09417868314640998,0.13446250095368928,0.9412375066758223
1539131792562314,0.08844129091325215,0.13153276874952358,0.9529564354924851
1539131792578294,0.08563363088426001,0.12701609826810145,0.9590600442511636
1539131792594275,0.08343633173113574,0.12664988174258074,0.9562523842221715
1539131792610256,0.07501335164415934,0.13324177920195357,0.9611352712291144
1539131792626237,0.07843137254901933,0.1369039444571607,0.9567406729228658
1539131792642217,0.07440299076829149,0.13653772793163999,0.9539330128938737
1539131792658198,0.07342641336690292,0.13873502708476426,0.9575951781490808
1539131792674179,0.08270389868009431,0.13263141832608571,0.9494163424124515
1539131792690159,0.08014038300144932,0.13275349050125929,0.9401388570992602
1539131792706140,0.07415884641794435,0.12481879911497629,0.9488059815365837
1539131792722121,0.07879758907454004,0.12188906691081058,0.951857785915923
1539131792738098,0.07708857862211005,0.1193255512321656,0.9491721980621044
1539131792754078,0.07965209430075504,0.11981383993285988,0.9497825589379723
1539131792770059,0.0823376821545736,0.12457465476462914,0.9533226520180058
1539131792786040,0.08624399176012787,0.1289692530708786,0.9540550850690472
1539131792802021,0.08905165178912,0.13275349050125929,0.9558861676966508
1539131792818001,0.09112687876707071,0.12799267566949002,0.9514915693904022
1539131792833982,0.09552147707331926,0.11700617990386775,0.9430685893034259
1539131792849963,0.09308003356984784,0.10272373540855995,0.948439765011063
1539131792865944,0.09063859006637642,0.09613183794918712,0.9604028381780729
1539131792881924,0.08661020828564858,0.09808499275196425,0.9618677042801558
1539131792897905,0.08429083695735073,0.10479896238651065,0.9567406729228658
1539131792913886,0.08392462043183002,0.11248950942244562,0.9478294041351951
1539131792929866,0.08429083695735073,0.12030212863355416,0.9444113832303351
1539131792945847,0.08136110475318503,0.12713817044327502,0.9446555275806823
1539131792961828,0.07904173342488718,0.12408636606393486,0.9456321049820708
1539131792977809,0.07989623865110218,0.11712825207904132,0.9534447241931794
1539131792993789,0.08038452735179646,0.11493095292591704,0.9571068894483865
1539131793009770,0.07916380560006075,0.1184710460059506,0.9593041886015108
1539131793025751,0.08416876478217716,0.12445258258945557,0.9545433737697415
1539131793041731,0.08307011520561502,0.12335393301289344,0.9553978789959565
1539131793057708,0.08416876478217716,0.11627374685282632,0.9623559929808501
1539131793073689,0.08355840390630931,0.11273365377279276,0.9580834668497751
1539131793089670,0.08673228046082215,0.11627374685282632,0.9557640955214772
1539131793105651,0.08953994048981428,0.12164492256046344,0.9461203936827651
1539131793121631,0.08709849698634287,0.12799267566949002,0.9442893110551616
1539131793137612,0.08758678568703715,0.1255512321660186,0.9464866102082858
1539131793153593,0.08929579613946714,0.12469672693980272,0.9506370641641873
1539131793169573,0.08575570305943359,0.1205462729839013,0.9618677042801558
1539131793185554,0.09149309529259142,0.11358815899900776,0.9586938277256429
1539131793201535,0.09698634317540211,0.11151293202105705,0.9418478675516901
1539131793217516,0.10516517891203137,0.11700617990386775,0.9355001144426645
1539131793233496,0.10492103456168422,0.1138323033493549,0.9292744335088123
1539131793249477,0.09478904402227784,0.10748455024032921,0.937331197070268
1539131793265458,0.0831921873807886,0.11261158159761919,0.9461203936827651
1539131793281438,0.07489127946898577,0.11639581902799989,0.9499046311131458
1539131793297419,0.06561379415579438,0.10687418936446136,0.9568627450980394
1539131793313400,0.06146334019989297,0.08392462043183002,0.9761501487754636
1539131793329381,0.0726939803158615,0.07257190814068792,0.9733424887464714
1539131793345361,0.08758678568703715,0.08392462043183002,0.9612573434042879
1539131793361342,0.08831921873807858,0.11566338597695847,0.9521019302662701
1539131793377319,0.08831921873807858,0.13409628442816857,0.9473411154345008
1539131793393300,0.08758678568703715,0.13360799572747428,0.9439230945296408
1539131793409280,0.0844129091325243,0.11920347905699202,0.951003280689708
1539131793425261,0.08758678568703715,0.10614175631341993,0.9595483329518579
1539131793441242,0.08844129091325215,0.10199130235751852,0.9542992294193944
1539131793457223,0.08514534218356573,0.11407644769970204,0.9431906614785994
1539131793473203,0.08624399176012787,0.12860303654535787,0.938185702296483
1539131793489184,0.08209353780422646,0.130556191348135,0.9378194857709623
1539131793505165,0.0785534447241929,0.12420843823910843,0.9500267032883194
1539131793521145,0.07953002212558147,0.11029221026932134,0.9542992294193944
1539131793537126,0.08099488822766432,0.09967193102922067,0.954421301594568
1539131793553107,0.08050659952697004,0.09674219882505497,0.9591821164263372
1539131793569088,0.0831921873807886,0.10833905546654421,0.9568627450980394
1539131793585068,0.07794308384832505,0.11993591210803345,0.9568627450980394
1539131793601049,0.07733272297245719,0.12066834515907487,0.9494163424124515
1539131793617030,0.0776989394979779,0.11053635461966849,0.9486839093614101
1539131793633010,0.08075074387731718,0.09808499275196425,0.9542992294193944
1539131793648991,0.0852674143587393,0.09613183794918712,0.9525902189669644
1539131793664972,0.09063859006637642,0.10064850843060924,0.9387960631723509
1539131793680953,0.09015030136568214,0.10736247806515564,0.9367208361944002
1539131793696930,0.08978408484016143,0.11139085984588348,0.943312733653773
1539131793712910,0.08502327000839216,0.10748455024032921,0.948439765011063
1539131793728891,0.08172732127870574,0.10308995193408066,0.953566796368353
1539131793744872,0.08099488822766432,0.11187914854657777,0.9599145494773786
1539131793760852,0.08099488822766432,0.11810482948042988,0.9643091477836272
1539131793776833,0.08245975432974717,0.124330510414282,0.9643091477836272
1539131793792814,0.08538948653391287,0.12372014953841415,0.9688258182650493
1539131793808795,0.08429083695735073,0.11725032425421489,0.9669947356374458
1539131793824775,0.07830930037384576,0.1100480659189742,0.9651636530098422
1539131793840756,0.0776989394979779,0.11041428244449492,0.9633325703822386
1539131793856737,0.07782101167315147,0.11212329289692491,0.9521019302662701
1539131793872717,0.07525749599450648,0.11224536507209848,0.944167238879988
1539131793888698,0.07818722819867219,0.10833905546654421,0.9385519188220037
1539131793904679,0.07708857862211005,0.10809491111619707,0.9430685893034259
1539131793920660,0.07684443427176291,0.10382238498512208,0.9470969710841537
1539131793936640,0.07489127946898577,0.10211337453269209,0.9429465171282523
1539131793952621,0.05999847409781012,0.10846112764171778,0.9539330128938737
1539131793968602,0.05035477225909801,0.10870527199206492,0.9621118486305029
1539131793984583,0.06353856717784367,0.10101472495612995,0.9652857251850158
1539131794000563,0.08490119783321859,0.0995498588540471,0.9672388799877929
1539131794016540,0.10199130235751852,0.10614175631341993,0.964919508659495
1539131794032521,0.12274357213702558,0.11505302510109061,0.9483176928358894
1539131794048502,0.12603952086671288,0.1272602426184486,0.9469748989089801
1539131794064482,0.12372014953841415,0.1334859235523007,0.941603723201343
1539131794080463,0.10894941634241206,0.133974212252995,0.9412375066758223
1539131794096444,0.08880750743877286,0.12872510872053144,0.9422140840772109
1539131794112424,0.07452506294346506,0.12274357213702558,0.9505149919890137
1539131794128405,0.06439307240405867,0.11908140688181845,0.9508812085145344
1539131794144386,0.06549172198062081,0.12005798428320702,0.9507591363393608
1539131794160367,0.07379262989242363,0.12274357213702558,0.949294270237278
1539131794176347,0.0844129091325243,0.12994583047226715,0.9438010223544673
1539131794192328,0.0919813839932857,0.13482871747921,0.944167238879988
1539131794208309,0.09857328145265853,0.12872510872053144,0.948439765011063
1539131794224290,0.10199130235751852,0.1222552834363313,0.9539330128938737
1539131794240270,0.10724040588998207,0.11786068513008274,0.9541771572442208
1539131794256251,0.10357824063477494,0.12274357213702558,0.9550316624704358
1539131794272232,0.0936903944457157,0.1272602426184486,0.951003280689708
1539131794288212,0.09039444571602928,0.12835889219501073,0.9523460746166172
1539131794304193,0.08709849698634287,0.12042420080872773,0.9551537346456094
1539131794320174,0.08734264133669001,0.11444266422522276,0.9551537346456094
1539131794336151,0.09185931181811213,0.11578545815213204,0.9511253528648815
1539131794352131,0.09039444571602928,0.12030212863355416,0.9428244449530787
1539131794368112,0.08636606393530144,0.1281147478446636,0.9429465171282523
1539131794384093,0.09161516746776499,0.13482871747921,0.9413595788509959
1539131794400074,0.09185931181811213,0.1281147478446636,0.9430685893034259
1539131794416054,0.09466697184710426,0.11432059205004919,0.9521019302662701
1539131794432035,0.10077058060578281,0.11078049897001563,0.9580834668497751
1539131794448016,0.10858319981689135,0.11517509727626418,0.9502708476386665
1539131794463997,0.10785076676584993,0.1264057373922336,0.9326924544136723
1539131794479977,0.09893949797817925,0.13751430533302855,0.9358663309681852
1539131794495958,0.09149309529259142,0.13360799572747428,0.9469748989089801
1539131794511939,0.08380254825665645,0.11566338597695847,0.9632104982070651
1539131794527919,0.08490119783321859,0.10479896238651065,0.9668726634622722
1539131794543900,0.09088273441672357,0.11444266422522276,0.9553978789959565
1539131794559881,0.09637598229953426,0.13360799572747428,0.9395284962233923
1539131794575862,0.09515526054779855,0.13922331578545855,0.942458228427558
1539131794591842,0.08978408484016143,0.13128862439917643,0.9611352712291144
1539131794607823,0.09161516746776499,0.11358815899900776,0.978591592278935
1539131794623804,0.10150301365682424,0.10760662241550278,0.9618677042801558
1539131794639784,0.11114671549553634,0.12384222171358772,0.9365987640192266
1539131794655761,0.11541924162661132,0.1423971923399714,0.9257343404287788
1539131794671742,0.10943770504310635,0.14300755321583924,0.937331197070268
1539131794687723,0.10235751888303923,0.12445258258945557,0.9469748989089801
1539131794703704,0.09112687876707071,0.1109025711451892,0.9599145494773786
1539131794719684,0.09100480659189714,0.11859311818112417,0.9612573434042879
1539131794735665,0.09027237354085571,0.132265201800565,0.9422140840772109
1539131794751646,0.10089265278095638,0.14251926451514496,0.9341573205157552
1539131794767626,0.10174715800717138,0.1415426871137564,0.937331197070268
1539131794783607,0.09771877622644354,0.13031204699778787,0.9489280537117573
1539131794799588,0.09076066224155,0.12042420080872773,0.9622339208056765
1539131794815569,0.08892957961394643,0.11737239642938846,0.9696803234912643
1539131794831549,0.09564354924849283,0.11859311818112417,0.9561303120469979
1539131794847530,0.1024795910582128,0.1284809643701843,0.9397726405737394
1539131794863511,0.1041886015106428,0.1343404287785157,0.9400167849240866
1539131794879491,0.10174715800717138,0.13299763485160643,0.9477073319600215
1539131794895472,0.10235751888303923,0.12750438696879574,0.9624780651560236
1539131794911453,0.09686427100022854,0.11639581902799989,0.9599145494773786
1539131794927434,0.09600976577401354,0.1214007782101163,0.9534447241931794
1539131794943414,0.09137102311741785,0.132265201800565,0.9512474250400551
1539131794959395,0.042908369573510186,0.15094224460212136,0.9937285420004578
1539131794975341,0.018249790188448856,0.19684138246738403,1.0288853284504462
1539131794991322,0.029480430304417382,0.19794003204394617,1.0475623712520026
1539131795007303,0.0327763790341038,0.16620126649881772,1.1480277714198523
1539131795023284,0.06207370107576082,0.10431067368581637,1.3543297474631872
1539131795039264,0.16900892652780986,0.016906996261539575,1.6741588464179449
1539131795055245,0.2377355611505303,-0.05780117494468584,2.0232852674143587
1539131795071226,0.27789730678263513,0.04779125658045302,2.1138628213931483
1539131795087206,0.28168154421301583,0.030823224231326662,2.072724498359655
1539131795103187,0.2833905546654458,-0.02264438849469741,1.850797283894102
1539131795119168,0.23212024109254603,-0.02667277027542525,1.4843366140230412
1539131795135149,0.1721828030823227,-0.07525749599450693,1.0987106126497288
1539131795151129,0.07745479514763076,-0.06927595941100195,0.7489738307774472
1539131795167110,0.03167772945754166,-0.034973678187228074,0.47809567406729236
1539131795183091,-0.0613412680247194,0.002868696116578917,0.3335622186617835
1539131795199072,-0.09771877622644398,0.06536964980544724,0.23358510719462888
1539131795215052,-0.16412603952086657,0.09210345616845927,0.1830472266727705
1539131795231033,-0.22833600366216533,0.11590753032730561,0.13702601663233427
1539131795247014,-0.28583199816891725,0.13153276874952358,0.10931563286793278
1539131795262994,-0.3098802166781107,0.11981383993285988,0.10101472495612995
1539131795278975,-0.30170138094148147,0.14044403753719426,0.0680552376592658
1539131795294983,-0.30768291752498644,0.08868543526359929,0.10601968413824636
1539131795310963,-0.31183337148088786,0.07684443427176291,0.14581521324483138
1539131795326944,-0.2473792629892424,0.06976424811169579,0.16644541084916487
1539131795342925,-0.19757381551842546,0.04876783398184159,0.16107423514152774
1539131795358905,-0.12542915999084459,0.018371862363622427,0.07367055771725006
1539131795374886,-0.056946669718470844,-0.024719615472648115,-0.07293812466620908
1539131795390867,-1.831082627603564E-4,-0.07476920729381265,-0.24542610818646526
1539131795406848,0.017883573662928143,-0.10247959105821325,-0.356878004119936
1539131795422828,0.21185626001373326,-0.041565575646600905,-0.4530708781567103
1539131795438809,0.42682536049439257,0.018249790188448856,-0.4566109712367439
1539131795454790,0.6735332265201803,0.10663004501411422,-0.2848554207675287
1539131795470770,0.7954833295185777,0.3209887846189057,0.2461585412375067
1539131795486751,2.1851529716945146,-0.5121538109407187,4.0
1539131795502732,-0.8386968795300223,3.136949721522851,4.0
1539131795518713,-0.3681086442359045,1.5231555657282367,1.0569619287403675
1539131795534693,0.047913328755626594,0.7388418402380408,0.7600823987182421
1539131795550674,0.008972304875257464,0.9289082169832916,0.7392080567635615
1539131795566655,0.12787060349431645,0.8369878690775918,1.010452429999237
1539131795582636,0.20758373388265827,0.7420157167925536,1.2148012512397957
1539131795598616,0.1943999389639126,0.6370336461432826,1.2928053711757075
1539131795614593,0.20257877470054186,0.5160601205462729,1.2307927061875334
1539131795630574,0.18988326848249049,0.3797055008773942,1.078446631570916
1539131795646555,0.1259174486915393,0.25604638742656594,0.8802014190890368
1539131795662535,0.03424124513618665,0.15863279163805633,0.6627908751049061
1539131795678516,-0.04962233920805659,0.09039444571602928,0.5025101091020066
1539131795694497,-0.10821698329137108,0.039124132143129486,0.3804379339284356
1539131795710477,-0.13141069657434956,-0.0014038300144960658,0.31024643320363143
1539131795726458,-0.14947737850003806,-0.007751583123521755,0.3212329289692528
1539131795742439,-0.13727016098268097,0.012146181429770309,0.3985046158541241
1539131795758420,-0.08429083695735118,0.0659800106813151,0.5126420996414129
1539131795774400,-0.050720988784618726,0.10284580758373352,0.6333714808880755
1539131795790381,-0.03216601815823594,0.12420843823910843,0.7312733653772794
1539131795806362,-0.027038986800945963,0.14630350194552566,0.8208743419546805
1539131795822342,-0.01873807888914314,0.19720759899290474,0.9082780193789581
1539131795838323,-0.012878614480811734,0.2528725108720531,0.9965362020294499
1539131795854304,0.013244831006332447,0.28241397726405726,1.048294804303044
1539131795870285,0.028381780727855244,0.2947432669565879,1.0520790417334247
1539131795886265,0.01483176928358887,0.2923018234531165,1.0445105668726633
1539131795902246,-0.005065995269703194,0.3251392385748071,1.0489051651789119
1539131795918227,0.008117799649042468,0.3440604257267106,1.0487830930037383
1539131795934204,0.03350881208514522,0.34210727092393345,1.039505607690547
1539131795950184,0.032410162508583085,0.3217212176699471,1.0163118944075684
1539131795966165,0.019348439765010994,0.29633020523384435,0.9955596246280614
1539131795982146,0.016540779736018862,0.2842450598916608,0.9730983443961243
1539131795998127,0.024475471122300974,0.27240405889982444,0.9557640955214772
1539131796014107,0.02398718242160669,0.2670328831921873,0.947585259784848
1539131796030088,0.03155565728236809,0.2523842221713588,0.928786144808118
1539131796046069,0.03350881208514522,0.2310215915159839,0.9188982986190588
1539131796062049,0.03033493553063238,0.2179598687724118,0.9273212787060352
1539131796078030,0.04083314259555948,0.21490806439307253,0.9368429083695737
1539131796094011,0.05926604104676869,0.20672922865644328,0.9363546196688795
1539131796109992,0.05389486533913157,0.20086976424811187,0.9207293812466624
1539131796125972,0.03851377126726163,0.1969634546425576,0.913160906385901
1539131796141953,0.03582818341344307,0.20636301213092256,0.912306401159686
1539131796157934,0.048035400930800165,0.2138094148165104,0.9213397421225302
1539131796173915,0.05389486533913157,0.2234531166552225,0.9301289387350273
1539131796189895,0.053284504463263715,0.22796978713664462,0.9324483100633252
1539131796205876,0.04730296787975874,0.2296787975890746,0.9333028152895402
1539131796221857,0.047913328755626594,0.2339513237201496,0.9386739909971773
1539131796237837,0.05914396887159512,0.23578240634775316,0.947585259784848
1539131796253814,0.06744487678339794,0.23627069504844744,0.9553978789959565
1539131796269795,0.07708857862211005,0.23993286030365457,0.9514915693904022
1539131796285776,0.07440299076829149,0.24127565423056385,0.9419699397268637
1539131796301756,0.05865568017090084,0.23590447852292673,0.9431906614785994
1539131796317737,0.06378271152819082,0.22235446707866036,0.9429465171282523
1539131796333718,0.07525749599450648,0.21136797131303897,0.933058670939193
1539131796349699,0.07403677424277078,0.19916075379568188,0.929640650034333
1539131796365679,0.07159533073929936,0.2066071564812697,0.9253681239032581
1539131796381660,0.07672236209658934,0.20941481651026184,0.9231708247501338
1539131796397641,0.08087281605249075,0.21844815747310609,0.9262226291294731
1539131796413622,0.07721065079728362,0.22772564278629748,0.9405050736247809
1539131796429602,0.08770885786221072,0.2427405203326467,0.9474631876096744
1539131796445583,0.07696650644693648,0.2645914396887159,1.0617227435721368
1539131796461564,0.05792324711985941,0.2647135118638895,1.181719691767758
1539131796477544,0.041443503471427334,0.21698329137102323,1.022659647516594
1539131796493525,0.03729304951552592,0.24005493247882814,0.882154573891814
1539131796509506,0.057068741893644415,0.23553826199740602,0.8700694285496295
1539131796525487,0.06915388723582794,0.23553826199740602,0.8773937590600447
1539131796541467,0.08661020828564858,0.22369726100556964,0.9109636072327767
1539131796557448,0.09051651789120285,0.17084000915541342,0.9707789730678265
1539131796573425,0.08075074387731718,0.14178683146410354,1.0020294499122606
1539131796589406,0.0823376821545736,0.14837872892347637,0.9669947356374458
1539131796605386,0.0928358892195007,0.16852063782711557,0.9152361333638517
1539131796621367,0.09015030136568214,0.1809719996948198,0.8852063782711532
1539131796637348,0.09417868314640998,0.19342336156252404,0.898634317540246
1539131796653329,0.09857328145265853,0.20941481651026184,0.9479514763103687
1539131796669309,0.09930571450369996,0.2083161669336997,0.9813992523079271
1539131796685290,0.10345616845960137,0.17914091706721624,0.9616235599298086
1539131796701271,0.10638590066376707,0.17730983443961268,0.9303730830853745
1539131796717251,0.09991607537956781,0.18793011367971335,0.9223163195239188
1539131796733232,0.0945448996719307,0.2057526512550547,0.9422140840772109
1539131796749213,0.09320210574502141,0.21026932173647683,0.9613794155794615
1539131796765194,0.09723048752574925,0.19208056763561476,0.9497825589379723
1539131796781174,0.09674219882505497,0.16693369954985915,0.933913176165408
1539131796797155,0.09442282749675712,0.14471656366826924,0.9353780422674909
1539131796813136,0.09417868314640998,0.15130846112764207,0.9446555275806823
1539131796829116,0.09100480659189714,0.1680323491264213,0.9472190432593273
1539131796845097,0.0823376821545736,0.18072785534447267,0.9477073319600215
1539131796861078,0.08294804303044145,0.18036163881895195,0.9429465171282523
1539131796877059,0.08722056916151644,0.167544060425727,0.9444113832303351
1539131796893036,0.08624399176012787,0.16009765774013918,0.947585259784848
1539131796909016,0.08368047608148288,0.15460440985732848,0.953566796368353
1539131796924997,0.08343633173113574,0.1642481116960406,0.9524681467917908
1539131796940978,0.0814831769283586,0.16058594644083346,0.9551537346456094
1539131796956958,0.08856336308842572,0.15484855420767563,0.9497825589379723
1539131796972939,0.08465705348287145,0.1582665751125356,0.9506370641641873
1539131796988920,0.09076066224155,0.16070801861600703,0.9448996719310294
1539131797004901,0.09381246662088927,0.15777828641184133,0.9365987640192266
1539131797020881,0.09124895094224428,0.1528953994048985,0.9361104753185323
1539131797036862,0.08844129091325215,0.1465476462958728,0.9457541771572444
1539131797052843,0.08685435263599572,0.13873502708476426,0.9563744563973451
1539131797068823,0.09100480659189714,0.14215304798962425,0.945021744106203
1539131797084804,0.08966201266498786,0.15692378118562633,0.9374532692454416
1539131797100785,0.09393453879606284,0.17071793698023985,0.9401388570992602
1539131797116766,0.09015030136568214,0.17169451438162842,0.9459983215075916
1539131797132746,0.09185931181811213,0.1561913481345849,0.9486839093614101
1539131797148727,0.09564354924849283,0.14129854276340925,0.9506370641641873
1539131797164708,0.09723048752574925,0.1436179140917071,0.9497825589379723
1539131797180688,0.09442282749675712,0.1553368429083699,0.9464866102082858
1539131797196669,0.09393453879606284,0.1616845960173956,0.9392843518730452
1539131797212646,0.08880750743877286,0.15802243076218847,0.939894712748913
1539131797228627,0.0861219195849543,0.14435034714274853,0.950148775463493
1539131797244608,0.08624399176012787,0.1389791714351114,0.9550316624704358
1539131797260588,0.08880750743877286,0.15008773937590636,0.9445334554055087
1539131797276569,0.08905165178912,0.15802243076218847,0.9368429083695737
1539131797292550,0.08941786831464071,0.14972152285038565,0.9420920119020373
1539131797308530,0.08538948653391287,0.14520485236896352,0.9530785076676587
1539131797324511,0.08368047608148288,0.14544899671931066,0.9555199511711301
1539131797340492,0.0852674143587393,0.1511863889524685,0.9512474250400551
1539131797356473,0.0861219195849543,0.14898908979934422,0.946730754558633
1539131797372453,0.0928358892195007,0.14715800717174066,0.9413595788509959
1539131797388434,0.09002822919050857,0.15143053330281564,0.9418478675516901
1539131797404415,0.08941786831464071,0.1541161211566342,0.9497825589379723
1539131797420395,0.08709849698634287,0.14691386282139351,0.9521019302662701
1539131797436376,0.089906157015335,0.1423971923399714,0.9472190432593273
1539131797452357,0.09442282749675712,0.14032196536202068,0.945876249332418
1539131797468338,0.09771877622644354,0.1439841306172278,0.9452658884565501
1539131797484318,0.09442282749675712,0.13995574883649997,0.9486839093614101
1539131797500299,0.09442282749675712,0.13873502708476426,0.9506370641641873
1539131797516280,0.089906157015335,0.1477683680476085,0.9563744563973451
1539131797532257,0.08685435263599572,0.1596093690394449,0.9608911268787672
1539131797548237,0.09063859006637642,0.15472648203250206,0.9505149919890137
1539131797564218,0.09417868314640998,0.13910124361028497,0.936476691844053
1539131797580199,0.08978408484016143,0.13092240787365572,0.9406271457999544
1539131797596180,0.088197146562905,0.13141069657435,0.9516136415655758
1539131797612160,0.0861219195849543,0.13592736705577213,0.9519798580910965
1539131797628141,0.08221560997940003,0.14288548104066567,0.9502708476386665
1539131797644122,0.08648813611047501,0.14874494544899708,0.9485618371862365
1539131797660102,0.08953994048981428,0.14251926451514496,0.9453879606317237
1539131797676083,0.09149309529259142,0.13324177920195357,0.9483176928358894
1539131797692064,0.09088273441672357,0.13299763485160643,0.9517357137407494
1539131797708045,0.09002822919050857,0.1381246662088964,0.9502708476386665
1539131797724025,0.08758678568703715,0.1524071107042042,0.9529564354924851
1539131797740006,0.08868543526359929,0.1520408941786835,0.9546654459449151
1539131797755987,0.09393453879606284,0.13482871747921,0.9479514763103687
1539131797771968,0.09771877622644354,0.12396429388876129,0.942458228427558
1539131797787948,0.09137102311741785,0.1284809643701843,0.9519798580910965
1539131797803929,0.08661020828564858,0.13910124361028497,0.9577172503242544
1539131797819910,0.08587777523460716,0.1444724193179221,0.9551537346456094
1539131797835890,0.0814831769283586,0.1436179140917071,0.9503929198138401
1539131797851867,0.07965209430075504,0.14349584191653353,0.9505149919890137
1539131797867848,0.0806286717021436,0.13849088273441712,0.9532005798428322
1539131797883829,0.08599984740978073,0.13238727397573857,0.944167238879988
1539131797899809,0.08575570305943359,0.13409628442816857,0.9469748989089801
1539131797915790,0.09063859006637642,0.13885709925993783,0.949294270237278
1539131797931771,0.09149309529259142,0.14178683146410354,0.9470969710841537
1539131797947752,0.08673228046082215,0.14471656366826924,0.9523460746166172
1539131797963732,0.09161516746776499,0.1432516975661864,0.9503929198138401
1539131797979713,0.09820706492713782,0.13849088273441712,0.9411154345006487
1539131797995694,0.09625391012436069,0.13836881055924355,0.9423361562523844
1539131798011675,0.09356832227054213,0.13800259403372284,0.951857785915923
1539131798027655,0.08661020828564858,0.13873502708476426,0.9529564354924851
1539131798043636,0.08380254825665645,0.14178683146410354,0.952712291142138
1539131798059617,0.08465705348287145,0.14312962539101282,0.9473411154345008
1539131798075597,0.09124895094224428,0.1448386358434428,0.9395284962233923
1539131798091578,0.09149309529259142,0.1423971923399714,0.9394064240482187
1539131798107559,0.09112687876707071,0.13141069657435,0.9435568780041201
1539131798123540,0.08661020828564858,0.12652780956740717,0.946730754558633
1539131798139520,0.0831921873807886,0.13482871747921,0.9485618371862365
1539131798155501,0.08307011520561502,0.14166475928892996,0.9508812085145344
1539131798171447,0.08392462043183002,0.13995574883649997,0.9494163424124515
1539131798187428,0.08502327000839216,0.13043411917296144,0.9480735484855423
1539131798203409,0.08490119783321859,0.12970168612192,0.9567406729228658
1539131798219390,0.08197146562905289,0.1264057373922336,0.9563744563973451
1539131798235370,0.08661020828564858,0.13299763485160643,0.9572289616235601
1539131798251351,0.08380254825665645,0.13922331578545855,0.9583276112001222
1539131798267332,0.08783093003738429,0.13800259403372284,0.9545433737697415
1539131798283312,0.0949111161974514,0.13458457312886285,0.9457541771572444
1539131798299293,0.09564354924849283,0.1293354695963993,0.943312733653773
1539131798315274,0.09161516746776499,0.1284809643701843,0.9469748989089801
1539131798331255,0.08648813611047501,0.12738231479362216,0.9496604867627987
1539131798347235,0.08343633173113574,0.1318989852750443,0.944167238879988
1539131798363216,0.08087281605249075,0.14081025406271497,0.945876249332418
1539131798379197,0.0806286717021436,0.14544899671931066,0.9439230945296408
1539131798395177,0.07830930037384576,0.1461814297703521,0.9491721980621044
1539131798411158,0.08282597085526788,0.1486228732738235,0.9496604867627987
1539131798427139,0.08099488822766432,0.1453269245441371,0.953566796368353
1539131798443120,0.0802624551766229,0.14227512016479782,0.9583276112001222
1539131798459100,0.08184939345387932,0.14422827496757495,0.9594262607766844
1539131798475081,0.08197146562905289,0.14422827496757495,0.9536888685435265
1539131798491088,0.08453498130769788,0.14386205844205424,0.9459983215075916
1539131798507069,0.08758678568703715,0.1372701609826814,0.9483176928358894
1539131798523050,0.08978408484016143,0.12872510872053144,0.9488059815365837
1539131798539031,0.09039444571602928,0.12982375829709358,0.9483176928358894
1539131798555011,0.089906157015335,0.13238727397573857,0.9446555275806823
1539131798570992,0.08587777523460716,0.13336385137712714,0.9513694972152287
1539131798586973,0.0831921873807886,0.13324177920195357,0.9495384145876251
1539131798602954,0.08087281605249075,0.13678187228198713,0.9466086823834594
1539131798618934,0.07537956816968006,0.13800259403372284,0.9486839093614101
1539131798634915,0.07782101167315147,0.1372701609826814,0.9533226520180058
1539131798650896,0.07660028992141577,0.13202105745021786,0.9584496833752958
1539131798666876,0.0802624551766229,0.12799267566949002,0.9547875181200887
1539131798682857,0.08575570305943359,0.1343404287785157,0.9480735484855423
1539131798698838,0.08844129091325215,0.14129854276340925,0.943312733653773
1539131798714819,0.088197146562905,0.13885709925993783,0.948439765011063
1539131798730799,0.08490119783321859,0.12701609826810145,0.9539330128938737
1539131798746780,0.08307011520561502,0.11859311818112417,0.9577172503242544
1539131798762761,0.08465705348287145,0.12420843823910843,0.9555199511711301
1539131798778741,0.08770885786221072,0.13836881055924355,0.9459983215075916
1539131798794722,0.09063859006637642,0.14972152285038565,0.9372091248950944
1539131798810699,0.08661020828564858,0.14972152285038565,0.9408712901503016
1539131798826680,0.07843137254901933,0.1401998931868471,0.9503929198138401
1539131798842661,0.07501335164415934,0.12701609826810145,0.9499046311131458
1539131798858641,0.07501335164415934,0.12579537651636574,0.9524681467917908
1539131798874622,0.07928587777523433,0.13263141832608571,0.9456321049820708
1539131798890603,0.08380254825665645,0.13934538796063212,0.9419699397268637
1539131798906583,0.08734264133669001,0.14264133669031853,0.9427023727779051
1539131798922564,0.08856336308842572,0.14007782101167354,0.9455100328068973
1539131798938545,0.08831921873807858,0.12909132524605216,0.9521019302662701
1539131798954526,0.08673228046082215,0.1264057373922336,0.9582055390249486
1539131798970506,0.08978408484016143,0.12884718089570502,0.9558861676966508
1539131798986487,0.08551155870908644,0.13031204699778787,0.9489280537117573
1539131799002468,0.08368047608148288,0.130556191348135,0.9546654459449151
1539131799018448,0.08075074387731718,0.13006790264744073,0.9567406729228658
1539131799034429,0.08160524910353217,0.13336385137712714,0.9507591363393608
1539131799050410,0.08355840390630931,0.13800259403372284,0.9514915693904022
1539131799066391,0.08294804303044145,0.13409628442816857,0.9521019302662701
1539131799082371,0.08453498130769788,0.12835889219501073,0.951857785915923
1539131799098352,0.08453498130769788,0.12750438696879574,0.9523460746166172
1539131799114333,0.08477912565804502,0.12945754177157287,0.9529564354924851
1539131799130310,0.08636606393530144,0.13409628442816857,0.9445334554055087
1539131799146290,0.08392462043183002,0.1410543984130621,0.9483176928358894
1539131799162271,0.08429083695735073,0.14300755321583924,0.952712291142138
1539131799178252,0.08075074387731718,0.14312962539101282,0.9505149919890137
1539131799194233,0.08453498130769788,0.14373998626688067,0.9473411154345008
1539131799210213,0.08465705348287145,0.14373998626688067,0.9506370641641873
1539131799226194,0.08587777523460716,0.14373998626688067,0.9491721980621044
1539131799242175,0.089906157015335,0.1461814297703521,0.9442893110551616
1539131799258155,0.08465705348287145,0.15094224460212136,0.9534447241931794
1539131799274136,0.08392462043183002,0.15020981155107993,0.9579613946746015
1539131799290117,0.08050659952697004,0.14288548104066567,0.9569848172732129
1539131799306098,0.07879758907454004,0.13836881055924355,0.9586938277256429
1539131799322078,0.07928587777523433,0.1318989852750443,0.9580834668497751
1539131799338059,0.08075074387731718,0.13006790264744073,0.9505149919890137
1539131799354040,0.0814831769283586,0.12872510872053144,0.9473411154345008
1539131799370020,0.08123903257801146,0.12664988174258074,0.9503929198138401
1539131799386001,0.08075074387731718,0.12335393301289344,0.948439765011063
1539131799401982,0.08184939345387932,0.1214007782101163,0.9417257953765166
1539131799417963,0.08404669260700359,0.12359807736324058,0.9368429083695737
1539131799433943,0.0831921873807886,0.12884718089570502,0.9379415579461359
1539131799449920,0.08477912565804502,0.12945754177157287,0.9431906614785994
1539131799465901,0.08746471351186358,0.12774853131914288,0.9436789501792937
1539131799481882,0.08746471351186358,0.1284809643701843,0.9481956206607158
1539131799497862,0.08856336308842572,0.1369039444571607,0.9540550850690472
1539131799513843,0.08856336308842572,0.14520485236896352,0.952712291142138
1539131799529824,0.08831921873807858,0.15106431677729493,0.9530785076676587
1539131799545805,0.08197146562905289,0.14605935759517852,0.9573510337987337
1539131799561785,0.08001831082627575,0.13702601663233427,0.96406500343328
1539131799577766,0.08282597085526788,0.13116655222400286,0.9607690547035936
1539131799593747,0.08953994048981428,0.13006790264744073,0.9469748989089801
1539131799609727,0.0936903944457157,0.13482871747921,0.9402609292744337
1539131799625708,0.09649805447470783,0.1389791714351114,0.9375753414206152
1539131799641689,0.09393453879606284,0.14117647058823568,0.9372091248950944
1539131799657670,0.09076066224155,0.1372701609826814,0.940749217975128
1539131799673650,0.08624399176012787,0.13043411917296144,0.9494163424124515
1539131799689631,0.08477912565804502,0.12884718089570502,0.9488059815365837
1539131799705612,0.08551155870908644,0.13665980010681356,0.9468528267338066
1539131799721593,0.08331425955596217,0.14630350194552566,0.9477073319600215
1539131799737573,0.08075074387731718,0.1448386358434428,0.9499046311131458
1539131799753554,0.0823376821545736,0.13958953231097926,0.9529564354924851
1539131799769531,0.0852674143587393,0.13238727397573857,0.9562523842221715
1539131799785512,0.08795300221255786,0.1293354695963993,0.9568627450980394
1539131799801492,0.09210345616845927,0.1334859235523007,0.9480735484855423
1539131799817473,0.09637598229953426,0.1377584496833757,0.9397726405737394
1539131799833454,0.09308003356984784,0.13763637750820212,0.942458228427558
1539131799849434,0.08722056916151644,0.1318989852750443,0.9522240024414437
1539131799865415,0.07696650644693648,0.12860303654535787,0.9560082398718244
1539131799881396,0.07525749599450648,0.12701609826810145,0.9580834668497751
1539131799897377,0.08172732127870574,0.12823682001983716,0.9540550850690472
1539131799913357,0.08880750743877286,0.13665980010681356,0.9459983215075916
1539131799929338,0.09137102311741785,0.14886701762417065,0.948439765011063
1539131799945319,0.08661020828564858,0.1566796368352792,0.9562523842221715
1539131799961300,0.08575570305943359,0.15594720378423776,0.9589379720759901
1539131799977280,0.09088273441672357,0.15228503852903064,0.945876249332418
1539131799993261,0.08807507438773143,0.1561913481345849,0.9400167849240866
1539131800009242,0.08245975432974717,0.15741206988632062,0.9380636301213094
1539131800025222,0.08343633173113574,0.13849088273441712,0.9374532692454416
1539131800041203,0.08282597085526788,0.11126878767070991,0.9417257953765166
1539131800057184,0.07757686732280433,0.08538948653391287,0.9519798580910965
1539131800073165,0.07953002212558147,0.07574578469520077,0.9536888685435265
1539131800089141,0.07550164034485363,0.09637598229953426,0.9528343633173115
1539131800105122,0.0756237125200272,0.12799267566949002,0.9519798580910965
1539131800121103,0.08160524910353217,0.14666971847104637,0.9468528267338066
1539131800137084,0.0831921873807886,0.14129854276340925,0.9516136415655758
1539131800153064,0.09027237354085571,0.12567330434119217,0.9486839093614101
1539131800169045,0.089906157015335,0.11358815899900776,0.9564965285725187
1539131800185026,0.08917372396429357,0.11639581902799989,0.9641870756084536
1539131800201007,0.09015030136568214,0.1264057373922336,0.9553978789959565
1539131800216987,0.08416876478217716,0.1415426871137564,0.9555199511711301
1539131800232968,0.08722056916151644,0.14728007934691423,0.9500267032883194
1539131800248949,0.0844129091325243,0.14410620279240138,0.9456321049820708
1539131800264929,0.08307011520561502,0.1377584496833757,0.9469748989089801
1539131800280910,0.08404669260700359,0.133974212252995,0.9459983215075916
1539131800296891,0.08514534218356573,0.130556191348135,0.9461203936827651
1539131800312872,0.08099488822766432,0.13202105745021786,0.9489280537117573
1539131800328852,0.07965209430075504,0.13446250095368928,0.9563744563973451
1539131800344833,0.08416876478217716,0.1394674601358057,0.9528343633173115
1539131800360814,0.08343633173113574,0.1419089036392771,0.9488059815365837
1539131800376794,0.08538948653391287,0.1461814297703521,0.9495384145876251
1539131800392775,0.08404669260700359,0.15094224460212136,0.9494163424124515
1539131800408752,0.0844129091325243,0.15082017242694779,0.9506370641641873
1539131800424733,0.08209353780422646,0.14630350194552566,0.9519798580910965
1539131800440714,0.08648813611047501,0.1410543984130621,0.9503929198138401
1539131800456694,0.08978408484016143,0.14142061493858282,0.9436789501792937
1539131800472675,0.09124895094224428,0.14203097581445068,0.9359884031433587
1539131800488656,0.08770885786221072,0.1419089036392771,0.9440451667048144
1539131800504636,0.08331425955596217,0.1419089036392771,0.9481956206607158
1539131800520617,0.07818722819867219,0.1427634088654921,0.9481956206607158
1539131800536598,0.0776989394979779,0.14471656366826924,0.9489280537117573
1539131800552579,0.0776989394979779,0.1482566567483028,0.949294270237278
1539131800568559,0.0823376821545736,0.1453269245441371,0.9488059815365837
1539131800584540,0.08380254825665645,0.14178683146410354,0.9500267032883194
1539131800600521,0.08477912565804502,0.1389791714351114,0.9522240024414437
1539131800616501,0.08880750743877286,0.1386129549095907,0.954421301594568
1539131800632482,0.08953994048981428,0.14422827496757495,0.9536888685435265
1539131800648463,0.09466697184710426,0.14349584191653353,0.9470969710841537
1539131800664444,0.09527733272297212,0.13995574883649997,0.9434348058289466
1539131800680424,0.09222552834363285,0.13153276874952358,0.9472190432593273
1539131800696405,0.08599984740978073,0.1334859235523007,0.9491721980621044
1539131800712386,0.08355840390630931,0.1423971923399714,0.951857785915923
1539131800728363,0.07953002212558147,0.1474021515220878,0.9479514763103687
1539131800744343,0.07403677424277078,0.1474021515220878,0.952712291142138
1539131800760324,0.0756237125200272,0.14337376974135996,0.9522240024414437
1539131800776305,0.0794079499504079,0.13592736705577213,0.9517357137407494
1539131800792286,0.08465705348287145,0.13446250095368928,0.9483176928358894
1539131800808266,0.08648813611047501,0.14081025406271497,0.9473411154345008
1539131800824247,0.08136110475318503,0.14752422369726137,0.9489280537117573
1539131800840228,0.07953002212558147,0.15057602807660064,0.9472190432593273
1539131800856208,0.08392462043183002,0.14593728542000495,0.9414816510261694
1539131800872189,0.08758678568703715,0.14215304798962425,0.9480735484855423
1539131800888170,0.09063859006637642,0.1436179140917071,0.9459983215075916
1539131800904151,0.09124895094224428,0.14032196536202068,0.9462424658579387
1539131800920131,0.08807507438773143,0.13763637750820212,0.9508812085145344
1539131800936112,0.08197146562905289,0.1301899748226143,0.9536888685435265
1539131800952093,0.07733272297245719,0.1251850156404979,0.955275806820783
1539131800968073,0.07733272297245719,0.12188906691081058,0.954421301594568
1539131800984054,0.08038452735179646,0.12738231479362216,0.9540550850690472
1539131801000035,0.07794308384832505,0.1369039444571607,0.950148775463493
1539131801016016,0.08136110475318503,0.1486228732738235,0.9491721980621044
1539131801031996,0.07904173342488718,0.15143053330281564,0.9506370641641873
1539131801047943,0.08209353780422646,0.14544899671931066,0.9532005798428322
1539131801063923,0.08392462043183002,0.135683222705425,0.9547875181200887
1539131801079904,0.08563363088426001,0.13128862439917643,0.9529564354924851
1539131801095885,0.08245975432974717,0.13165484092469715,0.9485618371862365
1539131801111866,0.08355840390630931,0.13470664530403642,0.9464866102082858
1539131801127846,0.08514534218356573,0.13653772793163999,0.9474631876096744
1539131801143827,0.08758678568703715,0.13653772793163999,0.9469748989089801
1539131801159808,0.08734264133669001,0.13556115053025142,0.9448996719310294
1539131801175789,0.0852674143587393,0.12799267566949002,0.9478294041351951
1539131801191769,0.08404669260700359,0.12188906691081058,0.9514915693904022
1539131801207750,0.08184939345387932,0.12530708781567146,0.9525902189669644
1539131801223731,0.07586785687037434,0.13922331578545855,0.9496604867627987
1539131801239711,0.07660028992141577,0.1453269245441371,0.9512474250400551
1539131801255692,0.08172732127870574,0.14178683146410354,0.9468528267338066
1539131801271673,0.08221560997940003,0.132265201800565,0.9480735484855423
1539131801287654,0.08258182650492074,0.1281147478446636,0.9472190432593273
1539131801303634,0.0785534447241929,0.1272602426184486,0.9451438162813766
1539131801319615,0.07464713511863863,0.13409628442816857,0.9439230945296408
1539131801335596,0.07452506294346506,0.13360799572747428,0.9431906614785994
1539131801351576,0.07293812466620864,0.13824673838406998,0.9425803006027316
1539131801367584,0.07721065079728362,0.1381246662088964,0.9403830014496073
1539131801383565,0.08075074387731718,0.13592736705577213,0.9481956206607158
1539131801399545,0.08197146562905289,0.13678187228198713,0.9591821164263372
1539131801415526,0.08575570305943359,0.1386129549095907,0.9566186007476922
1539131801431507,0.08892957961394643,0.1401998931868471,0.9604028381780729
1539131801447487,0.08783093003738429,0.13800259403372284,0.9607690547035936
1539131801463468,0.08856336308842572,0.12921339742122573,0.9597924773022051
1539131801479449,0.08673228046082215,0.1231097886625463,0.9569848172732129
1539131801495430,0.08929579613946714,0.12066834515907487,0.9496604867627987
1539131801511410,0.08746471351186358,0.11602960250247918,0.9489280537117573
1539131801527391,0.08392462043183002,0.11871519035629774,0.9412375066758223
1539131801543372,0.0844129091325243,0.124330510414282,0.9384298466468302
1539131801559352,0.08245975432974717,0.1289692530708786,0.939040207522698
1539131801575333,0.0823376821545736,0.1281147478446636,0.9456321049820708
1539131801591314,0.08490119783321859,0.12664988174258074,0.9481956206607158
1539131801607295,0.08575570305943359,0.1301899748226143,0.9540550850690472
1539131801623275,0.0852674143587393,0.13263141832608571,0.9593041886015108
1539131801639256,0.08429083695735073,0.12799267566949002,0.9561303120469979
1539131801655237,0.0802624551766229,0.12115663385976916,0.9556420233463037
1539131801671218,0.0764782177462422,0.12372014953841415,0.9617456321049822
1539131801687194,0.07574578469520077,0.12628366521706003,0.9577172503242544
1539131801703175,0.07513542381933291,0.13299763485160643,0.9489280537117573
1539131801719156,0.07611200122072148,0.13458457312886285,0.9438010223544673
1539131801735137,0.08136110475318503,0.13067826352330858,0.9414816510261694
1539131801751117,0.08307011520561502,0.12481879911497629,0.9392843518730452
1539131801767098,0.08685435263599572,0.1264057373922336,0.9466086823834594
1539131801783079,0.08490119783321859,0.12787060349431645,0.9519798580910965
1539131801799059,0.0844129091325243,0.1276264591439693,0.9549095902952622
1539131801815040,0.08514534218356573,0.12921339742122573,0.9590600442511636
1539131801831021,0.08795300221255786,0.13165484092469715,0.9582055390249486
1539131801847002,0.08953994048981428,0.13141069657435,0.9547875181200887
1539131801862982,0.08978408484016143,0.130556191348135,0.9506370641641873
1539131801878963,0.08343633173113574,0.12835889219501073,0.950148775463493
1539131801894944,0.08282597085526788,0.133974212252995,0.9500267032883194
1539131801910925,0.0806286717021436,0.13592736705577213,0.9453879606317237
1539131801926905,0.08099488822766432,0.13287556267643286,0.9411154345006487
1539131801942886,0.08197146562905289,0.13311970702678,0.939894712748913
1539131801958867,0.08502327000839216,0.13592736705577213,0.9431906614785994
1539131801974847,0.08307011520561502,0.13824673838406998,0.9431906614785994
1539131801990828,0.08172732127870574,0.14215304798962425,0.9483176928358894
1539131802006805,0.0794079499504079,0.1461814297703521,0.9500267032883194
1539131802022786,0.08209353780422646,0.14715800717174066,0.9513694972152287
1539131802038766,0.0861219195849543,0.1410543984130621,0.9489280537117573
1539131802054747,0.088197146562905,0.13031204699778787,0.9540550850690472
1539131802070728,0.08953994048981428,0.12750438696879574,0.9551537346456094
1539131802086709,0.08685435263599572,0.1255512321660186,0.9511253528648815
1539131802102689,0.08209353780422646,0.13153276874952358,0.9533226520180058
1539131802118670,0.07928587777523433,0.14093232623788854,0.9582055390249486
1539131802134651,0.08160524910353217,0.14227512016479782,0.9472190432593273
1539131802150632,0.08551155870908644,0.1381246662088964,0.9422140840772109
1539131802166612,0.0852674143587393,0.14093232623788854,0.946730754558633
1539131802182593,0.08221560997940003,0.1427634088654921,0.9445334554055087
1539131802198574,0.0794079499504079,0.14142061493858282,0.9512474250400551
1539131802214554,0.08368047608148288,0.13788052185854927,0.9551537346456094
1539131802230535,0.09027237354085571,0.1343404287785157,0.9488059815365837
1539131802246516,0.09356832227054213,0.12872510872053144,0.945876249332418
1539131802262497,0.09039444571602928,0.130556191348135,0.9490501258869308
1539131802278477,0.0802624551766229,0.12860303654535787,0.9545433737697415
1539131802294458,0.0831921873807886,0.12396429388876129,0.9553978789959565
1539131802310439,0.08770885786221072,0.11480888075074347,0.9502708476386665
1539131802326416,0.09344625009536855,0.11114671549553634,0.9511253528648815
1539131802342396,0.09503318837262498,0.11822690165560346,0.9459983215075916
1539131802358377,0.08880750743877286,0.1289692530708786,0.9469748989089801
1539131802374358,0.07989623865110218,0.13287556267643286,0.9502708476386665
1539131802390339,0.08099488822766432,0.13238727397573857,0.9511253528648815
1539131802406319,0.07623407339589505,0.12372014953841415,0.9571068894483865
1539131802422300,0.08014038300144932,0.11822690165560346,0.9608911268787672
1539131802438281,0.08722056916151644,0.12066834515907487,0.9541771572442208
1539131802454261,0.09271381704432713,0.12616159304188646,0.9439230945296408
1539131802470242,0.09442282749675712,0.12970168612192,0.9420920119020373
1539131802486223,0.09137102311741785,0.12652780956740717,0.9455100328068973
1539131802502204,0.08917372396429357,0.12115663385976916,0.9534447241931794
1539131802518184,0.08661020828564858,0.11944762340733917,0.9546654459449151
1539131802534165,0.08453498130769788,0.11944762340733917,0.9524681467917908
1539131802550146,0.08856336308842572,0.12689402609292788,0.9517357137407494
1539131802566126,0.08844129091325215,0.13006790264744073,0.9545433737697415
1539131802582107,0.08746471351186358,0.13006790264744073,0.9529564354924851
