Timestamp (microseconds),Gyro X (°/s),Gyro Y (°/s),Gyro Z (°/s)
1539131777395935,-2.227817196917613,0.2746623941404778,2.3498893720911838
1539131777411931,-2.166781109330941,-0.3967345693140487,3.6316472114137923
1539131777427927,0.33569848172737693,-0.8850232700083325,5.584802014190927
1539131777443923,3.692683299000464,-0.9460593575952316,7.476920729381163
1539131777459919,4.486152437628789,-0.9460593575952316,9.430075532158298
1539131777475915,4.242008087281647,-1.0070954451819034,11.444266422522333
1539131777491911,5.706874189364498,-0.6408789196611906,12.787060349431613
1539131777507907,10.406652933546866,0.2746623941404778,13.702601663233281
1539131777523903,13.76363775082018,1.6784924086366573,13.214312962538997
1539131777539898,11.810482948043045,3.1433585107195086,11.01701380941472
1539131777555894,5.523765926604028,3.936827649347606,7.598992904554734
1539131777571890,0.33569848172737693,4.547188525215461,3.936827649347606
1539131777587886,-1.3733119707026162,5.0354772259097444,0.8239871824216607
1539131777603882,-2.288853284504512,5.279621576256886,-1.739528496223329
1539131777619878,-4.547188525215461,5.157549401083315,-3.7537193865873633
1539131777635874,-7.049668116273779,4.974441138323073,-5.157549401083315
1539131777651870,-11.810482948043045,4.486152437628789,-6.012054627298312
1539131777667866,-14.007782101167322,3.0823224231326094,-5.0354772259097444
1539131777683862,-9.063859006637585,1.8616006713969,-2.227817196917613
1539131777699858,1.0070954451819034,1.5564202334630863,1.2512397955290453
1539131777715850,7.476920729381163,1.2512397955290453,4.364080262455218
1539131777731846,7.598992904554734,0.213626306553806,6.683451590753066
1539131777747842,7.11070420386045,-0.7019150072480898,7.782101167315204
1539131777763838,8.758678568703772,-1.3122758831159445,7.476920729381163
1539131777779834,8.880750743877343,-1.8616006713969,6.012054627298312
1539131777795830,6.195162890058782,-1.8616006713969,3.814755474174035
1539131777811826,3.3875028610666504,-1.2512397955290453,1.2512397955290453
1539131777827822,0.8850232700083325,-0.15259021896690683,-1.4953841458761872
1539131777843818,-1.8005645838102282,1.3122758831159445,-3.875791561760934
1539131777859814,-3.570611123826893,2.7771419851987957,-5.828946364538069
1539131777875810,-5.462729839017356,3.5095750362402214,-7.2938124666209205
1539131777891806,-5.401693751430457,3.3875028610666504,-7.537956816968062
1539131777907802,-4.669260700389032,2.7771419851987957,-6.744487678339738
1539131777923798,-3.7537193865873633,2.04470893415737,-5.401693751430457
1539131777939794,-2.9602502479590385,1.2512397955290453,-3.6316472114137923
1539131777955790,-1.4953841458761872,0.5798428320745188,-1.0681315327688026
1539131777971786,-1.0070954451819034,0.3967345693140487,1.0070954451819034
1539131777987782,-1.5564202334630863,-0.33569848172737693,1.6174563210497581
1539131778003778,-1.3733119707026162,-1.3733119707026162,1.5564202334630863
1539131778019774,2.3498893720911838,-1.8616006713969,1.739528496223329
1539131778035736,7.2938124666209205,-1.6174563210497581,2.5940337224383256
1539131778051732,10.955977721828049,-0.7019150072480898,3.1433585107195086
1539131778067728,10.040436408026153,0.213626306553806,2.8381780727854675
1539131778083724,4.60822461280236,0.7019150072480898,1.8616006713969
1539131778099720,-0.09155413138023505,1.3122758831159445,0.7019150072480898
1539131778115716,-0.7629510948347615,1.8616006713969,-0.45777065690094787
1539131778131712,2.105745021744042,2.04470893415737,-1.1902037079423735
1539131778147708,3.3264667734797513,1.6784924086366573,-2.288853284504512
1539131778163704,1.6174563210497581,1.0070954451819034,-3.814755474174035
1539131778179700,-1.739528496223329,-0.3967345693140487,-5.3406576638437855
1539131778195696,-3.7537193865873633,-1.983672846570471,-6.744487678339738
1539131778211691,-3.2654306858930795,-3.2043945983061803,-7.537956816968062
1539131778227687,-1.6784924086366573,-4.058899824521177,-7.965209430075447
1539131778243683,0.5798428320745188,-4.974441138323073,-8.45349813076973
1539131778259679,1.6784924086366573,-5.157549401083315,-9.491111619745197
1539131778275675,1.4953841458761872,-3.814755474174035,-11.139085984588291
1539131778291671,-0.9460593575952316,-1.6174563210497581,-12.664988174258042
1539131778307667,-5.0354772259097444,0.5798428320745188,-13.336385137712568
1539131778323663,-8.880750743877343,2.227817196917613,-12.726024261844714
1539131778339659,-9.979400320439481,3.692683299000464,-11.139085984588291
1539131778355377,-6.561379415579495,4.852368963149502,-9.308003356984727
1539131778371371,-2.7161058976118966,5.401693751430457,-7.476920729381163
1539131778387366,-1.6174563210497581,5.76791027695117,-5.584802014190927
1539131778403360,-1.1902037079423735,5.889982452124741,-3.7537193865873633
1539131778419355,0.6408789196611906,5.95101853971164,-2.04470893415737
1539131778435350,3.6316472114137923,5.584802014190927,-0.15259021896690683
1539131778451344,5.2185854886702145,5.0354772259097444,1.2512397955290453
1539131778467339,5.462729839017356,4.60822461280236,1.9226367589837992
1539131778483333,4.974441138323073,4.42511635004189,2.105745021744042
1539131778499328,6.378271152819025,4.60822461280236,2.105745021744042
1539131778515322,6.622415503166167,4.60822461280236,1.983672846570471
1539131778531317,4.242008087281647,4.303044174868319,1.739528496223329
1539131778547311,0.33569848172737693,3.7537193865873633,1.4953841458761872
1539131778563306,-0.8850232700083325,3.3875028610666504,1.6174563210497581
1539131778579301,-0.5798428320745188,3.0823224231326094,1.983672846570471
1539131778595295,1.0681315327688026,3.0823224231326094,2.655069810025225
1539131778611290,2.410925459678083,2.655069810025225,3.936827649347606
1539131778627284,1.3122758831159445,2.105745021744042,5.0354772259097444
1539131778643279,0.8239871824216607,1.3122758831159445,5.828946364538069
1539131778659273,0.8239871824216607,0.7019150072480898,6.378271152819025
1539131778674987,1.983672846570471,-0.03051804379333589,6.744487678339738
1539131778690981,3.692683299000464,-0.7629510948347615,6.805523765926637
1539131778706975,5.645838101777599,-0.8850232700083325,6.561379415579495
1539131778722968,6.9886320286868795,-0.8850232700083325,6.317235065232353
1539131778738962,8.209353780422589,-0.8239871824216607,5.95101853971164
1539131778754955,12.23773556115043,-0.5188067444876197,6.927595941100208
1539131778770949,14.007782101167322,-1.0681315327688026,7.537956816968062
1539131778786943,12.054627298390187,-1.1291676203554744,6.8665598535133086
1539131778802936,9.979400320439481,-1.2512397955290453,6.683451590753066
1539131778818930,6.195162890058782,-0.5798428320745188,6.317235065232353
1539131778834923,3.875791561760934,-0.213626306553806,6.073090714885211
1539131778850917,1.6784924086366573,-0.213626306553806,6.012054627298312
1539131778866911,0.03051804379333589,-1.3122758831159445,6.500343327992596
1539131778882904,-1.6174563210497581,-2.9602502479590385,6.500343327992596
1539131778898898,-0.8239871824216607,-4.364080262455218,6.378271152819025
1539131778914891,-0.7019150072480898,-6.073090714885211,5.95101853971164
1539131778930885,-2.04470893415737,-7.2938124666209205,5.096513313496644
1539131778946879,-1.1291676203554744,-7.11070420386045,5.279621576256886
1539131778962872,1.0681315327688026,-6.378271152819025,6.378271152819025
1539131778978866,1.739528496223329,-5.3406576638437855,7.598992904554734
1539131778994629,1.3733119707026162,-4.119935912108076,8.33142595559616
1539131779010621,1.0070954451819034,-2.7771419851987957,8.392462043183059
1539131779026614,-0.45777065690094787,-1.4953841458761872,7.843137254901876
1539131779042606,-1.8616006713969,-0.8239871824216607,6.805523765926637
1539131779058599,1.739528496223329,-0.8239871824216607,6.622415503166167
1539131779074592,5.096513313496644,-1.983672846570471,6.8665598535133086
1539131779090584,3.6316472114137923,-3.0212863355459376,6.378271152819025
1539131779106577,-4.852368963149502,-5.706874189364498,3.997863736934505
1539131779122570,-8.45349813076973,-7.354848554207592,2.288853284504512
1539131779138562,-5.584802014190927,-7.843137254901876,2.532997634851654
1539131779154555,0.7629510948347615,-7.782101167315204,3.5095750362402214
1539131779170548,4.9134050507361735,-7.721065079728305,3.7537193865873633
1539131779186540,3.0212863355459376,-7.2938124666209205,2.8992141603723667
1539131779202533,0.7629510948347615,-5.828946364538069,2.3498893720911838
1539131779218526,-2.3498893720911838,-3.936827649347606,2.04470893415737
1539131779234518,-4.303044174868319,-1.8005645838102282,1.5564202334630863
1539131779250511,-2.5940337224383256,0.5188067444876197,2.3498893720911838
1539131779266503,-0.3967345693140487,2.3498893720911838,3.814755474174035
1539131779282496,0.5798428320745188,3.5095750362402214,4.303044174868319
1539131779298489,2.410925459678083,4.119935912108076,4.547188525215461
1539131779314270,-0.8239871824216607,3.7537193865873633,4.364080262455218
1539131779330261,-5.2185854886702145,2.9602502479590385,2.655069810025225
1539131779346253,-8.6366063935302,1.6784924086366573,0.6408789196611906
1539131779362245,-8.270389868009488,1.3122758831159445,-0.9460593575952316
1539131779378236,-5.462729839017356,1.1902037079423735,-1.983672846570471
1539131779394228,-1.0681315327688026,0.45777065690094787,-2.4719615472647547
1539131779410220,2.5940337224383256,-0.5188067444876197,-2.9602502479590385
1539131779426211,3.2654306858930795,-1.5564202334630863,-3.0823224231326094
1539131779442203,1.2512397955290453,-2.4719615472647547,-3.997863736934505
1539131779458195,0.7019150072480898,-3.0823224231326094,-5.0354772259097444
1539131779474187,3.2654306858930795,-2.8381780727854675,-5.401693751430457
1539131779490178,6.683451590753066,-2.9602502479590385,-4.486152437628789
1539131779506170,7.843137254901876,-2.8992141603723667,-3.6316472114137923
1539131779522162,4.669260700389032,-2.532997634851654,-3.814755474174035
1539131779538153,3.0212863355459376,-1.1902037079423735,-4.60822461280236
1539131779554145,1.1291676203554744,1.0681315327688026,-5.3406576638437855
1539131779570137,-3.570611123826893,3.4485389486533222,-6.317235065232353
1539131779586128,-4.852368963149502,5.889982452124741,-6.8665598535133086
1539131779602120,-1.8005645838102282,7.4158846417944915,-6.561379415579495
1539131779618112,1.3733119707026162,7.660028992141633,-6.134126802471883
1539131779633850,3.4485389486533222,7.2938124666209205,-5.157549401083315
1539131779649840,0.5798428320745188,6.134126802471883,-4.364080262455218
1539131779665831,-4.180971999694748,4.9134050507361735,-4.242008087281647
1539131779681822,-8.45349813076973,4.119935912108076,-3.814755474174035
1539131779697813,-9.73525597009234,2.410925459678083,-3.692683299000464
1539131779713803,-6.744487678339738,0.5188067444876197,-3.0823224231326094
1539131779729794,-0.213626306553806,-0.9460593575952316,-1.6174563210497581
1539131779745785,5.096513313496644,-2.288853284504512,-0.5188067444876197
1539131779761776,6.8665598535133086,-2.8992141603723667,-0.33569848172737693
1539131779777766,7.537956816968062,-2.8992141603723667,-0.3967345693140487
1539131779793757,8.880750743877343,-2.227817196917613,0.09155413138023505
1539131779809748,11.505302510109004,-0.9460593575952316,1.3733119707026162
1539131779825739,13.092240787365427,0.45777065690094787,2.4719615472647547
1539131779841729,13.76363775082018,1.8005645838102282,3.2654306858930795
1539131779857720,13.092240787365427,2.4719615472647547,4.242008087281647
1539131779873711,10.528725108720437,1.9226367589837992,4.9134050507361735
1539131779889701,5.2185854886702145,0.15259021896690683,5.0354772259097444
1539131779905692,2.7161058976118966,-1.8005645838102282,5.2185854886702145
1539131779921683,0.213626306553806,-3.4485389486533222,5.2185854886702145
1539131779937674,-0.213626306553806,-4.547188525215461,5.0354772259097444
1539131779953491,-0.45777065690094787,-5.0354772259097444,4.547188525215461
1539131779969481,-2.5940337224383256,-4.242008087281647,2.8381780727854675
1539131779985471,-9.308003356984727,-1.739528496223329,0.213626306553806
1539131780001462,-15.228503852903032,1.3122758831159445,-1.739528496223329
1539131780017452,-15.960936903944457,3.570611123826893,-1.8005645838102282
1539131780033442,-17.48683909361398,4.974441138323073,-2.3498893720911838
1539131780049432,-19.256885633630873,5.523765926604028,-3.6316472114137923
1539131780065423,-20.05035477225897,6.073090714885211,-4.730296787975931
1539131780081413,-16.693369954985883,7.2938124666209205,-4.791332875562603
1539131780097403,-13.45845731288614,7.476920729381163,-4.303044174868319
1539131780113393,-11.444266422522333,6.073090714885211,-3.692683299000464
1539131780129384,-9.67421988250544,4.180971999694748,-2.7771419851987957
1539131780145374,-7.843137254901876,2.8992141603723667,-1.983672846570471
1539131780161364,-5.828946364538069,1.6784924086366573,-1.0070954451819034
1539131780177354,-5.279621576256886,0.33569848172737693,0.2746623941404778
1539131780193345,-6.256198977645454,-0.5188067444876197,0.9460593575952316
1539131780209335,-4.974441138323073,-0.9460593575952316,1.3122758831159445
1539131780225325,-1.0070954451819034,-1.0070954451819034,1.2512397955290453
1539131780241315,2.227817196917613,-0.3967345693140487,0.8850232700083325
1539131780257306,3.3264667734797513,0.2746623941404778,0.5798428320745188
1539131780273101,1.1902037079423735,0.213626306553806,-0.3967345693140487
1539131780289091,-2.410925459678083,0.03051804379333589,-1.6174563210497581
1539131780305080,-5.0354772259097444,0.09155413138023505,-3.1433585107195086
1539131780321069,-4.9134050507361735,0.2746623941404778,-4.058899824521177
1539131780337059,-2.655069810025225,0.5798428320745188,-4.180971999694748
1539131780353048,-0.7019150072480898,1.0070954451819034,-4.119935912108076
1539131780369037,-0.3967345693140487,1.4343480582895154,-4.242008087281647
1539131780385027,-0.8850232700083325,1.8616006713969,-4.242008087281647
1539131780401016,-1.5564202334630863,1.8616006713969,-4.242008087281647
1539131780417005,-0.8239871824216607,2.166781109330941,-4.058899824521177
1539131780432994,0.15259021896690683,2.105745021744042,-3.936827649347606
1539131780448984,-1.4343480582895154,2.8381780727854675,-4.058899824521177
1539131780464973,-0.7019150072480898,3.570611123826893,-3.570611123826893
1539131780480962,-1.2512397955290453,3.0823224231326094,-3.6316472114137923
1539131780496952,-1.3733119707026162,2.655069810025225,-3.875791561760934
1539131780512941,-0.09155413138023505,1.6174563210497581,-3.692683299000464
1539131780528930,-0.45777065690094787,0.8850232700083325,-4.119935912108076
1539131780544920,-2.410925459678083,0.5798428320745188,-4.60822461280236
1539131780560909,-2.3498893720911838,0.6408789196611906,-4.303044174868319
1539131780576898,0.09155413138023505,0.9460593575952316,-3.5095750362402214
1539131780592743,3.1433585107195086,1.9226367589837992,-2.7771419851987957
1539131780608731,3.1433585107195086,2.5940337224383256,-2.227817196917613
1539131780624720,0.45777065690094787,3.936827649347606,-1.6174563210497581
1539131780640709,-0.15259021896690683,4.974441138323073,-0.6408789196611906
1539131780656698,2.04470893415737,5.2185854886702145,0.2746623941404778
1539131780672687,3.692683299000464,5.95101853971164,0.7019150072480898
1539131780688676,2.7161058976118966,5.828946364538069,0.8850232700083325
1539131780704664,0.6408789196611906,4.42511635004189,0.8850232700083325
1539131780720653,0.5188067444876197,2.9602502479590385,1.1291676203554744
1539131780736642,2.7161058976118966,1.6784924086366573,1.739528496223329
1539131780752631,3.997863736934505,0.5798428320745188,2.04470893415737
1539131780768620,2.8381780727854675,-0.3967345693140487,2.105745021744042
1539131780784608,1.4343480582895154,-1.6174563210497581,2.655069810025225
1539131780800597,1.0681315327688026,-2.5940337224383256,3.1433585107195086
1539131780816586,1.739528496223329,-2.5940337224383256,3.4485389486533222
1539131780832575,2.5940337224383256,-1.8616006713969,3.7537193865873633
1539131780848564,3.2043945983061803,-0.8850232700083325,4.119935912108076
1539131780864553,4.547188525215461,-0.45777065690094787,4.60822461280236
1539131780880541,5.584802014190927,-0.2746623941404778,4.60822461280236
1539131780896530,4.9134050507361735,-0.2746623941404778,3.692683299000464
1539131780912353,2.166781109330941,-0.5798428320745188,2.532997634851654
1539131780928341,0.2746623941404778,-1.0681315327688026,1.8005645838102282
1539131780944329,0.7629510948347615,-1.8005645838102282,1.3733119707026162
1539131780960317,1.8616006713969,-2.8992141603723667,1.1902037079423735
1539131780976305,1.9226367589837992,-3.936827649347606,1.0070954451819034
1539131780992293,1.739528496223329,-4.303044174868319,0.6408789196611906
1539131781008280,2.04470893415737,-4.364080262455218,0.213626306553806
1539131781024268,1.8005645838102282,-4.180971999694748,-0.213626306553806
1539131781040256,2.105745021744042,-3.936827649347606,-0.213626306553806
1539131781056244,2.166781109330941,-3.2654306858930795,-0.15259021896690683
1539131781072232,-0.15259021896690683,-2.3498893720911838,-0.5188067444876197
1539131781088220,-3.5095750362402214,-1.3122758831159445,-1.3122758831159445
1539131781104208,-4.791332875562603,0.03051804379333589,-1.6174563210497581
1539131781120195,-1.983672846570471,1.6174563210497581,-0.8850232700083325
1539131781136183,0.9460593575952316,2.7161058976118966,0.03051804379333589
1539131781152171,2.105745021744042,3.1433585107195086,0.5188067444876197
1539131781168159,3.0212863355459376,2.9602502479590385,1.1291676203554744
1539131781184147,3.0212863355459376,2.7161058976118966,1.3122758831159445
1539131781200135,2.227817196917613,2.04470893415737,1.0681315327688026
1539131781216123,1.1291676203554744,0.9460593575952316,0.7629510948347615
1539131781231964,1.4953841458761872,-0.213626306553806,1.1291676203554744
1539131781247951,1.2512397955290453,-1.5564202334630863,1.3733119707026162
1539131781263939,-1.739528496223329,-2.5940337224383256,0.7629510948347615
1539131781279926,-5.523765926604028,-2.7771419851987957,-0.33569848172737693
1539131781295913,-6.622415503166167,-2.105745021744042,-1.0681315327688026
1539131781311901,-3.0823224231326094,-1.6174563210497581,-0.7019150072480898
1539131781327888,2.7771419851987957,-1.9226367589837992,0.2746623941404778
1539131781343876,6.195162890058782,-2.4719615472647547,0.8239871824216607
1539131781359863,5.828946364538069,-2.7771419851987957,0.5188067444876197
1539131781375850,3.0212863355459376,-2.8381780727854675,-0.3967345693140487
1539131781391838,0.5798428320745188,-2.4719615472647547,-1.6174563210497581
1539131781407825,0.15259021896690683,-1.6784924086366573,-2.166781109330941
1539131781423812,0.6408789196611906,-1.2512397955290453,-2.410925459678083
1539131781439800,0.03051804379333589,-1.0681315327688026,-2.7771419851987957
1539131781455787,1.6174563210497581,-0.6408789196611906,-2.7771419851987957
1539131781471775,3.3264667734797513,-0.213626306553806,-2.7771419851987957
1539131781487762,2.227817196917613,0.09155413138023505,-3.2043945983061803
1539131781503749,0.213626306553806,0.15259021896690683,-3.6316472114137923
1539131781519737,-0.6408789196611906,-0.09155413138023505,-3.692683299000464
1539131781535724,-0.7019150072480898,-0.33569848172737693,-3.7537193865873633
1539131781551605,-0.6408789196611906,-0.3967345693140487,-4.058899824521177
1539131781567592,-0.03051804379333589,-0.03051804379333589,-4.42511635004189
1539131781583579,0.33569848172737693,0.7019150072480898,-4.852368963149502
1539131781599566,-0.7019150072480898,1.4953841458761872,-5.462729839017356
1539131781615553,-1.5564202334630863,1.8616006713969,-5.889982452124741
1539131781631539,-2.288853284504512,1.9226367589837992,-6.134126802471883
1539131781647526,-2.04470893415737,2.288853284504512,-6.073090714885211
1539131781663513,-1.8616006713969,2.4719615472647547,-6.012054627298312
1539131781679500,-2.4719615472647547,2.410925459678083,-6.256198977645454
1539131781695487,-3.5095750362402214,1.983672846570471,-6.561379415579495
1539131781711474,-3.936827649347606,1.2512397955290453,-6.561379415579495
1539131781727461,-3.4485389486533222,0.9460593575952316,-6.256198977645454
1539131781743448,-1.9226367589837992,0.8850232700083325,-5.279621576256886
1539131781759435,-0.5798428320745188,1.1291676203554744,-3.936827649347606
1539131781775422,0.09155413138023505,1.8616006713969,-2.7771419851987957
1539131781791409,-0.03051804379333589,2.4719615472647547,-1.8616006713969
1539131781807396,-1.3733119707026162,2.8381780727854675,-1.4953841458761872
1539131781823382,-1.9226367589837992,3.0212863355459376,-1.3122758831159445
1539131781839369,-0.5188067444876197,3.4485389486533222,-1.0070954451819034
1539131781855356,1.3733119707026162,3.6316472114137923,-0.6408789196611906
1539131781871246,2.227817196917613,3.5095750362402214,-0.45777065690094787
1539131781887232,1.0070954451819034,3.0212863355459376,-0.15259021896690683
1539131781903219,0.33569848172737693,2.4719615472647547,-0.03051804379333589
1539131781919205,0.8239871824216607,2.04470893415737,0.15259021896690683
1539131781935192,1.4953841458761872,1.8005645838102282,0.03051804379333589
1539131781951178,0.7019150072480898,1.2512397955290453,-0.09155413138023505
1539131781967165,0.2746623941404778,0.5188067444876197,0.03051804379333589
1539131781983151,1.8616006713969,-0.15259021896690683,0.8239871824216607
1539131781999138,3.2043945983061803,-0.45777065690094787,1.5564202334630863
1539131782015124,3.0823224231326094,-0.5188067444876197,1.6784924086366573
1539131782031110,2.3498893720911838,-0.45777065690094787,1.4953841458761872
1539131782047097,1.739528496223329,-0.09155413138023505,1.2512397955290453
1539131782063083,1.3122758831159445,0.45777065690094787,1.0681315327688026
1539131782079070,1.2512397955290453,0.8239871824216607,0.9460593575952316
1539131782095056,1.4953841458761872,0.7629510948347615,0.8239871824216607
1539131782111043,1.6174563210497581,0.45777065690094787,0.9460593575952316
1539131782127029,0.5798428320745188,0.15259021896690683,0.7629510948347615
1539131782143015,-0.5798428320745188,0.15259021896690683,0.5798428320745188
1539131782159002,-1.3122758831159445,0.33569848172737693,0.5188067444876197
1539131782174988,-0.8850232700083325,0.5798428320745188,0.7019150072480898
1539131782190857,-0.15259021896690683,0.7629510948347615,1.1902037079423735
1539131782206843,1.1291676203554744,0.7629510948347615,1.9226367589837992
1539131782222828,1.3733119707026162,0.5798428320745188,2.4719615472647547
1539131782238814,0.15259021896690683,0.6408789196611906,2.3498893720911838
1539131782254800,-0.8850232700083325,0.7629510948347615,2.04470893415737
1539131782270786,-1.0681315327688026,0.8239871824216607,1.6784924086366573
1539131782286772,-0.9460593575952316,0.8850232700083325,1.4953841458761872
1539131782302758,-0.09155413138023505,0.8239871824216607,1.6174563210497581
1539131782318744,0.5188067444876197,0.6408789196611906,1.8005645838102282
1539131782334730,1.0681315327688026,0.45777065690094787,2.105745021744042
1539131782350716,1.4953841458761872,0.7629510948347615,2.04470893415737
1539131782366702,1.3733119707026162,1.1291676203554744,1.6174563210497581
1539131782382688,1.0070954451819034,1.4343480582895154,1.3122758831159445
1539131782398674,0.7629510948347615,1.6784924086366573,0.9460593575952316
1539131782414660,0.33569848172737693,1.9226367589837992,0.7019150072480898
1539131782430646,0.7629510948347615,2.04470893415737,0.7019150072480898
1539131782446632,1.4953841458761872,2.288853284504512,0.5188067444876197
1539131782462618,0.6408789196611906,2.04470893415737,0.09155413138023505
1539131782478604,-0.5188067444876197,1.4953841458761872,-0.213626306553806
1539131782494590,-0.6408789196611906,1.0681315327688026,-0.213626306553806
1539131782510498,0.33569848172737693,0.7629510948347615,-0.09155413138023505
1539131782526483,1.3733119707026162,0.3967345693140487,-0.03051804379333589
1539131782542469,1.1291676203554744,0.2746623941404778,-0.15259021896690683
1539131782558454,0.03051804379333589,0.15259021896690683,-0.3967345693140487
1539131782574440,-0.9460593575952316,0.33569848172737693,-0.7019150072480898
1539131782590425,-0.6408789196611906,1.0070954451819034,-1.0681315327688026
1539131782606411,0.15259021896690683,1.3733119707026162,-1.0681315327688026
1539131782622396,-0.3967345693140487,1.3733119707026162,-1.1902037079423735
1539131782638382,-3.2654306858930795,1.1291676203554744,-1.6174563210497581
1539131782654367,-4.974441138323073,0.8239871824216607,-2.288853284504512
1539131782670353,-4.791332875562603,0.8239871824216607,-2.7161058976118966
1539131782686338,-2.166781109330941,1.1291676203554744,-2.655069810025225
1539131782702324,0.03051804379333589,1.0681315327688026,-2.4719615472647547
1539131782718309,0.2746623941404778,0.5188067444876197,-2.288853284504512
1539131782734295,-0.213626306553806,0.213626306553806,-2.105745021744042
1539131782750280,-0.6408789196611906,0.33569848172737693,-1.9226367589837992
1539131782766265,-0.5798428320745188,0.6408789196611906,-1.5564202334630863
1539131782782251,-0.33569848172737693,1.2512397955290453,-1.2512397955290453
1539131782798236,-0.15259021896690683,1.6784924086366573,-0.8239871824216607
1539131782814222,0.5188067444876197,1.6784924086366573,-0.33569848172737693
1539131782830078,1.739528496223329,1.6174563210497581,0.213626306553806
1539131782846063,2.227817196917613,1.6174563210497581,0.45777065690094787
1539131782862048,1.739528496223329,1.5564202334630863,0.09155413138023505
1539131782878033,-0.09155413138023505,1.3122758831159445,-0.7019150072480898
1539131782894018,-1.739528496223329,1.1291676203554744,-1.4953841458761872
1539131782910003,-2.7161058976118966,0.8239871824216607,-2.105745021744042
1539131782925988,-3.570611123826893,0.7629510948347615,-2.532997634851654
1539131782941973,-4.119935912108076,0.8850232700083325,-2.4719615472647547
1539131782957958,-3.7537193865873633,1.0070954451819034,-2.227817196917613
1539131782973943,-2.166781109330941,1.4953841458761872,-1.8005645838102282
1539131782989928,-0.33569848172737693,1.9226367589837992,-1.2512397955290453
1539131783005913,1.3733119707026162,1.8616006713969,-0.7019150072480898
1539131783021898,1.4953841458761872,1.3733119707026162,-0.213626306553806
1539131783037883,0.7629510948347615,0.7019150072480898,-0.213626306553806
1539131783053868,1.2512397955290453,0.33569848172737693,-0.15259021896690683
1539131783069853,1.8005645838102282,0.15259021896690683,-0.2746623941404778
1539131783085838,0.9460593575952316,-0.15259021896690683,-0.7019150072480898
1539131783101823,0.6408789196611906,-0.09155413138023505,-1.1902037079423735
1539131783117808,0.8239871824216607,-0.03051804379333589,-1.6174563210497581
1539131783133793,0.33569848172737693,0.33569848172737693,-1.8616006713969
1539131783149688,0.2746623941404778,0.9460593575952316,-1.9226367589837992
1539131783165673,-0.7019150072480898,1.5564202334630863,-1.8005645838102282
1539131783181658,-1.9226367589837992,2.105745021744042,-1.983672846570471
1539131783197643,-2.288853284504512,2.3498893720911838,-2.3498893720911838
1539131783213628,-1.6784924086366573,2.655069810025225,-2.288853284504512
1539131783229613,-1.3122758831159445,2.8381780727854675,-1.983672846570471
1539131783245598,-2.4719615472647547,2.9602502479590385,-2.166781109330941
1539131783261583,-5.096513313496644,2.8381780727854675,-2.655069810025225
1539131783277568,-6.500343327992596,2.4719615472647547,-2.7771419851987957
1539131783293553,-5.95101853971164,1.983672846570471,-2.288853284504512
1539131783309538,-4.60822461280236,1.1291676203554744,-1.4953841458761872
1539131783325523,-3.814755474174035,0.2746623941404778,-1.0681315327688026
1539131783341508,-3.936827649347606,-0.6408789196611906,-1.0070954451819034
1539131783357494,-3.4485389486533222,-0.8850232700083325,-1.1291676203554744
1539131783373479,-2.8992141603723667,-0.7019150072480898,-1.5564202334630863
1539131783389464,-2.5940337224383256,-0.7019150072480898,-2.227817196917613
1539131783405449,-1.4953841458761872,-0.5188067444876197,-2.5940337224383256
1539131783421434,0.03051804379333589,0.15259021896690683,-2.5940337224383256
1539131783437419,-0.5188067444876197,0.8850232700083325,-2.5940337224383256
1539131783453404,-1.8616006713969,1.6174563210497581,-2.4719615472647547
1539131783469299,-2.105745021744042,2.4719615472647547,-1.8005645838102282
1539131783485283,-1.0070954451819034,3.2043945983061803,-1.0681315327688026
1539131783501268,-0.2746623941404778,3.4485389486533222,-0.6408789196611906
1539131783517253,-0.8239871824216607,3.1433585107195086,-0.7019150072480898
1539131783533237,-1.3733119707026162,2.655069810025225,-1.1291676203554744
1539131783549222,-0.8239871824216607,2.166781109330941,-1.4343480582895154
1539131783565206,0.5798428320745188,1.6784924086366573,-1.3733119707026162
1539131783581191,1.1902037079423735,1.1902037079423735,-1.4953841458761872
1539131783597175,1.4953841458761872,0.7019150072480898,-1.4343480582895154
1539131783613160,1.0070954451819034,0.213626306553806,-1.8616006713969
1539131783629144,-0.3967345693140487,-0.09155413138023505,-2.5940337224383256
1539131783645129,-1.4343480582895154,0.15259021896690683,-3.2654306858930795
1539131783661113,-2.227817196917613,0.2746623941404778,-3.692683299000464
1539131783677098,-2.8381780727854675,0.15259021896690683,-3.7537193865873633
1539131783693082,-2.3498893720911838,-0.213626306553806,-3.2654306858930795
1539131783709067,-3.3264667734797513,-0.5798428320745188,-2.8992141603723667
1539131783725052,-5.157549401083315,-0.7629510948347615,-2.7161058976118966
1539131783741036,-7.11070420386045,-0.8850232700083325,-2.7161058976118966
1539131783757021,-8.148317692835917,-0.5798428320745188,-3.0212863355459376
1539131783773005,-7.2938124666209205,-0.15259021896690683,-2.8381780727854675
1539131783788940,-4.486152437628789,0.3967345693140487,-1.8616006713969
1539131783804924,-2.3498893720911838,1.0070954451819034,-0.45777065690094787
1539131783820908,-0.7629510948347615,1.8616006713969,1.1902037079423735
1539131783836892,-0.03051804379333589,2.166781109330941,2.7771419851987957
1539131783852876,0.09155413138023505,1.6784924086366573,4.058899824521177
1539131783868860,0.6408789196611906,0.9460593575952316,4.730296787975931
1539131783884844,2.227817196917613,-0.15259021896690683,4.9134050507361735
1539131783900828,3.3875028610666504,-1.0681315327688026,4.364080262455218
1539131783916813,3.3875028610666504,-1.5564202334630863,3.2043945983061803
1539131783932797,2.7771419851987957,-1.4953841458761872,2.227817196917613
1539131783948781,1.0681315327688026,-1.3122758831159445,1.1291676203554744
1539131783964765,-0.15259021896690683,-1.0681315327688026,0.7019150072480898
1539131783980749,-0.5188067444876197,-1.0681315327688026,1.0681315327688026
1539131783996733,0.09155413138023505,-0.9460593575952316,1.6174563210497581
1539131784012717,2.4719615472647547,-0.9460593575952316,2.166781109330941
1539131784028701,5.95101853971164,-1.0070954451819034,2.7771419851987957
1539131784044685,7.17174029144735,-0.6408789196611906,3.1433585107195086
1539131784060669,5.096513313496644,-0.09155413138023505,2.8992141603723667
1539131784076653,1.2512397955290453,0.33569848172737693,2.105745021744042
1539131784092637,-2.7771419851987957,0.7629510948347615,1.2512397955290453
1539131784108551,-7.11070420386045,0.3967345693140487,-0.45777065690094787
1539131784124535,-10.101472495613052,-0.213626306553806,-2.105745021744042
1539131784140519,-10.711833371480907,-0.5188067444876197,-3.1433585107195086
1539131784156503,-7.17174029144735,0.5798428320745188,-2.8992141603723667
1539131784172487,-5.828946364538069,1.0070954451819034,-2.9602502479590385
1539131784188471,-5.645838101777599,1.2512397955290453,-2.8381780727854675
1539131784204455,-6.500343327992596,0.6408789196611906,-2.8992141603723667
1539131784220439,-5.401693751430457,-0.213626306553806,-2.5940337224383256
1539131784236423,-2.8992141603723667,-0.7629510948347615,-2.227817196917613
1539131784252407,-1.5564202334630863,-1.0070954451819034,-2.3498893720911838
1539131784268391,-1.5564202334630863,-0.7019150072480898,-2.9602502479590385
1539131784284375,-1.739528496223329,-0.2746623941404778,-3.4485389486533222
1539131784300359,-1.2512397955290453,0.213626306553806,-3.3875028610666504
1539131784316343,-1.739528496223329,0.5188067444876197,-3.5095750362402214
1539131784332327,-1.8616006713969,0.8239871824216607,-3.2654306858930795
1539131784348312,-1.3122758831159445,0.7629510948347615,-2.7771419851987957
1539131784364296,-0.03051804379333589,0.33569848172737693,-2.04470893415737
1539131784380280,1.1902037079423735,0.213626306553806,-1.2512397955290453
1539131784396264,1.5564202334630863,0.15259021896690683,-0.7629510948347615
1539131784412248,1.4343480582895154,-0.09155413138023505,-0.5798428320745188
1539131784428161,2.105745021744042,0.09155413138023505,-0.15259021896690683
1539131784444145,3.0212863355459376,0.6408789196611906,0.15259021896690683
1539131784460128,2.8381780727854675,0.7019150072480898,0.03051804379333589
1539131784476112,2.9602502479590385,1.0681315327688026,0.15259021896690683
1539131784492096,3.3264667734797513,1.4953841458761872,0.6408789196611906
1539131784508079,2.5940337224383256,1.8005645838102282,0.8850232700083325
1539131784524063,1.5564202334630863,1.8616006713969,1.0681315327688026
1539131784540046,0.9460593575952316,1.6784924086366573,1.1291676203554744
1539131784556030,1.1902037079423735,1.4953841458761872,1.0681315327688026
1539131784572013,2.166781109330941,1.2512397955290453,1.1902037079423735
1539131784587997,4.119935912108076,1.6174563210497581,1.5564202334630863
1539131784603981,4.547188525215461,1.8616006713969,1.6784924086366573
1539131784619964,3.2654306858930795,2.288853284504512,1.5564202334630863
1539131784635948,1.1291676203554744,2.166781109330941,0.8850232700083325
1539131784651931,0.213626306553806,2.166781109330941,0.6408789196611906
1539131784667915,0.5798428320745188,1.8005645838102282,0.45777065690094787
1539131784683899,1.739528496223329,1.3122758831159445,0.45777065690094787
1539131784699882,2.8381780727854675,1.0681315327688026,0.5188067444876197
1539131784715866,2.166781109330941,0.5798428320745188,0.213626306553806
1539131784731849,0.03051804379333589,-0.09155413138023505,-0.3967345693140487
1539131784747772,-0.45777065690094787,-0.213626306553806,-0.7629510948347615
1539131784763755,1.0681315327688026,-0.03051804379333589,-0.9460593575952316
1539131784779739,2.227817196917613,0.213626306553806,-1.0070954451819034
1539131784795723,0.9460593575952316,0.15259021896690683,-1.0070954451819034
1539131784811706,-0.9460593575952316,0.2746623941404778,-1.4343480582895154
1539131784827690,-1.739528496223329,0.33569848172737693,-1.3733119707026162
1539131784843673,-0.9460593575952316,0.45777065690094787,-1.2512397955290453
1539131784859657,0.9460593575952316,0.3967345693140487,-1.1902037079423735
1539131784875640,1.983672846570471,0.3967345693140487,-1.1902037079423735
1539131784891624,1.5564202334630863,0.15259021896690683,-1.3122758831159445
1539131784907608,-0.213626306553806,-0.33569848172737693,-1.4953841458761872
1539131784923591,-1.2512397955290453,-0.45777065690094787,-1.4953841458761872
1539131784939575,-0.6408789196611906,-0.3967345693140487,-1.2512397955290453
1539131784955558,0.6408789196611906,-0.45777065690094787,-0.9460593575952316
1539131784971542,0.9460593575952316,-0.33569848172737693,-0.7019150072480898
1539131784987526,0.7019150072480898,-0.15259021896690683,-0.2746623941404778
1539131785003509,0.3967345693140487,-0.03051804379333589,0.03051804379333589
1539131785019493,-0.45777065690094787,0.213626306553806,0.03051804379333589
1539131785035476,-0.7019150072480898,0.45777065690094787,0.2746623941404778
1539131785051460,-0.09155413138023505,0.5188067444876197,0.5188067444876197
1539131785067382,1.0070954451819034,0.33569848172737693,1.0681315327688026
1539131785083366,1.3733119707026162,0.03051804379333589,1.1902037079423735
1539131785099349,0.8850232700083325,-0.09155413138023505,0.9460593575952316
1539131785115332,0.6408789196611906,0.33569848172737693,0.8850232700083325
1539131785131315,0.8850232700083325,0.9460593575952316,0.8850232700083325
1539131785147298,1.6174563210497581,1.4953841458761872,1.2512397955290453
1539131785163281,2.3498893720911838,1.8616006713969,1.8616006713969
1539131785179264,2.4719615472647547,2.3498893720911838,2.3498893720911838
1539131785195247,2.410925459678083,2.9602502479590385,2.4719615472647547
1539131785211230,1.0681315327688026,3.6316472114137923,2.04470893415737
1539131785227213,0.2746623941404778,3.692683299000464,1.4343480582895154
1539131785243197,0.5188067444876197,3.0212863355459376,0.9460593575952316
1539131785259180,2.288853284504512,2.288853284504512,0.8850232700083325
1539131785275163,3.7537193865873633,1.1291676203554744,1.1902037079423735
1539131785291146,4.303044174868319,0.2746623941404778,1.0681315327688026
1539131785307129,1.983672846570471,-0.8239871824216607,-0.03051804379333589
1539131785323112,-0.6408789196611906,-1.8616006713969,-1.8616006713969
1539131785339095,-1.0070954451819034,-2.04470893415737,-2.166781109330941
1539131785355078,0.7629510948347615,-1.4953841458761872,-0.45777065690094787
1539131785371061,3.570611123826893,-0.9460593575952316,2.4719615472647547
1539131785387024,5.706874189364498,-0.15259021896690683,6.134126802471883
1539131785403007,7.17174029144735,0.6408789196611906,9.613183794918768
1539131785418990,9.063859006637585,1.1902037079423735,12.481879911497572
1539131785434973,10.162508583199724,1.3122758831159445,13.76363775082018
1539131785450956,10.528725108720437,1.4343480582895154,13.275349050125897
1539131785466939,10.406652933546866,1.4953841458761872,12.359807736324
1539131785482922,8.575570305943302,0.9460593575952316,10.711833371480907
1539131785498905,6.561379415579495,0.213626306553806,8.941786831464015
1539131785514888,5.523765926604028,-0.5798428320745188,7.721065079728305
1539131785530871,6.683451590753066,-1.5564202334630863,7.476920729381163
1539131785546855,9.796292057679011,-2.7161058976118966,8.575570305943302
1539131785562838,12.603952086671143,-3.6316472114137923,10.162508583199724
1539131785578821,14.618142977035177,-3.875791561760934,11.444266422522333
1539131785594804,16.32715342946517,-3.5095750362402214,12.603952086671143
1539131785610787,16.632333867398984,-2.7161058976118966,13.336385137712568
1539131785626770,15.716792553597315,-1.8005645838102282,13.214312962538997
1539131785642753,13.885709925993751,-0.15259021896690683,12.359807736324
1539131785658736,11.871519035629717,1.3122758831159445,11.383230334935433
1539131785674719,8.026245517662346,2.532997634851654,9.430075532158298
1539131785690703,3.3875028610666504,3.4485389486533222,6.317235065232353
1539131785706634,-1.0681315327688026,3.570611123826893,2.8992141603723667
1539131785722617,-5.95101853971164,3.2654306858930795,-0.6408789196611906
1539131785738599,-11.07804989700162,2.7771419851987957,-3.814755474174035
1539131785754582,-19.562066071564686,2.227817196917613,-7.476920729381163
1539131785770565,-30.670634012359642,1.8005645838102282,-11.871519035629717
1539131785786547,-39.94811932555126,2.7771419851987957,-16.693369954985883
1539131785802530,-41.22987716487387,5.95101853971164,-19.9893186846723
1539131785818513,-32.623788815137004,10.406652933546866,-19.9893186846723
1539131785834495,-16.08300907911803,12.787060349431613,-17.24269474326684
1539131785850478,1.0070954451819034,12.909132524605184,-13.397421225299468
1539131785866460,9.185931181811156,13.092240787365427,-10.89494163424115
1539131785882443,9.491111619745197,13.153276874952326,-9.85732814526591
1539131785898426,2.227817196917613,12.909132524605184,-10.101472495613052
1539131785914408,-1.8005645838102282,12.359807736324,-10.955977721828049
1539131785930391,-0.8239871824216607,11.07804989700162,-11.139085984588291
1539131785946374,6.378271152819025,9.918364232852582,-10.772869459067579
1539131785962356,14.251926451514464,8.758678568703772,-10.589761196307336
1539131785978339,19.439993896391115,8.148317692835917,-11.07804989700162
1539131785994321,20.965896086060866,7.965209430075447,-11.688410772869474
1539131786010304,22.064545662623004,7.476920729381163,-11.871519035629717
1539131786026245,23.89562829022657,7.049668116273779,-10.711833371480907
1539131786042227,18.89066910811016,7.11070420386045,-9.67421988250544
1539131786058210,9.613183794918768,7.354848554207592,-9.491111619745197
1539131786074193,-0.15259021896690683,7.049668116273779,-9.430075532158298
1539131786090175,-4.180971999694748,6.500343327992596,-8.51453421835663
1539131786106158,-2.166781109330941,5.706874189364498,-6.805523765926637
1539131786122141,2.8992141603723667,5.889982452124741,-5.3406576638437855
1539131786138123,9.063859006637585,7.4158846417944915,-4.058899824521177
1539131786154106,12.298771648737329,9.73525597009234,-3.3875028610666504
1539131786170088,9.613183794918768,10.89494163424115,-3.3875028610666504
1539131786186071,4.242008087281647,10.406652933546866,-3.1433585107195086
1539131786202054,5.157549401083315,8.819714656290444,-1.2512397955290453
1539131786218036,10.101472495613052,7.721065079728305,2.04470893415737
1539131786234019,12.909132524605184,7.660028992141633,4.60822461280236
1539131786250002,14.80125123979542,7.904173342488775,5.706874189364498
1539131786265984,14.80125123979542,7.660028992141633,6.622415503166167
1539131786281967,11.993591210803288,6.744487678339738,7.598992904554734
1539131786297949,9.185931181811156,5.279621576256886,7.721065079728305
1539131786313932,5.76791027695117,2.8381780727854675,8.026245517662346
1539131786329915,7.17174029144735,0.8850232700083325,8.270389868009488
1539131786345855,10.589761196307336,-1.6174563210497581,8.697642481116873
1539131786361838,11.139085984588291,-4.42511635004189,8.209353780422589
1539131786377821,9.67421988250544,-8.45349813076973,6.9886320286868795
1539131786393803,11.932555123216616,-14.129854276340893,8.026245517662346
1539131786409786,16.08300907911803,-22.064545662623004,9.308003356984727
1539131786425768,16.2050812542916,-27.80193789578084,6.439307240405924
1539131786441751,11.688410772869474,-25.726710917830133,-0.9460593575952316
1539131786457734,-13.45845731288614,-10.650797283894008,-3.936827649347606
1539131786473716,-6.9886320286868795,17.36476691844041,0.7019150072480898
1539131786489699,-3.2043945983061803,57.404440375371905,2.9602502479590385
1539131786505682,-11.07804989700162,103.91393911650266,-1.3122758831159445
1539131786521664,-14.251926451514464,153.23109788662532,3.692683299000464
1539131786537647,-1.2512397955290453,195.6511787594418,19.378957808804444
1539131786553630,14.740215152208748,219.76043335622217,28.412298771648693
1539131786569612,29.877164873731545,222.20187685969358,26.214999618524416
1539131786585595,28.351262684061794,206.21042191195556,20.05035477225897
1539131786601577,7.049668116273779,178.2558937972076,19.867246509498727
1539131786617560,2.4719615472647547,144.31982909895487,21.637293049515392
1539131786633543,13.45845731288614,115.02250705729784,21.51522087434182
1539131786649525,33.478294041351774,90.18081940947604,22.73594262607753
1539131786665466,35.67559319447605,66.68192568856375,23.95666437781324
1539131786681448,34.39383535515367,44.7699702449072,21.026932173647538
1539131786697430,28.96162355992965,26.031891355763946,19.256885633630873
1539131786713412,27.496757457846797,12.23773556115043,19.1348134584573
1539131786729395,21.57625696192872,2.4719615472647547,17.975127794308264
1539131786745377,19.073777370870403,-6.744487678339738,17.24269474326684
1539131786761359,11.566338597695903,-16.693369954985883,16.1440451667047
1539131786777341,9.063859006637585,-31.158922713053926,14.068818188753994
1539131786793323,-1.8005645838102282,-51.117723353933116,15.838864728770886
1539131786809305,-21.27107652399468,-76.81391622796968,18.524452582589447
1539131786825287,-44.15960936903957,-115.63286793316547,17.79201953154802
1539131786841270,-55.20714122224763,-177.7676050965133,8.026245517662346
1539131786857252,-28.839551384756078,-254.67307545586323,-7.11070420386045
1539131786873234,-2.3498893720911838,-346.9596398870833,-30.792706187533213
1539131786889216,-1.0681315327688026,-448.9509422446022,-52.82673380636311
1539131786905198,78.95017929350752,-328.0384527351796,-22.369726100556818
1539131786921180,181.24666208895997,-20.416571297779683,38.17807278553437
1539131786937163,-17.24269474326684,22.919050888838,15.838864728770886
1539131786953145,-13.031204699778755,0.5798428320745188,3.692683299000464
1539131786969127,-33.29518577859176,-20.538643472953254,-9.979400320439481
1539131786985077,-47.57763027389956,-37.56771190966674,-23.163195239185143
1539131787001059,-70.34409094377042,-42.26749065384911,-37.14045929655913
1539131787017041,-98.17654688334483,-20.599679560540153,-40.00915541313816
1539131787033023,-12.115663385976859,35.73662928206295,-35.614557106889606
1539131787049005,-34.332799267567,80.04882887006943,-26.39810788128466
1539131787064987,-27.496757457846797,107.8812848096436,-23.529411764705856
1539131787080969,-22.79697871366443,119.53917753871974,-19.9282825970854
1539131787096952,-2.8992141603723667,119.11192492561213,-15.594720378423744
1539131787112934,3.570611123826893,106.11123826962694,-11.20012207217519
1539131787128916,1.8616006713969,82.73441672388799,-6.805523765926637
1539131787144898,2.7771419851987957,53.68123903257765,-5.584802014190927
1539131787160880,3.4485389486533222,24.01770046540014,-5.828946364538069
1539131787176862,9.430075532158298,-0.3967345693140487,-4.9134050507361735
1539131787192844,7.598992904554734,-17.79201953154802,-2.532997634851654
1539131787208827,7.782101167315204,-29.755092698557974,-0.7629510948347615
1539131787224809,8.33142595559616,-39.03257801174959,2.166781109330941
1539131787240791,8.270389868009488,-43.54924849317172,4.9134050507361735
1539131787256773,5.706874189364498,-40.680552376592686,7.782101167315204
1539131787272755,2.166781109330941,-32.99000534065772,10.284580758373295
1539131787288737,3.1433585107195086,-27.008468757152514,11.383230334935433
1539131787304687,9.063859006637585,-24.872205691615136,10.955977721828049
1539131787320669,10.650797283894008,-23.95666437781324,11.261158159761862
1539131787336651,10.345616845960194,-19.562066071564686,9.491111619745197
1539131787352634,6.378271152819025,-13.76363775082018,6.9886320286868795
1539131787368616,3.814755474174035,-11.139085984588291,4.303044174868319
1539131787384598,5.096513313496644,-13.946746013580423,1.0070954451819034
1539131787400580,7.11070420386045,-15.716792553597315,-1.6174563210497581
1539131787416562,4.180971999694748,-15.960936903944457,-3.875791561760934
1539131787432544,0.33569848172737693,-15.533684290836845,-6.744487678339738
1539131787448526,-0.09155413138023505,-15.655756466010416,-8.880750743877343
1539131787464509,2.410925459678083,-19.9282825970854,-10.650797283894008
1539131787480491,2.166781109330941,-24.811169604028237,-12.603952086671143
1539131787496473,-1.0070954451819034,-25.23842221713585,-13.275349050125897
1539131787512455,-5.645838101777599,-23.041123064011572,-12.909132524605184
1539131787528437,-4.119935912108076,-25.36049439230942,-12.4208438239109
1539131787544419,3.1433585107195086,-28.96162355992965,-10.650797283894008
1539131787560402,9.002822919050914,-31.464103150988194,-8.33142595559616
1539131787576384,-22.247653925383247,-23.651483939879427,-6.256198977645454
1539131787592366,-25.05531395437538,6.134126802471883,-6.8665598535133086
1539131787608348,4.669260700389032,19.9893186846723,-2.532997634851654
1539131787624298,35.67559319447605,10.101472495613052,4.547188525215461
1539131787640280,37.44563973449294,-0.7629510948347615,5.523765926604028
1539131787656262,15.10643167772946,-1.6784924086366573,2.655069810025225
1539131787672244,-2.655069810025225,-0.2746623941404778,0.3967345693140487
1539131787688226,-6.8665598535133086,0.213626306553806,-1.0070954451819034
1539131787704208,-9.491111619745197,0.6408789196611906,-1.1291676203554744
1539131787720191,-10.589761196307336,0.8239871824216607,-1.2512397955290453
1539131787736173,-5.462729839017356,1.1291676203554744,-0.03051804379333589
1539131787752155,0.7019150072480898,2.7161058976118966,1.4343480582895154
1539131787768137,6.012054627298312,3.875791561760934,2.8992141603723667
1539131787784119,8.33142595559616,3.5095750362402214,3.692683299000464
1539131787800101,6.744487678339738,3.2654306858930795,3.6316472114137923
1539131787816084,3.5095750362402214,2.105745021744042,2.7771419851987957
1539131787832066,1.983672846570471,1.6174563210497581,1.983672846570471
1539131787848048,2.655069810025225,1.6174563210497581,1.3733119707026162
1539131787864030,2.8381780727854675,1.8005645838102282,0.45777065690094787
1539131787880012,1.983672846570471,2.532997634851654,-0.7019150072480898
1539131787895994,0.03051804379333589,3.1433585107195086,-1.5564202334630863
1539131787911976,-2.4719615472647547,3.5095750362402214,-2.5940337224383256
1539131787927959,-3.3875028610666504,3.6316472114137923,-2.8992141603723667
1539131787943908,-4.364080262455218,2.532997634851654,-3.0823224231326094
1539131787959890,-3.1433585107195086,1.3733119707026162,-3.0212863355459376
1539131787975872,-0.8239871824216607,0.5798428320745188,-2.4719615472647547
1539131787991853,1.2512397955290453,0.09155413138023505,-2.105745021744042
1539131788007835,-0.33569848172737693,-0.8239871824216607,-2.5940337224383256
1539131788023817,-2.532997634851654,-1.983672846570471,-2.7771419851987957
1539131788039798,-3.2043945983061803,-3.2043945983061803,-2.4719615472647547
1539131788055780,-0.9460593575952316,-3.2043945983061803,-1.3122758831159445
1539131788071762,3.1433585107195086,-2.105745021744042,0.5188067444876197
1539131788087743,6.012054627298312,-0.5798428320745188,2.166781109330941
1539131788103725,3.997863736934505,1.0681315327688026,2.7771419851987957
1539131788119707,-2.105745021744042,2.3498893720911838,2.288853284504512
1539131788135688,-7.721065079728305,3.1433585107195086,1.4343480582895154
1539131788151670,-9.063859006637585,3.570611123826893,0.6408789196611906
1539131788167652,-6.073090714885211,4.242008087281647,0.15259021896690683
1539131788183633,-1.8616006713969,4.180971999694748,-0.3967345693140487
1539131788199615,-0.213626306553806,3.936827649347606,-1.1902037079423735
1539131788215597,-2.8381780727854675,3.5095750362402214,-2.288853284504512
1539131788231578,-8.087281605249018,2.4719615472647547,-3.814755474174035
1539131788247560,-12.298771648737329,1.3733119707026162,-5.462729839017356
1539131788263519,-11.322194247348762,0.7629510948347615,-6.073090714885211
1539131788279501,-5.645838101777599,1.0070954451819034,-5.279621576256886
1539131788295482,-1.0681315327688026,1.3122758831159445,-4.058899824521177
1539131788311464,-1.4953841458761872,1.5564202334630863,-3.6316472114137923
1539131788327446,-4.9134050507361735,1.4953841458761872,-3.7537193865873633
1539131788343427,-7.4158846417944915,0.8850232700083325,-3.936827649347606
1539131788359409,-4.852368963149502,0.7019150072480898,-3.0823224231326094
1539131788375391,0.6408789196611906,1.1902037079423735,-1.2512397955290453
1539131788391372,3.3264667734797513,1.3122758831159445,0.213626306553806
1539131788407354,1.9226367589837992,0.9460593575952316,0.6408789196611906
1539131788423336,0.8850232700083325,0.7019150072480898,1.3122758831159445
1539131788439317,1.4953841458761872,0.33569848172737693,2.04470893415737
1539131788455299,4.42511635004189,0.213626306553806,3.2043945983061803
1539131788471281,6.683451590753066,-0.09155413138023505,4.364080262455218
1539131788487262,6.439307240405924,-0.5188067444876197,5.157549401083315
1539131788503244,4.669260700389032,-1.1291676203554744,5.2185854886702145
1539131788519226,2.532997634851654,-1.8005645838102282,4.669260700389032
1539131788535207,2.04470893415737,-1.8005645838102282,3.936827649347606
1539131788551189,3.6316472114137923,-1.3122758831159445,3.6316472114137923
1539131788567171,4.303044174868319,-0.7629510948347615,3.5095750362402214
1539131788583130,3.0212863355459376,-0.33569848172737693,3.2654306858930795
1539131788599111,0.8239871824216607,0.03051804379333589,2.8381780727854675
1539131788615093,-0.5188067444876197,0.2746623941404778,2.655069810025225
1539131788631075,0.5798428320745188,0.5188067444876197,3.1433585107195086
1539131788647056,3.0823224231326094,0.5798428320745188,4.119935912108076
1539131788663038,4.974441138323073,0.5798428320745188,4.9134050507361735
1539131788679020,4.60822461280236,0.15259021896690683,4.852368963149502
1539131788695001,3.0212863355459376,-0.5798428320745188,4.180971999694748
1539131788710983,1.6784924086366573,-0.7019150072480898,3.1433585107195086
1539131788726965,1.1902037079423735,-0.7019150072480898,2.105745021744042
1539131788742946,1.6174563210497581,-0.5188067444876197,1.2512397955290453
1539131788758928,2.3498893720911838,-0.33569848172737693,0.213626306553806
1539131788774910,2.3498893720911838,0.09155413138023505,-0.7019150072480898
1539131788790891,1.4953841458761872,0.7629510948347615,-1.4343480582895154
1539131788806873,-0.5798428320745188,1.2512397955290453,-2.04470893415737
1539131788822855,-2.8381780727854675,1.4953841458761872,-2.3498893720911838
1539131788838836,-4.42511635004189,1.3122758831159445,-2.410925459678083
1539131788854818,-3.3264667734797513,0.9460593575952316,-1.8616006713969
1539131788870800,-0.8850232700083325,0.45777065690094787,-0.9460593575952316
1539131788886781,0.5188067444876197,-0.09155413138023505,-0.2746623941404778
1539131788902740,1.0681315327688026,-0.8239871824216607,0.213626306553806
1539131788918722,0.45777065690094787,-1.3122758831159445,0.15259021896690683
1539131788934703,-0.03051804379333589,-1.6174563210497581,-0.3967345693140487
1539131788950685,1.0681315327688026,-1.2512397955290453,-0.7629510948347615
1539131788966667,3.0823224231326094,-0.7019150072480898,-0.8239871824216607
1539131788982648,4.303044174868319,-0.09155413138023505,-0.5798428320745188
1539131788998630,3.0823224231326094,0.5188067444876197,-0.7629510948347615
1539131789014612,0.45777065690094787,1.1291676203554744,-1.0681315327688026
1539131789030593,-1.6174563210497581,1.6174563210497581,-1.0681315327688026
1539131789046575,-1.3733119707026162,1.6174563210497581,-0.6408789196611906
1539131789062557,0.09155413138023505,1.4953841458761872,-0.09155413138023505
1539131789078539,1.1902037079423735,1.5564202334630863,0.15259021896690683
1539131789094520,1.4953841458761872,1.4343480582895154,-0.3967345693140487
1539131789110502,0.5798428320745188,1.3122758831159445,-1.1291676203554744
1539131789126484,-0.2746623941404778,1.1902037079423735,-1.8616006713969
1539131789142465,0.33569848172737693,1.2512397955290453,-1.983672846570471
1539131789158447,1.2512397955290453,1.2512397955290453,-1.739528496223329
1539131789174429,0.7019150072480898,1.3733119707026162,-1.5564202334630863
1539131789190410,-0.3967345693140487,1.4343480582895154,-1.4343480582895154
1539131789206392,-0.8239871824216607,1.3733119707026162,-1.0070954451819034
1539131789222351,-1.0070954451819034,1.0681315327688026,-0.5188067444876197
1539131789238332,-0.45777065690094787,0.7629510948347615,0.03051804379333589
1539131789254314,0.9460593575952316,0.5798428320745188,0.6408789196611906
1539131789270296,1.3733119707026162,0.3967345693140487,0.8239871824216607
1539131789286277,1.3122758831159445,0.33569848172737693,0.8239871824216607
1539131789302259,0.8850232700083325,0.5798428320745188,0.6408789196611906
1539131789318241,-0.15259021896690683,0.8850232700083325,0.213626306553806
1539131789334222,-1.3733119707026162,1.3733119707026162,-0.3967345693140487
1539131789350204,-1.4343480582895154,1.739528496223329,-0.7629510948347615
1539131789366186,0.03051804379333589,2.288853284504512,-0.45777065690094787
1539131789382167,1.3733119707026162,2.8992141603723667,0.213626306553806
1539131789398149,1.5564202334630863,3.3264667734797513,0.9460593575952316
1539131789414131,0.5188067444876197,3.2654306858930795,1.4343480582895154
1539131789430112,-0.33569848172737693,2.7771419851987957,1.983672846570471
1539131789446094,-0.3967345693140487,2.04470893415737,2.3498893720911838
1539131789462076,0.7019150072480898,1.4343480582895154,2.4719615472647547
1539131789478057,1.0681315327688026,0.8850232700083325,2.04470893415737
1539131789494039,-0.03051804379333589,0.09155413138023505,0.6408789196611906
1539131789510021,-1.6174563210497581,-0.8239871824216607,-1.3122758831159445
1539131789526003,-2.5940337224383256,-1.1902037079423735,-3.0212863355459376
1539131789541961,-1.6784924086366573,-1.2512397955290453,-4.242008087281647
1539131789557942,0.33569848172737693,-0.7019150072480898,-4.486152437628789
1539131789573924,1.2512397955290453,0.15259021896690683,-4.119935912108076
1539131789589905,0.5798428320745188,0.7019150072480898,-3.3264667734797513
1539131789605886,-1.1902037079423735,0.8850232700083325,-2.166781109330941
1539131789621867,-2.105745021744042,0.6408789196611906,-1.0681315327688026
1539131789637848,-1.6784924086366573,0.5798428320745188,0.03051804379333589
1539131789653830,0.33569848172737693,0.5188067444876197,0.8239871824216607
1539131789669811,2.3498893720911838,-0.03051804379333589,1.0070954451819034
1539131789685792,2.9602502479590385,-0.6408789196611906,0.7019150072480898
1539131789701773,2.4719615472647547,-1.0681315327688026,0.15259021896690683
1539131789717754,0.6408789196611906,-1.3122758831159445,-0.6408789196611906
1539131789733736,-0.5188067444876197,-0.8850232700083325,-1.2512397955290453
1539131789749717,-0.45777065690094787,0.03051804379333589,-1.4343480582895154
1539131789765698,0.09155413138023505,0.8239871824216607,-1.2512397955290453
1539131789781679,1.0681315327688026,0.7629510948347615,-1.1291676203554744
1539131789797660,4.486152437628789,0.45777065690094787,-0.7019150072480898
1539131789813642,8.880750743877343,0.2746623941404778,0.2746623941404778
1539131789829623,12.359807736324,0.15259021896690683,1.3733119707026162
1539131789845604,13.58052948805971,-1.1902037079423735,1.8005645838102282
1539131789861602,14.557106889448278,-2.166781109330941,2.166781109330941
1539131789877584,14.98435950255589,-2.288853284504512,2.9602502479590385
1539131789893565,10.955977721828049,-2.4719615472647547,2.8381780727854675
1539131789909546,5.0354772259097444,-2.288853284504512,2.04470893415737
1539131789925527,3.2043945983061803,-1.8616006713969,0.7629510948347615
1539131789941508,7.537956816968062,-0.9460593575952316,0.213626306553806
1539131789957490,13.64156557564661,0.8239871824216607,0.33569848172737693
1539131789973471,14.98435950255589,2.532997634851654,0.2746623941404778
1539131789989452,8.6366063935302,4.303044174868319,-0.2746623941404778
1539131790005433,-1.5564202334630863,5.279621576256886,-1.9226367589837992
1539131790021414,-7.843137254901876,5.3406576638437855,-2.8381780727854675
1539131790037396,-7.354848554207592,5.706874189364498,-2.8381780727854675
1539131790053377,-1.6174563210497581,5.76791027695117,-1.8616006713969
1539131790069358,4.303044174868319,5.401693751430457,-0.6408789196611906
1539131790085339,6.744487678339738,4.364080262455218,-0.6408789196611906
1539131790101320,6.561379415579495,3.4485389486533222,-0.7019150072480898
1539131790117302,3.692683299000464,3.0212863355459376,-0.7629510948347615
1539131790133283,0.213626306553806,2.4719615472647547,-1.2512397955290453
1539131790149264,-0.213626306553806,2.166781109330941,-1.0681315327688026
1539131790165245,1.1902037079423735,2.532997634851654,-0.5188067444876197
1539131790181213,2.8381780727854675,2.655069810025225,-0.03051804379333589
1539131790197194,3.2043945983061803,2.5940337224383256,0.7019150072480898
1539131790213175,2.5940337224383256,2.04470893415737,0.9460593575952316
1539131790229157,2.532997634851654,1.5564202334630863,1.4343480582895154
1539131790245138,3.875791561760934,1.1902037079423735,1.9226367589837992
1539131790261119,5.279621576256886,0.8239871824216607,2.3498893720911838
1539131790277100,6.195162890058782,0.7629510948347615,2.166781109330941
1539131790293081,5.645838101777599,0.6408789196611906,1.1291676203554744
1539131790309063,5.3406576638437855,0.5798428320745188,-0.2746623941404778
1539131790325044,7.4158846417944915,0.7629510948347615,-1.1902037079423735
1539131790341025,11.07804989700162,1.3122758831159445,-1.1291676203554744
1539131790357006,13.519493400473038,2.288853284504512,-0.6408789196611906
1539131790372987,12.542915999084471,3.0212863355459376,0.03051804379333589
1539131790388969,8.026245517662346,3.570611123826893,0.15259021896690683
1539131790404950,2.532997634851654,3.692683299000464,-0.2746623941404778
1539131790420931,-0.33569848172737693,3.875791561760934,-0.5188067444876197
1539131790436912,0.2746623941404778,3.7537193865873633,-0.5188067444876197
1539131790452893,2.4719615472647547,3.7537193865873633,-0.5188067444876197
1539131790468875,4.303044174868319,3.692683299000464,-0.8239871824216607
1539131790484856,4.852368963149502,3.0212863355459376,-1.4953841458761872
1539131790500824,2.4719615472647547,2.166781109330941,-2.288853284504512
1539131790516805,0.09155413138023505,1.6174563210497581,-2.655069810025225
1539131790532786,-0.5188067444876197,1.4953841458761872,-2.9602502479590385
1539131790548767,0.6408789196611906,1.6174563210497581,-2.7771419851987957
1539131790564748,3.1433585107195086,1.983672846570471,-1.983672846570471
1539131790580730,5.523765926604028,2.3498893720911838,-1.1291676203554744
1539131790596711,5.889982452124741,2.8381780727854675,-0.213626306553806
1539131790612692,3.0823224231326094,2.655069810025225,-0.09155413138023505
1539131790628673,0.213626306553806,1.8616006713969,-0.213626306553806
1539131790644654,-0.2746623941404778,1.4343480582895154,-0.2746623941404778
1539131790660636,1.6784924086366573,1.1291676203554744,-0.15259021896690683
1539131790676617,4.058899824521177,0.8850232700083325,0.15259021896690683
1539131790692598,5.401693751430457,0.5798428320745188,0.6408789196611906
1539131790708579,5.523765926604028,0.09155413138023505,0.9460593575952316
1539131790724560,3.3264667734797513,-0.5798428320745188,0.8239871824216607
1539131790740542,3.1433585107195086,-1.1902037079423735,0.7019150072480898
1539131790756523,5.706874189364498,-1.1291676203554744,1.2512397955290453
1539131790772504,8.6366063935302,-0.33569848172737693,2.166781109330941
1539131790788485,12.848096437018285,0.5188067444876197,2.7771419851987957
1539131790804466,15.899900816357558,1.4343480582895154,2.9602502479590385
1539131790820434,17.914091706721592,1.8005645838102282,3.2043945983061803
1539131790836415,17.120622568093268,2.410925459678083,3.1433585107195086
1539131790852397,12.298771648737329,2.410925459678083,2.4719615472647547
1539131790868378,8.33142595559616,1.6174563210497581,1.2512397955290453
1539131790884359,8.941786831464015,1.0070954451819034,1.1291676203554744
1539131790900340,13.824673838406852,1.739528496223329,2.9602502479590385
1539131790916321,15.594720378423744,2.9602502479590385,3.692683299000464
1539131790932303,13.824673838406852,3.1433585107195086,2.8992141603723667
1539131790948284,11.07804989700162,2.410925459678083,1.6784924086366573
1539131790964265,12.115663385976859,1.3733119707026162,0.8850232700083325
1539131790980246,12.970168612191856,1.1902037079423735,0.5798428320745188
1539131790996227,13.58052948805971,2.04470893415737,1.2512397955290453
1539131791012209,12.359807736324,2.655069810025225,1.1902037079423735
1539131791028190,8.575570305943302,2.227817196917613,0.6408789196611906
1539131791044171,5.645838101777599,1.5564202334630863,-0.45777065690094787
1539131791060152,4.730296787975931,1.6174563210497581,-0.7019150072480898
1539131791076133,4.60822461280236,2.410925459678083,-0.15259021896690683
1539131791092115,4.974441138323073,2.3498893720911838,1.3122758831159445
1539131791108096,2.655069810025225,1.6784924086366573,2.227817196917613
1539131791124077,-0.45777065690094787,1.5564202334630863,1.9226367589837992
1539131791140045,-0.3967345693140487,1.4953841458761872,1.1291676203554744
1539131791156026,4.547188525215461,1.6784924086366573,1.2512397955290453
1539131791172007,10.406652933546866,2.410925459678083,1.8005645838102282
1539131791187988,16.1440451667047,3.0823224231326094,2.288853284504512
1539131791203970,21.637293049515392,3.0823224231326094,2.8992141603723667
1539131791219951,25.848783093003703,3.2043945983061803,4.242008087281647
1539131791235932,27.069504844739413,3.0823224231326094,4.974441138323073
1539131791251913,25.848783093003703,2.655069810025225,5.95101853971164
1539131791267894,19.1348134584573,2.166781109330941,5.2185854886702145
1539131791283876,10.955977721828049,1.6174563210497581,3.6316472114137923
1539131791299857,5.645838101777599,1.1291676203554744,2.8992141603723667
1539131791315838,3.4485389486533222,1.5564202334630863,3.3875028610666504
1539131791331819,1.3122758831159445,1.739528496223329,3.4485389486533222
1539131791347800,-2.4719615472647547,1.6784924086366573,1.8005645838102282
1539131791363782,-3.997863736934505,1.8616006713969,1.0681315327688026
1539131791379763,-2.410925459678083,2.5940337224383256,1.4953841458761872
1539131791395744,-1.3122758831159445,3.1433585107195086,1.8616006713969
1539131791411725,0.03051804379333589,3.3875028610666504,2.4719615472647547
1539131791427706,1.1291676203554744,3.5095750362402214,3.1433585107195086
1539131791443688,1.3733119707026162,3.6316472114137923,3.3264667734797513
1539131791459655,0.7629510948347615,3.570611123826893,3.2654306858930795
1539131791475637,-0.7019150072480898,3.2043945983061803,3.0823224231326094
1539131791491618,-2.4719615472647547,2.7771419851987957,2.5940337224383256
1539131791507599,-2.410925459678083,2.655069810025225,1.9226367589837992
1539131791523580,-1.4343480582895154,2.7771419851987957,1.6784924086366573
1539131791539561,0.2746623941404778,2.8381780727854675,1.4953841458761872
1539131791555543,-0.15259021896690683,2.655069810025225,1.1291676203554744
1539131791571524,-1.3733119707026162,2.410925459678083,0.33569848172737693
1539131791587505,-2.5940337224383256,2.166781109330941,-0.213626306553806
1539131791603486,-2.8992141603723667,2.04470893415737,-0.5188067444876197
1539131791619467,-2.655069810025225,1.6784924086366573,-1.1291676203554744
1539131791635449,-2.410925459678083,1.6174563210497581,-1.2512397955290453
1539131791651430,-1.0681315327688026,1.8616006713969,-1.4343480582895154
1539131791667411,-0.9460593575952316,1.6174563210497581,-1.739528496223329
1539131791683392,-2.227817196917613,1.739528496223329,-2.04470893415737
1539131791699373,-3.2654306858930795,1.9226367589837992,-2.532997634851654
1539131791715355,-3.3875028610666504,1.3733119707026162,-2.8992141603723667
1539131791731336,-2.166781109330941,1.3733119707026162,-2.7771419851987957
1539131791747317,1.1291676203554744,1.3733119707026162,-2.3498893720911838
1539131791763298,4.42511635004189,1.4343480582895154,-1.6174563210497581
1539131791779266,5.096513313496644,1.5564202334630863,-1.4343480582895154
1539131791795247,2.5940337224383256,1.6784924086366573,-1.5564202334630863
1539131791811228,-0.09155413138023505,1.2512397955290453,-1.9226367589837992
1539131791827210,0.5188067444876197,0.8850232700083325,-1.3122758831159445
1539131791843191,1.1291676203554744,1.1291676203554744,-0.8239871824216607
1539131791859172,1.3122758831159445,1.1291676203554744,-0.7019150072480898
1539131791875153,-1.0070954451819034,1.0070954451819034,-1.2512397955290453
1539131791891134,-4.058899824521177,0.3967345693140487,-2.166781109330941
1539131791907116,-4.974441138323073,0.03051804379333589,-2.4719615472647547
1539131791923097,-4.180971999694748,0.09155413138023505,-2.166781109330941
1539131791939078,-3.1433585107195086,0.213626306553806,-1.8616006713969
1539131791955059,-2.9602502479590385,0.03051804379333589,-1.5564202334630863
1539131791971040,-3.2043945983061803,-0.15259021896690683,-1.5564202334630863
1539131791987022,-2.655069810025225,-0.5188067444876197,-1.3733119707026162
1539131792003003,-3.0212863355459376,-0.5798428320745188,-1.1902037079423735
1539131792018984,-4.669260700389032,-0.33569848172737693,-0.9460593575952316
1539131792034965,-7.660028992141633,-0.33569848172737693,-1.0681315327688026
1539131792050946,-11.322194247348762,-0.2746623941404778,-1.5564202334630863
1539131792066928,-13.275349050125897,-0.2746623941404778,-1.6784924086366573
1539131792082909,-13.397421225299468,-0.3967345693140487,-1.5564202334630863
1539131792098877,-12.054627298390187,-0.2746623941404778,-0.8239871824216607
1539131792114858,-11.749446860456146,-0.09155413138023505,-0.3967345693140487
1539131792130839,-12.481879911497572,-0.213626306553806,-0.7629510948347615
1539131792146820,-12.054627298390187,-0.213626306553806,-1.1291676203554744
1539131792162801,-8.6366063935302,0.03051804379333589,-1.0681315327688026
1539131792178783,-2.4719615472647547,0.5798428320745188,-0.7629510948347615
1539131792194764,1.9226367589837992,1.3122758831159445,-0.45777065690094787
1539131792210745,1.983672846570471,1.5564202334630863,-0.5188067444876197
1539131792226726,-1.8616006713969,0.9460593575952316,-0.9460593575952316
1539131792242707,-5.157549401083315,0.2746623941404778,-1.6784924086366573
1539131792258689,-4.486152437628789,0.213626306553806,-2.288853284504512
1539131792274670,-0.7019150072480898,0.7629510948347615,-2.4719615472647547
1539131792290651,2.105745021744042,1.1902037079423735,-2.5940337224383256
1539131792306632,2.04470893415737,1.2512397955290453,-2.8381780727854675
1539131792322613,0.7629510948347615,1.0070954451819034,-2.655069810025225
1539131792338595,-0.5798428320745188,0.7629510948347615,-2.410925459678083
1539131792354576,-0.8239871824216607,0.6408789196611906,-2.04470893415737
1539131792370557,0.2746623941404778,0.8850232700083325,-1.3122758831159445
1539131792386538,1.8005645838102282,1.0070954451819034,-1.0681315327688026
1539131792402519,0.9460593575952316,0.8850232700083325,-1.1291676203554744
1539131792418487,-1.4343480582895154,0.7019150072480898,-1.6784924086366573
1539131792434468,-3.5095750362402214,0.213626306553806,-2.410925459678083
1539131792450449,-4.180971999694748,-0.03051804379333589,-2.7771419851987957
1539131792466429,-3.6316472114137923,-0.2746623941404778,-2.532997634851654
1539131792482410,-4.364080262455218,-0.6408789196611906,-2.166781109330941
1539131792498391,-6.012054627298312,-0.5798428320745188,-2.04470893415737
1539131792514371,-8.758678568703772,-0.6408789196611906,-2.288853284504512
1539131792530352,-10.955977721828049,-0.45777065690094787,-2.532997634851654
1539131792546333,-12.23773556115043,-0.33569848172737693,-2.532997634851654
1539131792562314,-12.115663385976859,-0.5798428320745188,-2.8381780727854675
1539131792578294,-10.101472495613052,-0.6408789196611906,-2.7771419851987957
1539131792594275,-6.073090714885211,-0.3967345693140487,-2.288853284504512
1539131792610256,-3.2043945983061803,-0.03051804379333589,-1.8616006713969
1539131792626237,-2.166781109330941,0.09155413138023505,-1.983672846570471
1539131792642217,-1.8005645838102282,0.5798428320745188,-1.8616006713969
1539131792658198,-1.4343480582895154,0.7019150072480898,-1.6784924086366573
1539131792674179,-1.6784924086366573,0.8239871824216607,-1.5564202334630863
1539131792690159,-2.227817196917613,1.3733119707026162,-1.6174563210497581
1539131792706140,-1.983672846570471,1.4343480582895154,-1.5564202334630863
1539131792722121,-1.6784924086366573,0.8850232700083325,-1.5564202334630863
1539131792738098,-0.9460593575952316,0.33569848172737693,-1.2512397955290453
1539131792754078,-0.5188067444876197,-0.2746623941404778,-0.8850232700083325
1539131792770059,-0.33569848172737693,-0.7019150072480898,-0.33569848172737693
1539131792786040,-0.213626306553806,-0.6408789196611906,0.2746623941404778
1539131792802021,-2.288853284504512,-0.6408789196611906,0.8239871824216607
1539131792818001,-6.073090714885211,-0.8850232700083325,0.9460593575952316
1539131792833982,-8.880750743877343,-0.5798428320745188,1.0070954451819034
1539131792849963,-8.819714656290444,-0.03051804379333589,1.0070954451819034
1539131792865944,-6.195162890058782,0.5188067444876197,1.0681315327688026
1539131792881924,-1.739528496223329,1.0681315327688026,1.4953841458761872
1539131792897905,2.227817196917613,1.1291676203554744,1.983672846570471
1539131792913886,4.058899824521177,0.9460593575952316,2.166781109330941
1539131792929866,4.9134050507361735,0.7629510948347615,2.410925459678083
1539131792945847,3.6316472114137923,0.5798428320745188,2.288853284504512
1539131792961828,1.5564202334630863,0.213626306553806,1.8616006713969
1539131792977809,0.213626306553806,-0.09155413138023505,1.4953841458761872
1539131792993789,0.8850232700083325,-0.09155413138023505,1.4953841458761872
1539131793009770,2.227817196917613,0.15259021896690683,1.4953841458761872
1539131793025751,1.6174563210497581,0.33569848172737693,1.0681315327688026
1539131793041731,-0.03051804379333589,0.5188067444876197,0.45777065690094787
1539131793057708,-0.5188067444876197,0.6408789196611906,-0.03051804379333589
1539131793073689,0.15259021896690683,1.0681315327688026,-0.2746623941404778
1539131793089670,1.6174563210497581,1.4343480582895154,-0.3967345693140487
1539131793105651,2.410925459678083,1.6174563210497581,-0.5798428320745188
1539131793121631,1.5564202334630863,1.6784924086366573,-0.8850232700083325
1539131793137612,-0.33569848172737693,1.2512397955290453,-1.2512397955290453
1539131793153593,-1.4343480582895154,0.8239871824216607,-1.739528496223329
1539131793169573,-1.5564202334630863,0.15259021896690683,-1.6174563210497581
1539131793185554,0.03051804379333589,-0.7019150072480898,-1.1902037079423735
1539131793201535,1.2512397955290453,-0.8850232700083325,-1.3733119707026162
1539131793217516,0.9460593575952316,-0.45777065690094787,-1.8005645838102282
1539131793233496,-1.8616006713969,0.33569848172737693,-3.0823224231326094
1539131793249477,-4.547188525215461,0.8850232700083325,-4.42511635004189
1539131793265458,-5.706874189364498,1.3122758831159445,-4.60822461280236
1539131793281438,-6.683451590753066,1.4953841458761872,-3.875791561760934
1539131793297419,-6.744487678339738,1.1902037079423735,-2.7771419851987957
1539131793313400,-4.547188525215461,0.5798428320745188,-1.5564202334630863
1539131793329381,-0.7629510948347615,0.45777065690094787,-0.8850232700083325
1539131793345361,4.791332875562603,1.3122758831159445,0.15259021896690683
1539131793361342,7.843137254901876,2.3498893720911838,0.45777065690094787
1539131793377319,5.279621576256886,2.532997634851654,-0.2746623941404778
1539131793393300,0.213626306553806,2.3498893720911838,-1.3733119707026162
1539131793409280,-3.2654306858930795,2.227817196917613,-2.04470893415737
1539131793425261,-3.2043945983061803,1.8005645838102282,-2.105745021744042
1539131793441242,-0.45777065690094787,1.8005645838102282,-1.739528496223329
1539131793457223,3.6316472114137923,1.6784924086366573,-0.8850232700083325
1539131793473203,4.058899824521177,1.1902037079423735,-0.2746623941404778
1539131793489184,0.9460593575952316,0.5798428320745188,-0.6408789196611906
1539131793505165,-1.6784924086366573,-0.2746623941404778,-1.1902037079423735
1539131793521145,-3.3875028610666504,-0.7019150072480898,-1.6784924086366573
1539131793537126,-3.3264667734797513,-0.7019150072480898,-1.8005645838102282
1539131793553107,-1.3122758831159445,-0.3967345693140487,-1.3733119707026162
1539131793569088,1.5564202334630863,0.15259021896690683,-0.7019150072480898
1539131793585068,2.655069810025225,1.0070954451819034,-0.3967345693140487
1539131793601049,0.8850232700083325,1.4343480582895154,-0.45777065690094787
1539131793617030,-1.2512397955290453,1.4953841458761872,-0.5798428320745188
1539131793633010,-1.8005645838102282,1.4953841458761872,-0.15259021896690683
1539131793648991,-0.213626306553806,1.6784924086366573,0.5188067444876197
1539131793664972,1.8616006713969,2.227817196917613,1.3122758831159445
1539131793680953,1.983672846570471,2.3498893720911838,1.6174563210497581
1539131793696930,0.8850232700083325,1.9226367589837992,1.8005645838102282
1539131793712910,-0.5188067444876197,1.3733119707026162,1.8616006713969
1539131793728891,-0.6408789196611906,0.8239871824216607,2.04470893415737
1539131793744872,0.8850232700083325,0.3967345693140487,2.227817196917613
1539131793760852,2.288853284504512,0.5188067444876197,2.3498893720911838
1539131793776833,2.5940337224383256,0.6408789196611906,2.532997634851654
1539131793792814,1.0681315327688026,0.7629510948347615,2.04470893415737
1539131793808795,0.03051804379333589,1.0681315327688026,1.6174563210497581
1539131793824775,0.15259021896690683,1.4343480582895154,1.3122758831159445
1539131793840756,1.4953841458761872,1.5564202334630863,0.9460593575952316
1539131793856737,2.288853284504512,1.739528496223329,0.8850232700083325
1539131793872717,2.166781109330941,1.739528496223329,0.7019150072480898
1539131793888698,1.739528496223329,1.3733119707026162,0.5798428320745188
1539131793904679,1.6784924086366573,1.1291676203554744,0.5798428320745188
1539131793920660,1.983672846570471,0.8239871824216607,0.8239871824216607
1539131793936640,3.3264667734797513,0.5188067444876197,1.1291676203554744
1539131793952621,3.814755474174035,0.03051804379333589,1.5564202334630863
1539131793968602,2.410925459678083,-1.3122758831159445,1.4343480582895154
1539131793984583,0.9460593575952316,-2.8992141603723667,0.6408789196611906
1539131794000563,1.3733119707026162,-3.570611123826893,-0.03051804379333589
1539131794016540,3.875791561760934,-3.2654306858930795,-0.15259021896690683
1539131794032521,7.965209430075447,-2.288853284504512,0.3967345693140487
1539131794048502,9.308003356984727,-1.3733119707026162,0.9460593575952316
1539131794064482,8.209353780422589,-0.6408789196611906,1.1291676203554744
1539131794080463,5.157549401083315,-0.213626306553806,0.7019150072480898
1539131794096444,2.04470893415737,-0.15259021896690683,0.5188067444876197
1539131794112424,-0.213626306553806,-0.213626306553806,0.15259021896690683
1539131794128405,-0.7629510948347615,-0.213626306553806,0.03051804379333589
1539131794144386,-0.03051804379333589,-0.2746623941404778,0.2746623941404778
1539131794160367,1.3733119707026162,-0.3967345693140487,0.45777065690094787
1539131794176347,1.8005645838102282,-0.3967345693140487,0.7019150072480898
1539131794192328,0.09155413138023505,-0.5188067444876197,0.5798428320745188
1539131794208309,-1.8616006713969,-0.8239871824216607,0.15259021896690683
1539131794224290,-1.983672846570471,-0.7019150072480898,0.213626306553806
1539131794240270,-0.5798428320745188,-0.45777065690094787,0.45777065690094787
1539131794256251,1.1291676203554744,0.03051804379333589,0.5798428320745188
1539131794272232,1.3733119707026162,0.15259021896690683,0.8239871824216607
1539131794288212,0.2746623941404778,-0.15259021896690683,0.5188067444876197
1539131794304193,-1.2512397955290453,-0.33569848172737693,0.09155413138023505
1539131794320174,-0.9460593575952316,-0.5798428320745188,-0.03051804379333589
1539131794336151,0.7019150072480898,-0.6408789196611906,0.213626306553806
1539131794352131,2.105745021744042,-0.6408789196611906,0.8239871824216607
1539131794368112,2.3498893720911838,-0.5798428320745188,1.3733119707026162
1539131794384093,0.3967345693140487,-0.7629510948347615,1.1291676203554744
1539131794400074,-1.8616006713969,-0.8850232700083325,1.1291676203554744
1539131794416054,-1.8616006713969,-0.9460593575952316,1.4953841458761872
1539131794432035,1.0681315327688026,-0.6408789196611906,1.9226367589837992
1539131794448016,4.60822461280236,0.2746623941404778,2.532997634851654
1539131794463997,6.195162890058782,1.3122758831159445,2.7161058976118966
1539131794479977,3.5095750362402214,1.739528496223329,2.227817196917613
1539131794495958,-1.1291676203554744,1.3733119707026162,1.2512397955290453
1539131794511939,-2.8992141603723667,0.8239871824216607,0.6408789196611906
1539131794527919,0.2746623941404778,0.5188067444876197,0.8850232700083325
1539131794543900,4.242008087281647,0.7019150072480898,1.4343480582895154
1539131794559881,4.791332875562603,0.9460593575952316,1.6174563210497581
1539131794575862,1.8005645838102282,0.7019150072480898,0.5798428320745188
1539131794591842,-2.166781109330941,-0.15259021896690683,-0.7019150072480898
1539131794607823,-2.410925459678083,-1.0070954451819034,-1.2512397955290453
1539131794623804,1.9226367589837992,-0.9460593575952316,-0.7629510948347615
1539131794639784,5.401693751430457,-0.09155413138023505,-0.213626306553806
1539131794655761,4.058899824521177,0.45777065690094787,-0.45777065690094787
1539131794671742,-0.2746623941404778,0.5798428320745188,-1.6174563210497581
1539131794687723,-3.3264667734797513,0.45777065690094787,-2.7161058976118966
1539131794703704,-1.2512397955290453,0.2746623941404778,-3.0212863355459376
1539131794719684,3.3264667734797513,-0.213626306553806,-2.04470893415737
1539131794735665,5.279621576256886,-0.33569848172737693,-1.3733119707026162
1539131794751646,3.936827649347606,-0.33569848172737693,-1.6174563210497581
1539131794767626,0.8239871824216607,0.15259021896690683,-2.105745021744042
1539131794783607,-2.8992141603723667,0.33569848172737693,-2.5940337224383256
1539131794799588,-3.0823224231326094,0.33569848172737693,-2.105745021744042
1539131794815569,-0.213626306553806,0.45777065690094787,-0.9460593575952316
1539131794831549,3.0823224231326094,0.7019150072480898,-0.15259021896690683
1539131794847530,4.42511635004189,1.0070954451819034,0.213626306553806
1539131794863511,2.532997634851654,1.1902037079423735,-0.03051804379333589
1539131794879491,-0.3967345693140487,1.0681315327688026,-0.33569848172737693
1539131794895472,-1.3733119707026162,0.7629510948347615,-0.2746623941404778
1539131794911453,0.5188067444876197,0.5798428320745188,0.6408789196611906
1539131794927434,4.119935912108076,0.45777065690094787,1.6784924086366573
1539131794943414,4.730296787975931,-0.03051804379333589,2.227817196917613
1539131794959395,2.7771419851987957,-1.6174563210497581,2.04470893415737
1539131794975341,-9.73525597009234,-8.026245517662346,1.8616006713969
1539131794991322,-33.23414969100486,-16.937514305333025,-0.213626306553806
1539131795007303,-56.61097123674381,-25.42153047989609,-2.3498893720911838
1539131795023284,-74.73868925001898,-31.403067063401295,-3.2043945983061803
1539131795039264,-77.66842145418468,-25.23842221713585,-3.3875028610666504
1539131795055245,-46.72312504768456,5.645838101777599,-3.6316472114137923
1539131795071226,20.05035477225897,57.404440375371905,-3.6316472114137923
1539131795087206,22.247653925383247,117.7080949111164,-0.9460593575952316
1539131795103187,-0.03051804379333589,176.36377508201713,1.983672846570471
1539131795119168,-4.180971999694748,224.27710383764406,5.096513313496644
1539131795135149,-9.308003356984727,251.80437933928442,9.918364232852582
1539131795151129,-4.058899824521177,257.60280766002916,14.190890363927565
1539131795167110,-2.8992141603723667,245.45662623025873,19.684138246738257
1539131795183091,-4.547188525215461,224.33813992523073,23.529411764705856
1539131795199072,-4.180971999694748,197.54329747463225,23.285267414358714
1539131795215052,-5.706874189364498,172.5795376516362,21.759365224688963
1539131795231033,-4.058899824521177,145.7236591134506,18.58548867017612
1539131795247014,6.744487678339738,117.28084229800879,14.80125123979542
1539131795262994,19.80621042191183,88.41077286945938,11.383230334935433
1539131795278975,31.464103150987967,60.21210040436381,8.148317692835917
1539131795294983,19.073777370870403,32.74586099031035,7.476920729381163
1539131795310963,29.51094834821083,6.073090714885211,7.843137254901876
1539131795326944,47.27244983596529,-18.89066910811016,11.20012207217519
1539131795342925,54.413672083619076,-38.66636148622888,15.472648203250174
1539131795358905,48.06591897459339,-58.01480125123976,19.562066071564686
1539131795374886,40.00915541313793,-79.19432364385443,26.031891355763946
1539131795390867,40.314335851071746,-107.57610437170979,37.87289234760033
1539131795406848,50.99565117875909,-148.10406652933534,53.80331120775145
1539131795422828,68.20782787823327,-202.12100404364082,71.93102922102707
1539131795438809,63.99633783474519,-261.5091172655832,87.98352025635177
1539131795454790,65.70534828717518,-326.93980315861745,97.87136644541079
1539131795470770,65.94949263752233,-394.0794995040817,108.55268177309836
1539131795486751,69.48958571755566,-434.9126420996415,114.35111009384309
1539131795502732,800.0305180437931,-81.08644235904467,96.28442816815459
1539131795518713,-0.8239871824216607,55.1461051346605,53.131914244296695
1539131795534693,-259.18974593728535,22.980086976424673,17.059586480506596
1539131795550674,-63.14183260852974,11.20012207217519,-9.613183794918768
1539131795566655,-141.87838559548322,0.09155413138023505,-31.219958800640825
1539131795582636,-134.30991073472183,10.467689021133765,-54.41367208361953
1539131795598616,-93.41573205157533,29.877164873731545,-65.27809567406734
1539131795614593,-44.28168154421314,54.413672083619076,-70.03891050583661
1539131795630574,-32.99000534065772,79.98779278248276,-73.27382314793613
1539131795646555,-27.191577019912984,98.84794384679935,-72.41931792172113
1539131795662535,-14.129854276340893,104.09704737926313,-66.43778133821615
1539131795678516,-9.430075532158298,95.18577859159222,-58.686198214694514
1539131795694497,-5.3406576638437855,76.44769970244943,-49.10353246356908
1539131795710477,-10.955977721828049,52.2163729304948,-38.54428931105531
1539131795726458,-13.702601663233281,25.970855268177274,-25.665674830243233
1539131795742439,-6.9886320286868795,-1.3122758831159445,-12.909132524605184
1539131795758420,2.532997634851654,-23.83459220263967,-3.997863736934505
1539131795774400,0.5188067444876197,-37.872892347600555,2.655069810025225
1539131795790381,-10.040436408026153,-45.685511558709095,7.965209430075447
1539131795806362,-17.24269474326684,-49.34767681391622,12.603952086671143
1539131795822342,-11.627374685282575,-50.08010986495765,17.36476691844041
1539131795838323,-5.096513313496644,-48.6152437628748,20.904859998473967
1539131795854304,-7.4158846417944915,-44.647898069733856,20.904859998473967
1539131795870285,-11.20012207217519,-36.530098420691274,17.975127794308264
1539131795886265,-12.664988174258042,-27.252613107499656,15.838864728770886
1539131795902246,-5.2185854886702145,-21.881437399862534,14.496070801861606
1539131795918227,-1.1291676203554744,-20.721751735713724,11.749446860456146
1539131795934204,-4.364080262455218,-17.48683909361398,6.073090714885211
1539131795950184,-9.308003356984727,-11.566338597695903,-0.15259021896690683
1539131795966165,-12.359807736324,-7.782101167315204,-4.180971999694748
1539131795982146,-6.256198977645454,-7.232776379034021,-5.584802014190927
1539131795998127,0.33569848172737693,-7.4158846417944915,-6.073090714885211
1539131796014107,4.669260700389032,-6.378271152819025,-6.805523765926637
1539131796030088,1.8005645838102282,-6.439307240405924,-7.782101167315204
1539131796046069,-4.242008087281647,-7.049668116273779,-8.51453421835663
1539131796062049,-4.669260700389032,-8.33142595559616,-8.880750743877343
1539131796078030,-0.8850232700083325,-10.040436408026153,-8.270389868009488
1539131796094011,-1.0681315327688026,-10.162508583199724,-6.012054627298312
1539131796109992,-0.2746623941404778,-8.209353780422589,-4.303044174868319
1539131796125972,0.33569848172737693,-7.049668116273779,-2.9602502479590385
1539131796141953,2.4719615472647547,-8.33142595559616,-1.4343480582895154
1539131796157934,2.8381780727854675,-10.528725108720437,0.15259021896690683
1539131796173915,1.1902037079423735,-11.07804989700162,0.9460593575952316
1539131796189895,-1.6174563210497581,-10.406652933546866,0.8850232700083325
1539131796205876,-2.410925459678083,-9.979400320439481,0.5798428320745188
1539131796221857,-0.5188067444876197,-10.589761196307336,0.5188067444876197
1539131796237837,-0.45777065690094787,-11.261158159761862,0.5798428320745188
1539131796253814,-0.6408789196611906,-10.589761196307336,0.6408789196611906
1539131796269795,-0.3967345693140487,-9.185931181811156,0.3967345693140487
1539131796285776,-2.532997634851654,-8.026245517662346,0.03051804379333589
1539131796301756,-4.730296787975931,-7.904173342488775,-0.9460593575952316
1539131796317737,-3.3875028610666504,-9.124895094224485,-2.288853284504512
1539131796333718,-1.8616006713969,-9.369039444571627,-3.0212863355459376
1539131796349699,-4.60822461280236,-8.148317692835917,-1.6784924086366573
1539131796365679,-6.134126802471883,-7.782101167315204,0.45777065690094787
1539131796381660,-5.157549401083315,-8.33142595559616,1.4953841458761872
1539131796397641,-1.6784924086366573,-9.002822919050914,1.4953841458761872
1539131796413622,-1.1291676203554744,-9.430075532158298,1.1291676203554744
1539131796429602,-2.7771419851987957,-9.796292057679011,0.8239871824216607
1539131796445583,-7.354848554207592,-8.392462043183059,0.09155413138023505
1539131796461564,-14.496070801861606,-2.105745021744042,-2.410925459678083
1539131796477544,-13.64156557564661,4.60822461280236,-4.364080262455218
1539131796493525,-0.15259021896690683,5.279621576256886,-5.096513313496644
1539131796509506,-2.9602502479590385,1.3733119707026162,-5.2185854886702145
1539131796525487,-5.157549401083315,-1.739528496223329,-6.195162890058782
1539131796541467,-11.566338597695903,-3.6316472114137923,-7.598992904554734
1539131796557448,-21.69832913710229,-3.1433585107195086,-7.965209430075447
1539131796573425,-17.181658655680167,-0.8850232700083325,-8.087281605249018
1539131796589406,-3.875791561760934,0.33569848172737693,-7.598992904554734
1539131796605386,1.3733119707026162,1.5564202334630863,-5.645838101777599
1539131796621367,0.5188067444876197,2.166781109330941,-3.692683299000464
1539131796637348,-1.739528496223329,0.7629510948347615,-3.3264667734797513
1539131796653329,-5.584802014190927,-0.5188067444876197,-3.2043945983061803
1539131796669309,-7.476920729381163,-0.213626306553806,-3.2654306858930795
1539131796685290,-6.927595941100208,0.5798428320745188,-2.8992141603723667
1539131796701271,-3.997863736934505,1.5564202334630863,-2.410925459678083
1539131796717251,-3.3875028610666504,1.983672846570471,-1.739528496223329
1539131796733232,-5.096513313496644,1.5564202334630863,-2.227817196917613
1539131796749213,-9.55214770733187,0.8239871824216607,-3.1433585107195086
1539131796765194,-14.618142977035177,0.7629510948347615,-4.058899824521177
1539131796781174,-15.533684290836845,0.8850232700083325,-4.42511635004189
1539131796797155,-12.176699473563758,0.6408789196611906,-3.4485389486533222
1539131796813136,-7.232776379034021,1.0070954451819034,-2.655069810025225
1539131796829116,-2.7161058976118966,1.6174563210497581,-1.3733119707026162
1539131796845097,-1.8616006713969,1.3733119707026162,-0.3967345693140487
1539131796861078,-3.814755474174035,0.5188067444876197,-0.3967345693140487
1539131796877059,-5.76791027695117,0.03051804379333589,-0.5798428320745188
1539131796893036,-6.561379415579495,-0.213626306553806,-0.5798428320745188
1539131796909016,-4.9134050507361735,0.09155413138023505,-0.45777065690094787
1539131796924997,-2.9602502479590385,0.33569848172737693,-0.3967345693140487
1539131796940978,-3.936827649347606,-0.09155413138023505,-1.0681315327688026
1539131796956958,-2.7771419851987957,-0.2746623941404778,-1.3733119707026162
1539131796972939,-1.2512397955290453,0.15259021896690683,-0.5798428320745188
1539131796988920,-1.2512397955290453,0.213626306553806,-0.33569848172737693
1539131797004901,-1.6784924086366573,0.5188067444876197,0.03051804379333589
1539131797020881,-3.1433585107195086,0.7629510948347615,0.09155413138023505
1539131797036862,-4.119935912108076,0.5798428320745188,0.03051804379333589
1539131797052843,-2.166781109330941,0.2746623941404778,0.45777065690094787
1539131797068823,2.04470893415737,0.2746623941404778,1.4343480582895154
1539131797084804,4.119935912108076,0.5188067444876197,2.105745021744042
1539131797100785,3.3264667734797513,0.33569848172737693,1.983672846570471
1539131797116766,0.15259021896690683,0.33569848172737693,1.1902037079423735
1539131797132746,-2.5940337224383256,0.213626306553806,0.3967345693140487
1539131797148727,-2.8992141603723667,0.3967345693140487,-0.213626306553806
1539131797164708,-0.5188067444876197,0.9460593575952316,0.213626306553806
1539131797180688,0.6408789196611906,1.2512397955290453,0.45777065690094787
1539131797196669,-0.33569848172737693,1.3122758831159445,0.2746623941404778
1539131797212646,-2.8381780727854675,1.2512397955290453,-0.45777065690094787
1539131797228627,-4.42511635004189,0.8850232700083325,-1.2512397955290453
1539131797244608,-2.655069810025225,0.5188067444876197,-1.1291676203554744
1539131797260588,-0.15259021896690683,0.3967345693140487,-0.3967345693140487
1539131797276569,-0.8850232700083325,0.33569848172737693,-0.5188067444876197
1539131797292550,-2.3498893720911838,0.213626306553806,-1.2512397955290453
1539131797308530,-2.288853284504512,0.33569848172737693,-1.5564202334630863
1539131797324511,-0.9460593575952316,0.5188067444876197,-1.1291676203554744
1539131797340492,0.6408789196611906,0.7019150072480898,-0.7629510948347615
1539131797356473,0.03051804379333589,0.7019150072480898,-1.0681315327688026
1539131797372453,-0.8850232700083325,0.7019150072480898,-1.2512397955290453
1539131797388434,-0.8850232700083325,1.0070954451819034,-1.1902037079423735
1539131797404415,-1.4343480582895154,0.8850232700083325,-1.1291676203554744
1539131797420395,-2.227817196917613,0.5798428320745188,-0.8239871824216607
1539131797436376,-1.983672846570471,0.213626306553806,-0.6408789196611906
1539131797452357,-1.1902037079423735,0.03051804379333589,-0.3967345693140487
1539131797468338,-1.0681315327688026,0.213626306553806,-0.33569848172737693
1539131797484318,-1.5564202334630863,0.5798428320745188,-0.5188067444876197
1539131797500299,-0.5798428320745188,1.0070954451819034,-0.5188067444876197
1539131797516280,0.7629510948347615,1.4953841458761872,-0.15259021896690683
1539131797532257,0.7019150072480898,1.4343480582895154,0.33569848172737693
1539131797548237,-1.1902037079423735,1.1902037079423735,0.5188067444876197
1539131797564218,-2.9602502479590385,1.2512397955290453,0.33569848172737693
1539131797580199,-3.0212863355459376,1.4343480582895154,0.33569848172737693
1539131797596180,-1.3122758831159445,1.4953841458761872,0.5798428320745188
1539131797612160,-0.45777065690094787,1.6174563210497581,0.7629510948347615
1539131797628141,0.45777065690094787,1.4343480582895154,0.9460593575952316
1539131797644122,-0.5798428320745188,0.9460593575952316,1.0070954451819034
1539131797660102,-1.8005645838102282,0.7019150072480898,0.7019150072480898
1539131797676083,-1.2512397955290453,0.7629510948347615,0.7019150072480898
1539131797692064,0.15259021896690683,1.0070954451819034,1.0070954451819034
1539131797708045,1.3122758831159445,1.4343480582895154,1.1902037079423735
1539131797724025,1.8005645838102282,1.5564202334630863,1.1902037079423735
1539131797740006,0.7629510948347615,1.1291676203554744,1.1902037079423735
1539131797755987,-0.8239871824216607,0.7019150072480898,0.7019150072480898
1539131797771968,-1.0681315327688026,0.8239871824216607,0.2746623941404778
1539131797787948,0.33569848172737693,1.1902037079423735,0.33569848172737693
1539131797803929,1.8005645838102282,1.4343480582895154,0.5798428320745188
1539131797819910,1.4953841458761872,1.5564202334630863,0.6408789196611906
1539131797835890,1.1902037079423735,1.6784924086366573,0.8850232700083325
1539131797851867,0.3967345693140487,1.4343480582895154,0.9460593575952316
1539131797867848,-0.7019150072480898,0.8239871824216607,0.9460593575952316
1539131797883829,-0.8850232700083325,0.7629510948347615,0.7629510948347615
1539131797899809,-0.03051804379333589,1.0070954451819034,0.7629510948347615
1539131797915790,0.9460593575952316,0.8239871824216607,0.7019150072480898
1539131797931771,0.6408789196611906,0.9460593575952316,0.2746623941404778
1539131797947752,0.5188067444876197,0.9460593575952316,-0.03051804379333589
1539131797963732,0.7019150072480898,0.45777065690094787,-0.03051804379333589
1539131797979713,0.213626306553806,0.5188067444876197,-0.213626306553806
1539131797995694,0.2746623941404778,1.0070954451819034,-0.33569848172737693
1539131798011675,0.3967345693140487,1.1902037079423735,-0.6408789196611906
1539131798027655,0.9460593575952316,1.6174563210497581,-0.8850232700083325
1539131798043636,2.04470893415737,1.5564202334630863,-0.8239871824216607
1539131798059617,2.7161058976118966,1.2512397955290453,-0.7019150072480898
1539131798075597,1.8616006713969,1.1291676203554744,-0.7629510948347615
1539131798091578,-0.45777065690094787,1.0070954451819034,-1.1902037079423735
1539131798107559,-2.105745021744042,0.9460593575952316,-1.6784924086366573
1539131798123540,-1.1291676203554744,1.0070954451819034,-1.6174563210497581
1539131798139520,0.8239871824216607,0.9460593575952316,-1.0681315327688026
1539131798155501,1.3733119707026162,1.0070954451819034,-0.6408789196611906
1539131798171447,0.45777065690094787,0.9460593575952316,-0.7019150072480898
1539131798187428,-0.7629510948347615,1.0070954451819034,-0.7019150072480898
1539131798203409,-1.739528496223329,1.2512397955290453,-0.8239871824216607
1539131798219390,-1.3733119707026162,1.3122758831159445,-0.5188067444876197
1539131798235370,-0.3967345693140487,1.6784924086366573,-0.213626306553806
1539131798251351,-0.03051804379333589,2.04470893415737,0.09155413138023505
1539131798267332,0.09155413138023505,1.8005645838102282,0.33569848172737693
1539131798283312,-0.5188067444876197,1.739528496223329,0.45777065690094787
1539131798299293,-1.6784924086366573,1.9226367589837992,0.5188067444876197
1539131798315274,-1.6784924086366573,1.983672846570471,0.7629510948347615
1539131798331255,-1.0070954451819034,1.9226367589837992,1.0681315327688026
1539131798347235,0.15259021896690683,1.8005645838102282,1.2512397955290453
1539131798363216,1.3122758831159445,1.3733119707026162,1.5564202334630863
1539131798379197,1.4343480582895154,0.8239871824216607,1.6174563210497581
1539131798395177,1.1902037079423735,0.45777065690094787,1.1902037079423735
1539131798411158,0.45777065690094787,0.2746623941404778,0.7019150072480898
1539131798427139,-0.213626306553806,0.5188067444876197,0.213626306553806
1539131798443120,0.2746623941404778,0.8239871824216607,0.15259021896690683
1539131798459100,1.6784924086366573,1.1291676203554744,0.2746623941404778
1539131798475081,1.983672846570471,1.5564202334630863,0.33569848172737693
1539131798491088,1.0681315327688026,1.6784924086366573,-0.2746623941404778
1539131798507069,-0.5188067444876197,1.5564202334630863,-0.5798428320745188
1539131798523050,-1.0681315327688026,1.4953841458761872,-0.5188067444876197
1539131798539031,0.03051804379333589,1.4953841458761872,-0.33569848172737693
1539131798555011,1.1902037079423735,1.5564202334630863,-0.213626306553806
1539131798570992,1.5564202334630863,1.4953841458761872,-0.213626306553806
1539131798586973,1.6174563210497581,1.2512397955290453,-0.33569848172737693
1539131798602954,1.5564202334630863,1.1902037079423735,-0.15259021896690683
1539131798618934,1.1902037079423735,1.0681315327688026,0.2746623941404778
1539131798634915,0.15259021896690683,0.7019150072480898,0.09155413138023505
1539131798650896,-0.213626306553806,0.8239871824216607,-0.09155413138023505
1539131798666876,0.6408789196611906,0.5798428320745188,0.03051804379333589
1539131798682857,0.9460593575952316,0.5188067444876197,0.15259021896690683
1539131798698838,0.15259021896690683,0.8850232700083325,0.2746623941404778
1539131798714819,-1.8616006713969,0.8239871824216607,0.03051804379333589
1539131798730799,-3.0823224231326094,0.7629510948347615,-0.33569848172737693
1539131798746780,-1.4953841458761872,0.8850232700083325,-0.45777065690094787
1539131798762761,1.6784924086366573,0.9460593575952316,-0.15259021896690683
1539131798778741,3.936827649347606,0.8850232700083325,0.213626306553806
1539131798794722,3.3264667734797513,0.9460593575952316,-0.213626306553806
1539131798810699,0.03051804379333589,0.9460593575952316,-1.1902037079423735
1539131798826680,-2.8992141603723667,0.7019150072480898,-2.105745021744042
1539131798842661,-2.9602502479590385,0.2746623941404778,-2.288853284504512
1539131798858641,-0.6408789196611906,-0.03051804379333589,-2.105745021744042
1539131798874622,1.983672846570471,-0.213626306553806,-1.6784924086366573
1539131798890603,3.1433585107195086,-0.3967345693140487,-1.5564202334630863
1539131798906583,2.04470893415737,-0.45777065690094787,-1.739528496223329
1539131798922564,-0.15259021896690683,-0.5188067444876197,-2.04470893415737
1539131798938545,-1.8616006713969,-0.5798428320745188,-2.410925459678083
1539131798954526,-0.9460593575952316,-0.5188067444876197,-2.3498893720911838
1539131798970506,0.5798428320745188,-0.33569848172737693,-1.983672846570471
1539131798986487,0.7019150072480898,-0.03051804379333589,-2.04470893415737
1539131799002468,0.3967345693140487,-0.03051804379333589,-2.04470893415737
1539131799018448,1.1291676203554744,0.15259021896690683,-1.6174563210497581
1539131799034429,1.6174563210497581,0.2746623941404778,-1.1291676203554744
1539131799050410,1.0070954451819034,0.45777065690094787,-0.8850232700083325
1539131799066391,-0.09155413138023505,0.5798428320745188,-0.7629510948347615
1539131799082371,-0.6408789196611906,0.9460593575952316,-0.45777065690094787
1539131799098352,-0.15259021896690683,1.3733119707026162,0.09155413138023505
1539131799114333,0.7629510948347615,1.5564202334630863,0.5188067444876197
1539131799130310,1.2512397955290453,1.6784924086366573,0.6408789196611906
1539131799146290,1.0070954451819034,1.5564202334630863,0.5188067444876197
1539131799162271,0.5798428320745188,1.3122758831159445,0.15259021896690683
1539131799178252,0.15259021896690683,1.0681315327688026,0.09155413138023505
1539131799194233,0.5188067444876197,0.7629510948347615,-0.03051804379333589
1539131799210213,0.7629510948347615,0.8239871824216607,-0.2746623941404778
1539131799226194,1.739528496223329,0.6408789196611906,-0.33569848172737693
1539131799242175,1.6784924086366573,0.7629510948347615,-0.7629510948347615
1539131799258155,1.0681315327688026,0.8850232700083325,-1.1291676203554744
1539131799274136,-0.09155413138023505,0.7019150072480898,-1.739528496223329
1539131799290117,-1.2512397955290453,0.9460593575952316,-2.288853284504512
1539131799306098,-1.0681315327688026,1.1902037079423735,-2.227817196917613
1539131799322078,-0.15259021896690683,1.2512397955290453,-1.6784924086366573
1539131799338059,0.5798428320745188,1.1902037079423735,-1.3122758831159445
1539131799354040,0.45777065690094787,1.1291676203554744,-1.1291676203554744
1539131799370020,-0.15259021896690683,1.1291676203554744,-0.8850232700083325
1539131799386001,-0.33569848172737693,1.0681315327688026,-0.6408789196611906
1539131799401982,-0.09155413138023505,0.8850232700083325,-0.09155413138023505
1539131799417963,0.8850232700083325,0.7629510948347615,0.5798428320745188
1539131799433943,1.1902037079423735,0.6408789196611906,1.2512397955290453
1539131799449920,0.5188067444876197,0.213626306553806,1.5564202334630863
1539131799465901,0.03051804379333589,-0.03051804379333589,1.6174563210497581
1539131799481882,0.5798428320745188,-0.213626306553806,1.6784924086366573
1539131799497862,2.410925459678083,-0.3967345693140487,1.983672846570471
1539131799513843,3.3264667734797513,-0.45777065690094787,2.105745021744042
1539131799529824,2.7161058976118966,-0.45777065690094787,1.6784924086366573
1539131799545805,0.7629510948347615,-0.33569848172737693,1.0681315327688026
1539131799561785,-0.213626306553806,-0.33569848172737693,0.5188067444876197
1539131799577766,0.09155413138023505,-0.3967345693140487,0.2746623941404778
1539131799593747,1.3122758831159445,-0.3967345693140487,0.213626306553806
1539131799609727,2.166781109330941,-0.213626306553806,0.213626306553806
1539131799625708,1.8616006713969,-0.15259021896690683,0.213626306553806
1539131799641689,0.7629510948347615,0.03051804379333589,0.03051804379333589
1539131799657670,-0.33569848172737693,0.03051804379333589,-0.213626306553806
1539131799673650,-0.03051804379333589,-0.09155413138023505,-0.15259021896690683
1539131799689631,1.739528496223329,0.15259021896690683,0.2746623941404778
1539131799705612,3.0823224231326094,0.8239871824216607,0.45777065690094787
1539131799721593,2.5940337224383256,1.3122758831159445,0.45777065690094787
1539131799737573,0.09155413138023505,1.4953841458761872,0.03051804379333589
1539131799753554,-2.288853284504512,1.6174563210497581,-0.8239871824216607
1539131799769531,-2.8992141603723667,1.6784924086366573,-1.2512397955290453
1539131799785512,-1.1291676203554744,1.9226367589837992,-1.0681315327688026
1539131799801492,0.45777065690094787,2.3498893720911838,-0.5798428320745188
1539131799817473,0.45777065690094787,2.8381780727854675,-0.7629510948347615
1539131799833454,-0.7629510948347615,2.8381780727854675,-1.0681315327688026
1539131799849434,-1.6174563210497581,2.655069810025225,-1.5564202334630863
1539131799865415,-0.8850232700083325,2.166781109330941,-1.6784924086366573
1539131799881396,1.1902037079423735,1.1902037079423735,-1.6784924086366573
1539131799897377,4.180971999694748,0.3967345693140487,-1.2512397955290453
1539131799913357,6.561379415579495,0.2746623941404778,-1.0070954451819034
1539131799929338,6.927595941100208,0.45777065690094787,-1.4343480582895154
1539131799945319,5.889982452124741,0.5798428320745188,-1.4953841458761872
1539131799961300,4.730296787975931,0.5798428320745188,-1.3733119707026162
1539131799977280,1.8005645838102282,0.7019150072480898,-1.1291676203554744
1539131799993261,-2.655069810025225,1.0681315327688026,-1.1291676203554744
1539131800009242,-10.528725108720437,0.6408789196611906,-1.6784924086366573
1539131800025222,-19.073777370870403,0.213626306553806,-3.1433585107195086
1539131800041203,-21.881437399862534,0.03051804379333589,-3.6316472114137923
1539131800057184,-17.059586480506596,0.33569848172737693,-3.0823224231326094
1539131800073165,-6.744487678339738,1.0070954451819034,-1.739528496223329
1539131800089141,4.242008087281647,1.983672846570471,-0.2746623941404778
1539131800105122,10.955977721828049,2.227817196917613,1.1902037079423735
1539131800121103,10.345616845960194,1.5564202334630863,1.4343480582895154
1539131800137084,5.401693751430457,0.7629510948347615,0.9460593575952316
1539131800153064,1.3733119707026162,0.33569848172737693,0.33569848172737693
1539131800169045,0.7019150072480898,0.45777065690094787,0.15259021896690683
1539131800185026,3.5095750362402214,0.7629510948347615,0.45777065690094787
1539131800201007,6.256198977645454,1.1902037079423735,0.7019150072480898
1539131800216987,7.232776379034021,1.5564202334630863,0.7629510948347615
1539131800232968,5.3406576638437855,1.1291676203554744,0.8850232700083325
1539131800248949,2.5940337224383256,0.8850232700083325,0.8239871824216607
1539131800264929,0.5188067444876197,0.45777065690094787,0.5798428320745188
1539131800280910,0.03051804379333589,0.15259021896690683,0.3967345693140487
1539131800296891,0.5798428320745188,-0.09155413138023505,0.45777065690094787
1539131800312872,2.288853284504512,-0.03051804379333589,0.6408789196611906
1539131800328852,4.486152437628789,-0.03051804379333589,0.9460593575952316
1539131800344833,5.584802014190927,0.15259021896690683,0.9460593575952316
1539131800360814,6.378271152819025,0.45777065690094787,0.7629510948347615
1539131800376794,6.195162890058782,0.7019150072480898,0.6408789196611906
1539131800392775,4.486152437628789,1.0681315327688026,0.2746623941404778
1539131800408752,2.166781109330941,1.2512397955290453,-0.2746623941404778
1539131800424733,0.6408789196611906,1.0681315327688026,-0.3967345693140487
1539131800440714,-0.03051804379333589,0.8239871824216607,-0.5188067444876197
1539131800456694,0.03051804379333589,0.9460593575952316,-0.5188067444876197
1539131800472675,0.15259021896690683,1.0070954451819034,-0.6408789196611906
1539131800488656,-0.45777065690094787,0.8850232700083325,-0.8850232700083325
1539131800504636,-0.2746623941404778,0.8850232700083325,-0.9460593575952316
1539131800520617,0.3967345693140487,0.8850232700083325,-0.7019150072480898
1539131800536598,1.0681315327688026,0.5798428320745188,-0.33569848172737693
1539131800552579,1.3122758831159445,0.45777065690094787,0.03051804379333589
1539131800568559,0.9460593575952316,0.2746623941404778,0.2746623941404778
1539131800584540,0.6408789196611906,0.45777065690094787,0.45777065690094787
1539131800600521,1.3733119707026162,0.5798428320745188,0.8239871824216607
1539131800616501,1.5564202334630863,0.7019150072480898,1.0070954451819034
1539131800632482,1.9226367589837992,0.8239871824216607,1.2512397955290453
1539131800648463,1.2512397955290453,0.7629510948347615,1.1902037079423735
1539131800664444,0.03051804379333589,0.9460593575952316,1.1291676203554744
1539131800680424,-0.03051804379333589,1.2512397955290453,1.0681315327688026
1539131800696405,1.3733119707026162,1.6174563210497581,1.3122758831159445
1539131800712386,2.410925459678083,1.8616006713969,1.3733119707026162
1539131800728363,1.983672846570471,1.9226367589837992,1.0070954451819034
1539131800744343,1.0681315327688026,1.5564202334630863,0.8239871824216607
1539131800760324,-0.2746623941404778,1.1291676203554744,0.5798428320745188
1539131800776305,-0.09155413138023505,0.9460593575952316,0.3967345693140487
1539131800792286,1.1291676203554744,1.2512397955290453,0.45777065690094787
1539131800808266,1.6174563210497581,1.5564202334630863,0.5188067444876197
1539131800824247,0.7629510948347615,1.6174563210497581,0.5798428320745188
1539131800840228,-0.7629510948347615,1.2512397955290453,0.5798428320745188
1539131800856208,-2.105745021744042,0.8850232700083325,0.2746623941404778
1539131800872189,-3.2043945983061803,0.7629510948347615,0.09155413138023505
1539131800888170,-3.997863736934505,0.7019150072480898,-0.09155413138023505
1539131800904151,-5.523765926604028,0.5798428320745188,-0.33569848172737693
1539131800920131,-6.500343327992596,0.5798428320745188,-0.9460593575952316
1539131800936112,-6.622415503166167,0.6408789196611906,-1.4953841458761872
1539131800952093,-5.0354772259097444,0.5798428320745188,-1.6174563210497581
1539131800968073,-1.5564202334630863,0.7019150072480898,-1.3733119707026162
1539131800984054,2.3498893720911838,0.9460593575952316,-0.8239871824216607
1539131801000035,5.0354772259097444,1.2512397955290453,-0.33569848172737693
1539131801016016,4.364080262455218,1.2512397955290453,-0.33569848172737693
1539131801031996,1.2512397955290453,1.0070954451819034,-0.7629510948347615
1539131801047943,-1.3122758831159445,0.5798428320745188,-1.3733119707026162
1539131801063923,-2.227817196917613,0.5188067444876197,-1.6174563210497581
1539131801079904,-1.5564202334630863,0.8239871824216607,-1.4953841458761872
1539131801095885,-0.33569848172737693,1.0681315327688026,-1.3733119707026162
1539131801111866,0.6408789196611906,1.2512397955290453,-1.3122758831159445
1539131801127846,1.0681315327688026,1.3122758831159445,-1.1291676203554744
1539131801143827,0.8850232700083325,1.1902037079423735,-0.9460593575952316
1539131801159808,-0.09155413138023505,1.0681315327688026,-0.5798428320745188
1539131801175789,-0.8850232700083325,1.1902037079423735,-0.3967345693140487
1539131801191769,-0.45777065690094787,1.2512397955290453,-0.5188067444876197
1539131801207750,1.6174563210497581,1.6174563210497581,0.03051804379333589
1539131801223731,2.7161058976118966,1.9226367589837992,0.3967345693140487
1539131801239711,1.3122758831159445,1.4953841458761872,0.6408789196611906
1539131801255692,-0.6408789196611906,1.2512397955290453,0.3967345693140487
1539131801271673,-1.6784924086366573,1.3733119707026162,0.2746623941404778
1539131801287654,-1.0681315327688026,1.5564202334630863,0.2746623941404778
1539131801303634,-0.03051804379333589,1.739528496223329,0.3967345693140487
1539131801319615,1.1902037079423735,1.4343480582895154,0.45777065690094787
1539131801335596,1.1291676203554744,1.0070954451819034,0.2746623941404778
1539131801351576,0.5798428320745188,0.3967345693140487,0.33569848172737693
1539131801367584,-0.09155413138023505,-0.3967345693140487,0.45777065690094787
1539131801383565,-0.5188067444876197,-0.8850232700083325,0.45777065690094787
1539131801399545,-0.03051804379333589,-1.0070954451819034,0.7019150072480898
1539131801415526,0.8239871824216607,-0.8850232700083325,0.7019150072480898
1539131801431507,-0.15259021896690683,-0.6408789196611906,0.6408789196611906
1539131801447487,-1.983672846570471,-0.33569848172737693,0.5188067444876197
1539131801463468,-3.997863736934505,-0.09155413138023505,0.15259021896690683
1539131801479449,-4.180971999694748,0.3967345693140487,-0.03051804379333589
1539131801495430,-3.7537193865873633,0.8850232700083325,-0.2746623941404778
1539131801511410,-3.1433585107195086,1.1902037079423735,-0.45777065690094787
1539131801527391,-0.7629510948347615,1.3122758831159445,-0.15259021896690683
1539131801543372,1.0681315327688026,1.1291676203554744,0.09155413138023505
1539131801559352,1.3733119707026162,0.9460593575952316,0.213626306553806
1539131801575333,0.8850232700083325,0.6408789196611906,0.15259021896690683
1539131801591314,0.5188067444876197,0.45777065690094787,0.213626306553806
1539131801607295,0.7019150072480898,0.33569848172737693,0.2746623941404778
1539131801623275,-0.09155413138023505,0.33569848172737693,0.03051804379333589
1539131801639256,-1.4343480582895154,0.33569848172737693,-1.0070954451819034
1539131801655237,-1.0681315327688026,0.7019150072480898,-1.6784924086366573
1539131801671218,0.3967345693140487,1.0681315327688026,-1.983672846570471
1539131801687194,2.227817196917613,1.4343480582895154,-1.8005645838102282
1539131801703175,2.8381780727854675,1.4953841458761872,-1.5564202334630863
1539131801719156,2.166781109330941,1.1291676203554744,-1.2512397955290453
1539131801735137,1.2512397955290453,0.7019150072480898,-0.9460593575952316
1539131801751117,0.5188067444876197,0.2746623941404778,-0.8850232700083325
1539131801767098,0.5188067444876197,-0.03051804379333589,-1.0681315327688026
1539131801783079,0.8239871824216607,-0.09155413138023505,-1.2512397955290453
1539131801799059,1.5564202334630863,-0.09155413138023505,-1.3122758831159445
1539131801815040,2.410925459678083,0.09155413138023505,-1.1291676203554744
1539131801831021,3.2043945983061803,0.45777065690094787,-0.7019150072480898
1539131801847002,3.0823224231326094,0.8850232700083325,-0.45777065690094787
1539131801862982,2.4719615472647547,1.2512397955290453,-0.2746623941404778
1539131801878963,2.655069810025225,1.6174563210497581,-0.09155413138023505
1539131801894944,2.4719615472647547,1.4343480582895154,0.213626306553806
1539131801910925,2.04470893415737,1.0681315327688026,0.45777065690094787
1539131801926905,1.4343480582895154,0.5798428320745188,0.5188067444876197
1539131801942886,2.04470893415737,0.213626306553806,0.7019150072480898
1539131801958867,2.8992141603723667,0.213626306553806,0.7629510948347615
1539131801974847,3.2043945983061803,0.33569848172737693,0.6408789196611906
1539131801990828,3.5095750362402214,0.45777065690094787,0.6408789196611906
1539131802006805,3.0212863355459376,0.213626306553806,0.8239871824216607
1539131802022786,1.8616006713969,0.03051804379333589,0.7019150072480898
1539131802038766,0.33569848172737693,0.03051804379333589,0.5798428320745188
1539131802054747,-0.7629510948347615,0.213626306553806,0.3967345693140487
1539131802070728,-0.6408789196611906,0.7019150072480898,0.2746623941404778
1539131802086709,-0.33569848172737693,1.1291676203554744,0.45777065690094787
1539131802102689,0.8239871824216607,1.4953841458761872,0.7629510948347615
1539131802118670,1.983672846570471,1.4343480582895154,1.1291676203554744
1539131802134651,1.4343480582895154,0.9460593575952316,1.3122758831159445
1539131802150632,0.2746623941404778,0.5798428320745188,1.0070954451819034
1539131802166612,-1.0681315327688026,0.15259021896690683,0.6408789196611906
1539131802182593,-2.9602502479590385,-0.2746623941404778,0.09155413138023505
1539131802198574,-3.814755474174035,-0.5798428320745188,-0.3967345693140487
1539131802214554,-3.936827649347606,-1.1902037079423735,-0.3967345693140487
1539131802230535,-3.6316472114137923,-1.1902037079423735,-0.2746623941404778
1539131802246516,-3.5095750362402214,-0.5188067444876197,-0.45777065690094787
1539131802262497,-3.4485389486533222,0.213626306553806,-1.0070954451819034
1539131802278477,-3.814755474174035,0.7019150072480898,-1.2512397955290453
1539131802294458,-4.119935912108076,0.7629510948347615,-1.3733119707026162
1539131802310439,-3.3264667734797513,0.6408789196611906,-1.1291676203554744
1539131802326416,-1.0070954451819034,0.5188067444876197,-0.6408789196611906
1539131802342396,0.8239871824216607,0.8239871824216607,-0.6408789196611906
1539131802358377,1.1291676203554744,1.1902037079423735,-0.9460593575952316
1539131802374358,0.03051804379333589,1.0681315327688026,-1.2512397955290453
1539131802390339,-1.3733119707026162,0.9460593575952316,-1.5564202334630863
1539131802406319,-1.8005645838102282,0.9460593575952316,-1.8005645838102282
1539131802422300,-0.6408789196611906,0.7019150072480898,-1.5564202334630863
1539131802438281,0.9460593575952316,0.7629510948347615,-1.2512397955290453
1539131802454261,1.5564202334630863,0.8850232700083325,-1.3733119707026162
1539131802470242,0.3967345693140487,0.7629510948347615,-1.9226367589837992
1539131802486223,-1.1902037079423735,0.5188067444876197,-2.532997634851654
1539131802502204,-1.3733119707026162,0.45777065690094787,-2.655069810025225
1539131802518184,-0.7019150072480898,0.45777065690094787,-2.288853284504512
1539131802534165,0.45777065690094787,0.3967345693140487,-1.8616006713969
1539131802550146,0.8850232700083325,0.5188067444876197,-1.8005645838102282
1539131802566126,0.213626306553806,0.7019150072480898,-1.9226367589837992
1539131802582107,-0.9460593575952316,0.8850232700083325,-2.227817196917613
1539131802598088,-1.8616006713969,1.0070954451819034,-2.655069810025225
1539131802614069,-1.1902037079423735,1.1291676203554744,-2.532997634851654
1539131802630049,0.5188067444876197,1.2512397955290453,-2.04470893415737
1539131802646026,0.9460593575952316,1.1902037079423735,-1.6784924086366573
1539131802662007,-0.8850232700083325,0.8850232700083325,-1.6784924086366573
1539131802677988,-2.288853284504512,0.8850232700083325,-1.9226367589837992
1539131802693968,-1.9226367589837992,1.0070954451819034,-1.6174563210497581
1539131802709949,-0.3967345693140487,1.1291676203554744,-1.0681315327688026
1539131802725930,-0.09155413138023505,1.3122758831159445,-0.7629510948347615
1539131802741911,-0.5188067444876197,1.3733119707026162,-0.5188067444876197
1539131802757891,-1.6174563210497581,1.1902037079423735,-0.3967345693140487
1539131802773872,-1.4953841458761872,0.9460593575952316,-0.2746623941404778
1539131802789853,-0.45777065690094787,0.8239871824216607,0.09155413138023505
1539131802805833,0.3967345693140487,0.5798428320745188,0.33569848172737693
1539131802821814,0.7629510948347615,0.213626306553806,0.213626306553806
1539131802837795,0.7019150072480898,0.03051804379333589,-0.03051804379333589
1539131802853776,0.15259021896690683,-0.03051804379333589,-0.45777065690094787
1539131802869756,0.03051804379333589,0.09155413138023505,-0.7629510948347615
1539131802885737,0.15259021896690683,0.33569848172737693,-1.0681315327688026
1539131802901718,-0.03051804379333589,0.7629510948347615,-1.3733119707026162
1539131802917698,-0.15259021896690683,1.4343480582895154,-1.6784924086366573
1539131802933679,-0.09155413138023505,1.983672846570471,-1.8616006713969
1539131802949660,-0.2746623941404778,2.4719615472647547,-1.8616006713969
1539131802965637,-0.2746623941404778,2.410925459678083,-1.8005645838102282
1539131802981618,-0.09155413138023505,1.8616006713969,-1.739528496223329
1539131802997598,-0.213626306553806,1.3733119707026162,-1.6784924086366573
1539131803013579,-0.03051804379333589,0.8850232700083325,-1.3733119707026162
1539131803029560,0.2746623941404778,0.6408789196611906,-1.2512397955290453
1539131803045540,0.213626306553806,0.3967345693140487,-1.0070954451819034
1539131803061521,-0.3967345693140487,0.213626306553806,-0.9460593575952316
1539131803077502,-0.5798428320745188,0.15259021896690683,-0.8850232700083325
