Timestamp (microseconds),Accel X (g),Accel Y (g),Accel Z (g)
1539731777320556,-0.16803234912642084,0.9496604867627987,0.22455176623178463
1539731777336556,-0.16668955519951156,0.9468528267338066,0.22406347753109035
1539731777352556,-0.16327153429465158,0.9459983215075916,0.22504005493247892
1539731777368556,-0.1669336995498587,0.9477073319600215,0.2243076218814375
1539731777384555,-0.1669336995498587,0.948439765011063,0.22772564278629748
1539731777400555,-0.161440451667048,0.9488059815365837,0.22796978713664462
1539731777416555,-0.15912108033875016,0.9496604867627987,0.2280918593118182
1539731777432555,-0.16412603952086657,0.9479514763103687,0.22577248798352034
1539731777448555,-0.1602197299153123,0.9490501258869308,0.22821393148699176
1539731777464554,-0.15631342030975803,0.9495384145876251,0.22735942626077676
1539731777480554,-0.15790035858701446,0.9517357137407494,0.22919050888838033
1539731777496554,-0.15619134813458446,0.9512474250400551,0.22955672541390104
1539731777512554,-0.1585107194628823,0.9478294041351951,0.22699320973525605
1539731777528554,-0.15716792553597303,0.945876249332418,0.2301670862897689
1539731777544553,-0.1593652246890973,0.9451438162813766,0.23175402456702532
1539731777560553,-0.16205081254291587,0.9480735484855423,0.23248645761806674
1539731777576553,-0.16180666819256873,0.950148775463493,0.23163195239185175
1539731777592553,-0.16327153429465158,0.9506370641641873,0.23175402456702532
1539731777608553,-0.16473640039673443,0.9483176928358894,0.23285267414358746
1539731777624552,-0.16729991607537942,0.9456321049820708,0.23065537499046318
1539731777640564,-0.16913099870298298,0.9452658884565501,0.22796978713664462
1539731777656563,-0.17047379262989226,0.9483176928358894,0.22577248798352034
1539731777672563,-0.17254901960784297,0.9496604867627987,0.22504005493247892
1539731777688563,-0.1715724422064544,0.9469748989089801,0.22101167315175108
1539731777704563,-0.16925307087815655,0.9474631876096744,0.22015716792553608
1539731777720563,-0.16473640039673443,0.947585259784848,0.21905851834897394
1539731777736562,-0.164003967345693,0.9516136415655758,0.21722743572137038
1539731777752562,-0.16168459601739515,0.9516136415655758,0.2167391470206761
1539731777768562,-0.15924315251392374,0.951003280689708,0.2162508583199818
1539731777784562,-0.15631342030975803,0.9472190432593273,0.21783779659723823
1539731777800562,-0.15423819333180733,0.945021744106203,0.2167391470206761
1539731777816561,-0.1543602655069809,0.9444113832303351,0.2213778896772718
1539731777832561,-0.1543602655069809,0.9466086823834594,0.22333104448004892
1539731777848561,-0.15509269855802232,0.9499046311131458,0.22211032272831321
1539731777864561,-0.15680170901045232,0.9517357137407494,0.22284275577935464
1539731777880560,-0.16034180209048587,0.9522240024414437,0.2251621271076525
1539731777896560,-0.162294956893263,0.9517357137407494,0.22308690012970178
1539731777912560,-0.16351567864499872,0.9483176928358894,0.2258945601586939
1539731777928560,-0.16510261692225514,0.9446555275806823,0.2258945601586939
1539731777944560,-0.1644922560463873,0.9434348058289466,0.22784771496147105
1539731777960571,-0.163149462119478,0.9434348058289466,0.22943465323872747
1539731777976571,-0.16302738994430443,0.9472190432593273,0.23236438544289317
1539731777992571,-0.16241702906843658,0.9480735484855423,0.23285267414358746
1539731778008570,-0.16180666819256873,0.9479514763103687,0.23443961242084388
1539731778024570,-0.16119630731670087,0.951003280689708,0.2348058289463646
1539731778040570,-0.1627832455939573,0.9511253528648815,0.23321889066910817
1539731778056570,-0.16351567864499872,0.9491721980621044,0.23163195239185175
1539731778072569,-0.16119630731670087,0.9461203936827651,0.23065537499046318
1539731778088569,-0.16266117341878372,0.9468528267338066,0.22906843671320676
1539731778104569,-0.16083009079118016,0.9488059815365837,0.2263828488593882
1539731778120569,-0.16119630731670087,0.9496604867627987,0.22455176623178463
1539731778136569,-0.16339360646982515,0.9497825589379723,0.2258945601586939
1539731778152568,-0.16302738994430443,0.9502708476386665,0.22687113756008248
1539731778168568,-0.16095216296635373,0.948439765011063,0.22796978713664462
1539731778184568,-0.1602197299153123,0.945021744106203,0.22601663233386748
1539731778200568,-0.16156252384222158,0.9459983215075916,0.22540627145799963
1539731778216568,-0.1619287403677423,0.9459983215075916,0.22491798275730535
1539731778232567,-0.16290531776913086,0.9499046311131458,0.22577248798352034
1539731778248567,-0.1652246890974287,0.950148775463493,0.22479591058213177
1539731778264567,-0.16632333867399085,0.9516136415655758,0.22504005493247892
1539731778280578,-0.16498054474708157,0.9507591363393608,0.22149996185244536
1539731778296578,-0.1669336995498587,0.947585259784848,0.21771572442206466
1539731778312578,-0.16632333867399085,0.9468528267338066,0.22211032272831321
1539731778328578,-0.16473640039673443,0.9478294041351951,0.2179598687724118
1539731778344577,-0.1644922560463873,0.9477073319600215,0.21734950789654395
1539731778360577,-0.16180666819256873,0.9477073319600215,0.22198825055313964
1539731778376577,-0.1610742351415273,0.946730754558633,0.22186617837796607
1539731778392577,-0.16083009079118016,0.9469748989089801,0.22235446707866036
1539731778408577,-0.15863279163805588,0.948439765011063,0.22308690012970178
1539731778424576,-0.1581445029373616,0.9483176928358894,0.22369726100556964
1539731778440576,-0.15863279163805588,0.9486839093614101,0.22601663233386748
1539731778456576,-0.15887693598840302,0.9479514763103687,0.22906843671320676
1539731778472576,-0.15924315251392374,0.9483176928358894,0.22748149843595034
1539731778488576,-0.162294956893263,0.9469748989089801,0.22906843671320676
1539731778504575,-0.16412603952086657,0.9474631876096744,0.22906843671320676
1539731778520575,-0.16266117341878372,0.9483176928358894,0.23028915846494247
1539731778536575,-0.16583504997329657,0.9505149919890137,0.2289463645380332
1539731778552575,-0.16510261692225514,0.9513694972152287,0.2305333028152896
1539731778568575,-0.1669336995498587,0.9491721980621044,0.23126573586633103
1539731778584574,-0.1669336995498587,0.9442893110551616,0.23028915846494247
1539731778600586,-0.16681162737468513,0.943312733653773,0.23260852979324032
1539731778616585,-0.164858472571908,0.942458228427558,0.2322423132677196
1539731778632585,-0.16388189517051943,0.9462424658579387,0.22748149843595034
1539731778648585,-0.16327153429465158,0.9497825589379723,0.2296787975890746
1539731778664585,-0.16205081254291587,0.9514915693904022,0.23199816891737246
1539731778680585,-0.16180666819256873,0.9528343633173115,0.22711528191042962
1539731778696584,-0.16083009079118016,0.953566796368353,0.22796978713664462
1539731778712584,-0.15997558556496516,0.9512474250400551,0.22565041580834677
1539731778728584,-0.15973144121461802,0.9459983215075916,0.2238193331807432
1539731778744584,-0.16046387426565945,0.9440451667048144,0.2243076218814375
1539731778760584,-0.16119630731670087,0.9439230945296408,0.22369726100556964
1539731778776583,-0.16205081254291587,0.9456321049820708,0.22211032272831321
1539731778792583,-0.161440451667048,0.947585259784848,0.2208896009765775
1539731778808583,-0.16290531776913086,0.9489280537117573,0.22125581750209822
1539731778824583,-0.16327153429465158,0.9497825589379723,0.22247653925383393
1539731778840582,-0.1627832455939573,0.950148775463493,0.2191805905241475
1539731778856582,-0.161440451667048,0.9507591363393608,0.22186617837796607
1539731778872582,-0.16058594644083302,0.9517357137407494,0.22186617837796607
1539731778888582,-0.15777828641184088,0.949294270237278,0.2238193331807432
1539731778904582,-0.15973144121461802,0.9472190432593273,0.22406347753109035
1539731778920593,-0.16058594644083302,0.9472190432593273,0.22186617837796607
1539731778936593,-0.15960936903944445,0.9457541771572444,0.22613870450904106
1539731778952592,-0.16046387426565945,0.9481956206607158,0.2267490653849089
1539731778968592,-0.16424811169604014,0.948439765011063,0.22687113756008248
1539731778984592,-0.16644541084916442,0.9488059815365837,0.2243076218814375
1539731779000592,-0.1677882047760737,0.9480735484855423,0.22650492103456177
1539731779016592,-0.16595712214847014,0.9459983215075916,0.2267490653849089
1539731779032591,-0.16498054474708157,0.9480735484855423,0.22528419928282606
1539731779048591,-0.16595712214847014,0.9457541771572444,0.22796978713664462
1539731779064591,-0.16644541084916442,0.9477073319600215,0.22662699320973534
1539731779080591,-0.16595712214847014,0.9489280537117573,0.2293125810635539
1539731779096591,-0.164858472571908,0.949294270237278,0.23089951934081032
1539731779112590,-0.16388189517051943,0.9473411154345008,0.22906843671320676
1539731779128590,-0.16424811169604014,0.9445334554055087,0.22784771496147105
1539731779144590,-0.16058594644083302,0.9453879606317237,0.2293125810635539
1539731779160590,-0.15826657511253517,0.9479514763103687,0.2276035706111239
1539731779176590,-0.15631342030975803,0.9503929198138401,0.2284580758373389
1539731779192589,-0.15753414206149374,0.9506370641641873,0.22870222018768604
1539731779208589,-0.15716792553597303,0.9516136415655758,0.22870222018768604
1539731779224589,-0.15716792553597303,0.9474631876096744,0.22735942626077676
1539731779240600,-0.15655756466010518,0.9473411154345008,0.22687113756008248
1539731779256600,-0.1572899977111466,0.9479514763103687,0.2280918593118182
1539731779272601,-0.1581445029373616,0.947585259784848,0.22442969405661106
1539731779288601,-0.1589990081635766,0.9468528267338066,0.2234531166552225
1539731779304601,-0.1610742351415273,0.9469748989089801,0.22235446707866036
1539731779320602,-0.16290531776913086,0.9478294041351951,0.22113374532692465
1539731779336602,-0.16510261692225514,0.9480735484855423,0.22247653925383393
1539731779352602,-0.16668955519951156,0.9469748989089801,0.21930266269932108
1539731779368602,-0.16729991607537942,0.9459983215075916,0.22064545662623036
1539731779384603,-0.16974135957885084,0.9464866102082858,0.22149996185244536
1539731779400603,-0.1694972152285037,0.9468528267338066,0.22394140535591678
1539731779416603,-0.1686427100022887,0.9477073319600215,0.22504005493247892
1539731779432603,-0.16681162737468513,0.9494163424124515,0.2246738384069582
1539731779448604,-0.166567483024338,0.9494163424124515,0.22479591058213177
1539731779464604,-0.1652246890974287,0.9500267032883194,0.22540627145799963
1539731779480604,-0.16217288471808944,0.9491721980621044,0.22735942626077676
1539731779496605,-0.15997558556496516,0.949294270237278,0.22565041580834677
1539731779512605,-0.15948729686427088,0.9490501258869308,0.22699320973525605
1539731779528605,-0.15875486381322945,0.9472190432593273,0.22565041580834677
1539731779544605,-0.15863279163805588,0.9468528267338066,0.2255283436331732
1539731779560608,-0.1576562142366673,0.9451438162813766,0.22662699320973534
1539731779576608,-0.15790035858701446,0.9456321049820708,0.22772564278629748
1539731779592608,-0.15790035858701446,0.9489280537117573,0.22735942626077676
1539731779608608,-0.15802243076218803,0.9511253528648815,0.22796978713664462
1539731779624609,-0.15924315251392374,0.9500267032883194,0.23041123064011604
1539731779640609,-0.15973144121461802,0.9490501258869308,0.2330968184939346
1539731779656609,-0.1619287403677423,0.9474631876096744,0.23126573586633103
1539731779672609,-0.16205081254291587,0.9480735484855423,0.2334630350194553
1539731779688610,-0.16302738994430443,0.9488059815365837,0.2330968184939346
1539731779704610,-0.16424811169604014,0.9496604867627987,0.2318760967421989
1539731779720610,-0.16375982299534586,0.9470969710841537,0.23248645761806674
1539731779736611,-0.1652246890974287,0.9456321049820708,0.22870222018768604
1539731779752611,-0.1669336995498587,0.943312733653773,0.22699320973525605
1539731779768611,-0.16717784390020585,0.9455100328068973,0.2255283436331732
1539731779784611,-0.16595712214847014,0.9466086823834594,0.22418554970626392
1539731779800612,-0.16510261692225514,0.947585259784848,0.22308690012970178
1539731779816612,-0.164858472571908,0.9481956206607158,0.2229648279545282
1539731779832612,-0.16437018387121372,0.9479514763103687,0.22149996185244536
1539731779848612,-0.16217288471808944,0.949294270237278,0.2208896009765775
1539731779864613,-0.161440451667048,0.9485618371862365,0.22113374532692465
1539731779880615,-0.16058594644083302,0.9470969710841537,0.21930266269932108
1539731779896615,-0.16119630731670087,0.9474631876096744,0.22308690012970178
1539731779912615,-0.15948729686427088,0.9490501258869308,0.22406347753109035
1539731779928616,-0.16009765774013873,0.9477073319600215,0.22186617837796607
1539731779944616,-0.16034180209048587,0.9481956206607158,0.22540627145799963
1539731779960616,-0.1607080186160066,0.9480735484855423,0.22369726100556964
1539731779976616,-0.1619287403677423,0.9496604867627987,0.22833600366216533
1539731779992617,-0.16302738994430443,0.9485618371862365,0.22711528191042962
1539731780008617,-0.16205081254291587,0.9505149919890137,0.23065537499046318
1539731780024617,-0.16119630731670087,0.9494163424124515,0.22980086976424818
1539731780040618,-0.16375982299534586,0.9477073319600215,0.22833600366216533
1539731780056618,-0.1607080186160066,0.947585259784848,0.22919050888838033
1539731780072618,-0.16095216296635373,0.947585259784848,0.2280918593118182
1539731780088618,-0.1627832455939573,0.9485618371862365,0.22748149843595034
1539731780104619,-0.16241702906843658,0.9483176928358894,0.22858014801251247
1539731780120619,-0.16290531776913086,0.9470969710841537,0.23004501411459533
1539731780136619,-0.16424811169604014,0.9477073319600215,0.22833600366216533
1539731780152619,-0.16205081254291587,0.9473411154345008,0.22796978713664462
1539731780168620,-0.1602197299153123,0.9480735484855423,0.22748149843595034
1539731780184620,-0.16095216296635373,0.9456321049820708,0.22796978713664462
1539731780200622,-0.16266117341878372,0.9430685893034259,0.22906843671320676
1539731780216622,-0.163149462119478,0.9414816510261694,0.22858014801251247
1539731780232623,-0.16168459601739515,0.9430685893034259,0.2293125810635539
1539731780248623,-0.16253910124361015,0.9470969710841537,0.22687113756008248
1539731780264623,-0.16351567864499872,0.9524681467917908,0.22748149843595034
1539731780280624,-0.1627832455939573,0.954421301594568,0.22687113756008248
1539731780296624,-0.16217288471808944,0.9525902189669644,0.22528419928282606
1539731780312624,-0.164003967345693,0.9499046311131458,0.22577248798352034
1539731780328624,-0.16266117341878372,0.9488059815365837,0.22333104448004892
1539731780344625,-0.1627832455939573,0.9483176928358894,0.22284275577935464
1539731780360625,-0.16375982299534586,0.9447775997558558,0.2246738384069582
1539731780376625,-0.16205081254291587,0.945021744106203,0.22333104448004892
1539731780392625,-0.16388189517051943,0.9447775997558558,0.2229648279545282
1539731780408626,-0.16473640039673443,0.9474631876096744,0.2196688792248418
1539731780424626,-0.16327153429465158,0.9513694972152287,0.2208896009765775
1539731780440626,-0.164858472571908,0.9505149919890137,0.22247653925383393
1539731780456627,-0.1644922560463873,0.9490501258869308,0.22284275577935464
1539731780472627,-0.16388189517051943,0.9463645380331123,0.22272068360418107
1539731780488627,-0.16290531776913086,0.9468528267338066,0.22357518883039607
1539731780504627,-0.16058594644083302,0.9496604867627987,0.22491798275730535
1539731780520630,-0.16058594644083302,0.9494163424124515,0.22565041580834677
1539731780536630,-0.16266117341878372,0.9491721980621044,0.22858014801251247
1539731780552630,-0.16583504997329657,0.9490501258869308,0.22955672541390104
1539731780568630,-0.16290531776913086,0.9463645380331123,0.2293125810635539
1539731780584631,-0.16534676127260228,0.9463645380331123,0.22858014801251247
1539731780600631,-0.165712977798123,0.946730754558633,0.22955672541390104
1539731780616631,-0.16534676127260228,0.9462424658579387,0.22955672541390104
1539731780632631,-0.16510261692225514,0.9479514763103687,0.23041123064011604
1539731780648632,-0.16437018387121372,0.9481956206607158,0.23004501411459533
1539731780664632,-0.16253910124361015,0.9464866102082858,0.22601663233386748
1539731780680632,-0.16131837949187444,0.9459983215075916,0.2284580758373389
1539731780696632,-0.16009765774013873,0.9455100328068973,0.22870222018768604
1539731780712633,-0.16034180209048587,0.9444113832303351,0.2280918593118182
1539731780728633,-0.15716792553597303,0.9447775997558558,0.2284580758373389
1539731780744633,-0.1569237811856259,0.9472190432593273,0.22858014801251247
1539731780760634,-0.1543602655069809,0.9489280537117573,0.22906843671320676
1539731780776634,-0.1543602655069809,0.9507591363393608,0.23077744716563675
1539731780792634,-0.15631342030975803,0.9486839093614101,0.2301670862897689
1539731780808634,-0.1555809872587166,0.9470969710841537,0.22906843671320676
1539731780824635,-0.15790035858701446,0.9488059815365837,0.22882429236285962
1539731780840637,-0.16046387426565945,0.9483176928358894,0.22613870450904106
1539731780856637,-0.16205081254291587,0.948439765011063,0.22650492103456177
1539731780872637,-0.161440451667048,0.9517357137407494,0.22613870450904106
1539731780888638,-0.16388189517051943,0.9502708476386665,0.22577248798352034
1539731780904638,-0.16375982299534586,0.9488059815365837,0.22491798275730535
1539731780920638,-0.16546883344777585,0.9477073319600215,0.2238193331807432
1539731780936638,-0.16632333867399085,0.9462424658579387,0.22650492103456177
1539731780952639,-0.16729991607537942,0.9452658884565501,0.22577248798352034
1539731780968639,-0.16888685435263584,0.9466086823834594,0.22833600366216533
1539731780984639,-0.16839856565194156,0.9472190432593273,0.22613870450904106
1539731781000640,-0.16729991607537942,0.9477073319600215,0.22650492103456177
1539731781016640,-0.16546883344777585,0.9483176928358894,0.22369726100556964
1539731781032640,-0.16595712214847014,0.9466086823834594,0.22406347753109035
1539731781048640,-0.16668955519951156,0.9477073319600215,0.22479591058213177
1539731781064641,-0.16632333867399085,0.9483176928358894,0.22235446707866036
1539731781080641,-0.16437018387121372,0.9499046311131458,0.2217441062027925
1539731781096641,-0.16375982299534586,0.9499046311131458,0.2246738384069582
1539731781112641,-0.16375982299534586,0.9491721980621044,0.2243076218814375
1539731781128642,-0.16253910124361015,0.947585259784848,0.22113374532692465
1539731781144642,-0.16461432822156086,0.9463645380331123,0.22272068360418107
1539731781160644,-0.16461432822156086,0.9452658884565501,0.2234531166552225
1539731781176644,-0.164003967345693,0.9477073319600215,0.22504005493247892
1539731781192645,-0.16351567864499872,0.9481956206607158,0.22528419928282606
1539731781208645,-0.16119630731670087,0.9488059815365837,0.22528419928282606
1539731781224645,-0.15997558556496516,0.9480735484855423,0.22406347753109035
1539731781240646,-0.1607080186160066,0.9463645380331123,0.2238193331807432
1539731781256646,-0.15912108033875016,0.9455100328068973,0.22504005493247892
1539731781272646,-0.1581445029373616,0.9447775997558558,0.22394140535591678
1539731781288646,-0.15960936903944445,0.9472190432593273,0.22272068360418107
1539731781304647,-0.15997558556496516,0.949294270237278,0.22418554970626392
1539731781320647,-0.15960936903944445,0.9521019302662701,0.2272373540856032
1539731781336647,-0.16083009079118016,0.9516136415655758,0.2263828488593882
1539731781352647,-0.16253910124361015,0.9491721980621044,0.22796978713664462
1539731781368648,-0.16339360646982515,0.9477073319600215,0.22784771496147105
1539731781384648,-0.16327153429465158,0.9470969710841537,0.22906843671320676
1539731781400648,-0.16339360646982515,0.9472190432593273,0.2305333028152896
1539731781416648,-0.1644922560463873,0.950148775463493,0.23041123064011604
1539731781432649,-0.16546883344777585,0.9485618371862365,0.22955672541390104
1539731781448649,-0.164858472571908,0.9483176928358894,0.22980086976424818
1539731781464649,-0.1669336995498587,0.9485618371862365,0.22882429236285962
1539731781480651,-0.16705577172503228,0.9461203936827651,0.2289463645380332
1539731781496652,-0.16498054474708157,0.9468528267338066,0.22833600366216533
1539731781512652,-0.16559090562294942,0.9474631876096744,0.22577248798352034
1539731781528652,-0.16559090562294942,0.945876249332418,0.22687113756008248
1539731781544653,-0.16437018387121372,0.9455100328068973,0.22626077668421463
1539731781560653,-0.16461432822156086,0.9472190432593273,0.2234531166552225
1539731781576653,-0.16461432822156086,0.9490501258869308,0.22650492103456177
1539731781592653,-0.1619287403677423,0.9485618371862365,0.2243076218814375
1539731781608654,-0.16119630731670087,0.9494163424124515,0.22577248798352034
1539731781624654,-0.16156252384222158,0.9497825589379723,0.22308690012970178
1539731781640654,-0.16046387426565945,0.9496604867627987,0.22186617837796607
1539731781656654,-0.15912108033875016,0.9486839093614101,0.22320897230487535
1539731781672655,-0.1602197299153123,0.947585259784848,0.22247653925383393
1539731781688655,-0.161440451667048,0.9461203936827651,0.22504005493247892
1539731781704655,-0.16180666819256873,0.9464866102082858,0.22320897230487535
1539731781720656,-0.1627832455939573,0.9485618371862365,0.22198825055313964
1539731781736656,-0.1627832455939573,0.9491721980621044,0.22308690012970178
1539731781752656,-0.16180666819256873,0.9502708476386665,0.22528419928282606
1539731781768656,-0.1619287403677423,0.950148775463493,0.22748149843595034
1539731781784657,-0.1610742351415273,0.9496604867627987,0.22784771496147105
1539731781800659,-0.1598535133897916,0.9491721980621044,0.22796978713664462
1539731781816659,-0.15948729686427088,0.9477073319600215,0.22748149843595034
1539731781832659,-0.16058594644083302,0.9485618371862365,0.2310215915159839
1539731781848660,-0.16131837949187444,0.9499046311131458,0.22858014801251247
1539731781864660,-0.16375982299534586,0.9490501258869308,0.23114366369115746
1539731781880660,-0.16473640039673443,0.9456321049820708,0.22821393148699176
1539731781896660,-0.16327153429465158,0.9447775997558558,0.22735942626077676
1539731781912661,-0.16339360646982515,0.9434348058289466,0.23028915846494247
1539731781928661,-0.1636377508201723,0.9438010223544673,0.2289463645380332
1539731781944661,-0.16327153429465158,0.9457541771572444,0.22943465323872747
1539731781960662,-0.1627832455939573,0.9470969710841537,0.22687113756008248
1539731781976662,-0.163149462119478,0.9505149919890137,0.22626077668421463
1539731781992662,-0.16290531776913086,0.9511253528648815,0.22455176623178463
1539731782008662,-0.16327153429465158,0.9532005798428322,0.22528419928282606
1539731782024663,-0.1627832455939573,0.9505149919890137,0.22650492103456177
1539731782040663,-0.16180666819256873,0.948439765011063,0.22870222018768604
1539731782056663,-0.1636377508201723,0.9481956206607158,0.2238193331807432
1539731782072663,-0.16412603952086657,0.9477073319600215,0.22442969405661106
1539731782088664,-0.16546883344777585,0.9483176928358894,0.2213778896772718
1539731782104664,-0.16620126649881728,0.9464866102082858,0.22406347753109035
1539731782120666,-0.166567483024338,0.9468528267338066,0.2225986114290075
1539731782136666,-0.16302738994430443,0.9468528267338066,0.2217441062027925
1539731782152667,-0.162294956893263,0.9481956206607158,0.22125581750209822
1539731782168667,-0.1627832455939573,0.9488059815365837,0.21820401312275894
1539731782184667,-0.161440451667048,0.9489280537117573,0.22406347753109035
1539731782200667,-0.16180666819256873,0.9503929198138401,0.22455176623178463
1539731782216668,-0.16046387426565945,0.9503929198138401,0.22479591058213177
1539731782232668,-0.15912108033875016,0.9489280537117573,0.22577248798352034
1539731782248668,-0.1602197299153123,0.9457541771572444,0.2276035706111239
1539731782264669,-0.16034180209048587,0.9456321049820708,0.22626077668421463
1539731782280669,-0.16156252384222158,0.946730754558633,0.22601663233386748
1539731782296669,-0.16290531776913086,0.9477073319600215,0.22601663233386748
1539731782312669,-0.16351567864499872,0.9497825589379723,0.22711528191042962
1539731782328670,-0.16388189517051943,0.9488059815365837,0.22442969405661106
1539731782344670,-0.16290531776913086,0.9488059815365837,0.22748149843595034
1539731782360670,-0.16351567864499872,0.9466086823834594,0.2258945601586939
1539731782376670,-0.16351567864499872,0.9451438162813766,0.2246738384069582
1539731782392671,-0.164858472571908,0.9462424658579387,0.22662699320973534
1539731782408671,-0.16388189517051943,0.9486839093614101,0.22455176623178463
1539731782424671,-0.1644922560463873,0.9495384145876251,0.22125581750209822
1539731782440673,-0.164003967345693,0.9500267032883194,0.22455176623178463
1539731782456674,-0.1627832455939573,0.9508812085145344,0.22479591058213177
1539731782472674,-0.16302738994430443,0.9485618371862365,0.22333104448004892
1539731782488674,-0.16253910124361015,0.9489280537117573,0.22565041580834677
1539731782504675,-0.16412603952086657,0.946730754558633,0.22308690012970178
1539731782520675,-0.16461432822156086,0.9464866102082858,0.22565041580834677
1539731782536675,-0.16559090562294942,0.9474631876096744,0.22796978713664462
1539731782552675,-0.16424811169604014,0.9491721980621044,0.2276035706111239
1539731782568676,-0.16375982299534586,0.9490501258869308,0.22906843671320676
1539731782584676,-0.16412603952086657,0.9485618371862365,0.22906843671320676
1539731782600676,-0.16351567864499872,0.946730754558633,0.22882429236285962
1539731782616676,-0.16290531776913086,0.9470969710841537,0.23041123064011604
1539731782632677,-0.16253910124361015,0.9479514763103687,0.22711528191042962
1539731782648677,-0.16327153429465158,0.9477073319600215,0.22601663233386748
1539731782664677,-0.1619287403677423,0.9483176928358894,0.2258945601586939
1539731782680678,-0.16095216296635373,0.9483176928358894,0.2272373540856032
1539731782696678,-0.162294956893263,0.9483176928358894,0.22601663233386748
1539731782712678,-0.1619287403677423,0.9480735484855423,0.2229648279545282
1539731782728678,-0.161440451667048,0.9485618371862365,0.2234531166552225
1539731782744679,-0.16009765774013873,0.9481956206607158,0.2255283436331732
1539731782760681,-0.16083009079118016,0.9462424658579387,0.2246738384069582
1539731782776681,-0.1610742351415273,0.9455100328068973,0.2238193331807432
1539731782792681,-0.16058594644083302,0.9470969710841537,0.22687113756008248
1539731782808682,-0.16302738994430443,0.9468528267338066,0.22455176623178463
1539731782824682,-0.16119630731670087,0.9490501258869308,0.22711528191042962
1539731782840682,-0.16253910124361015,0.950148775463493,0.22821393148699176
1539731782856682,-0.16437018387121372,0.951003280689708,0.2293125810635539
1539731782872683,-0.16095216296635373,0.9491721980621044,0.22833600366216533
1539731782888683,-0.16095216296635373,0.9491721980621044,0.2284580758373389
1539731782904683,-0.1607080186160066,0.9462424658579387,0.22796978713664462
1539731782920683,-0.1598535133897916,0.9445334554055087,0.2255283436331732
1539731782936684,-0.15960936903944445,0.9438010223544673,0.22796978713664462
1539731782952684,-0.1610742351415273,0.9444113832303351,0.22821393148699176
1539731782968684,-0.16205081254291587,0.9459983215075916,0.2258945601586939
1539731782984685,-0.16119630731670087,0.9472190432593273,0.2258945601586939
1539731783000685,-0.16217288471808944,0.9486839093614101,0.22735942626077676
1539731783016685,-0.16241702906843658,0.9500267032883194,0.22540627145799963
1539731783032685,-0.163149462119478,0.9495384145876251,0.2258945601586939
1539731783048686,-0.16327153429465158,0.951003280689708,0.2251621271076525
1539731783064686,-0.1652246890974287,0.9506370641641873,0.22613870450904106
1539731783080688,-0.16375982299534586,0.948439765011063,0.22540627145799963
1539731783096688,-0.16437018387121372,0.9473411154345008,0.22333104448004892
1539731783112689,-0.1644922560463873,0.9455100328068973,0.22394140535591678
1539731783128689,-0.16595712214847014,0.9442893110551616,0.2255283436331732
1539731783144689,-0.16510261692225514,0.9444113832303351,0.22491798275730535
1539731783160689,-0.16534676127260228,0.9464866102082858,0.22504005493247892
1539731783176690,-0.16498054474708157,0.9473411154345008,0.2238193331807432
1539731783192690,-0.16534676127260228,0.9451438162813766,0.22662699320973534
1539731783208690,-0.16388189517051943,0.9469748989089801,0.22540627145799963
1539731783224691,-0.16388189517051943,0.9491721980621044,0.22418554970626392
1539731783240691,-0.16180666819256873,0.949294270237278,0.22601663233386748
1539731783256691,-0.16168459601739515,0.9491721980621044,0.22565041580834677
1539731783272691,-0.16119630731670087,0.949294270237278,0.22711528191042962
1539731783288692,-0.15997558556496516,0.9494163424124515,0.2276035706111239
1539731783304692,-0.1607080186160066,0.9491721980621044,0.2251621271076525
1539731783320692,-0.16131837949187444,0.9468528267338066,0.22687113756008248
1539731783336692,-0.16241702906843658,0.9462424658579387,0.22699320973525605
1539731783352693,-0.163149462119478,0.947585259784848,0.22796978713664462
1539731783368693,-0.1636377508201723,0.9494163424124515,0.2267490653849089
1539731783384693,-0.16388189517051943,0.9495384145876251,0.2276035706111239
1539731783400726,-0.16168459601739515,0.9497825589379723,0.22626077668421463
1539731783416726,-0.16009765774013873,0.9500267032883194,0.2267490653849089
1539731783432726,-0.15997558556496516,0.9455100328068973,0.22504005493247892
1539731783448727,-0.16009765774013873,0.9448996719310294,0.22662699320973534
1539731783464727,-0.16180666819256873,0.9451438162813766,0.22528419928282606
1539731783480727,-0.16217288471808944,0.9463645380331123,0.22796978713664462
1539731783496728,-0.16217288471808944,0.9478294041351951,0.22699320973525605
1539731783512728,-0.1607080186160066,0.9494163424124515,0.22601663233386748
1539731783528728,-0.16217288471808944,0.9512474250400551,0.22772564278629748
1539731783544728,-0.16083009079118016,0.9496604867627987,0.22821393148699176
1539731783560729,-0.16156252384222158,0.9489280537117573,0.22662699320973534
1539731783576729,-0.16168459601739515,0.9472190432593273,0.22735942626077676
1539731783592729,-0.162294956893263,0.9472190432593273,0.2258945601586939
1539731783608729,-0.16241702906843658,0.9472190432593273,0.2246738384069582
1539731783624730,-0.1627832455939573,0.9481956206607158,0.2272373540856032
1539731783640730,-0.16412603952086657,0.9477073319600215,0.22858014801251247
1539731783656730,-0.16498054474708157,0.9472190432593273,0.22699320973525605
1539731783672731,-0.16302738994430443,0.9466086823834594,0.2263828488593882
1539731783688731,-0.16168459601739515,0.9453879606317237,0.22772564278629748
1539731783704731,-0.16217288471808944,0.9470969710841537,0.22504005493247892
1539731783720703,-0.16388189517051943,0.947585259784848,0.2258945601586939
1539731783736703,-0.16388189517051943,0.9478294041351951,0.2251621271076525
1539731783752703,-0.16388189517051943,0.9488059815365837,0.22699320973525605
1539731783768704,-0.1644922560463873,0.9490501258869308,0.22418554970626392
1539731783784704,-0.16437018387121372,0.9478294041351951,0.22601663233386748
1539731783800704,-0.163149462119478,0.9481956206607158,0.2263828488593882
1539731783816704,-0.16180666819256873,0.9495384145876251,0.2263828488593882
1539731783832705,-0.16156252384222158,0.9489280537117573,0.2276035706111239
1539731783848705,-0.16241702906843658,0.9469748989089801,0.2263828488593882
1539731783864705,-0.16266117341878372,0.9472190432593273,0.22772564278629748
1539731783880705,-0.1636377508201723,0.9491721980621044,0.2284580758373389
1539731783896706,-0.161440451667048,0.9495384145876251,0.2280918593118182
1539731783912706,-0.1619287403677423,0.9483176928358894,0.22711528191042962
1539731783928706,-0.16205081254291587,0.9462424658579387,0.2289463645380332
1539731783944707,-0.1602197299153123,0.9459983215075916,0.22796978713664462
1539731783960707,-0.15838864728770874,0.9456321049820708,0.22784771496147105
1539731783976707,-0.1598535133897916,0.9480735484855423,0.23065537499046318
1539731783992707,-0.161440451667048,0.9469748989089801,0.22772564278629748
1539731784008708,-0.16058594644083302,0.9481956206607158,0.2246738384069582
1539731784024708,-0.1602197299153123,0.9479514763103687,0.22528419928282606
1539731784040710,-0.16168459601739515,0.9480735484855423,0.22540627145799963
1539731784056710,-0.16046387426565945,0.9472190432593273,0.22418554970626392
1539731784072711,-0.16046387426565945,0.945876249332418,0.22369726100556964
1539731784088711,-0.16156252384222158,0.9488059815365837,0.22650492103456177
1539731784104711,-0.16180666819256873,0.9491721980621044,0.22540627145799963
1539731784120711,-0.16351567864499872,0.9508812085145344,0.2280918593118182
1539731784136712,-0.16351567864499872,0.9500267032883194,0.22711528191042962
1539731784152712,-0.16375982299534586,0.9485618371862365,0.23114366369115746
1539731784168712,-0.16498054474708157,0.9486839093614101,0.2284580758373389
1539731784184713,-0.166567483024338,0.9477073319600215,0.23407339589532317
1539731784200713,-0.16705577172503228,0.9462424658579387,0.22687113756008248
1539731784216713,-0.16803234912642084,0.9464866102082858,0.22735942626077676
1539731784232713,-0.166567483024338,0.9483176928358894,0.22650492103456177
1539731784248714,-0.1660791943236437,0.9472190432593273,0.22784771496147105
1539731784264714,-0.16498054474708157,0.9483176928358894,0.2251621271076525
1539731784280714,-0.16473640039673443,0.9459983215075916,0.22455176623178463
1539731784296714,-0.16290531776913086,0.9464866102082858,0.22125581750209822
1539731784312715,-0.16046387426565945,0.9468528267338066,0.22479591058213177
1539731784328715,-0.1589990081635766,0.9480735484855423,0.2246738384069582
1539731784344715,-0.15924315251392374,0.9481956206607158,0.2225986114290075
1539731784360717,-0.16009765774013873,0.9497825589379723,0.22198825055313964
1539731784376718,-0.15973144121461802,0.950148775463493,0.2234531166552225
1539731784392718,-0.16034180209048587,0.9495384145876251,0.22113374532692465
1539731784408718,-0.161440451667048,0.9461203936827651,0.22565041580834677
1539731784424718,-0.1619287403677423,0.9456321049820708,0.22601663233386748
1539731784440719,-0.1627832455939573,0.9452658884565501,0.22906843671320676
1539731784456719,-0.161440451667048,0.9456321049820708,0.22650492103456177
1539731784472719,-0.16180666819256873,0.9486839093614101,0.22906843671320676
1539731784488720,-0.16217288471808944,0.949294270237278,0.22821393148699176
1539731784504720,-0.15960936903944445,0.9500267032883194,0.22906843671320676
1539731784520720,-0.15948729686427088,0.9505149919890137,0.22882429236285962
1539731784536720,-0.15973144121461802,0.9496604867627987,0.23041123064011604
1539731784552721,-0.16046387426565945,0.9472190432593273,0.22919050888838033
1539731784568721,-0.16046387426565945,0.9463645380331123,0.22833600366216533
1539731784584721,-0.1610742351415273,0.9444113832303351,0.22662699320973534
1539731784600721,-0.1610742351415273,0.9459983215075916,0.22943465323872747
1539731784616722,-0.163149462119478,0.9469748989089801,0.2255283436331732
1539731784632722,-0.164003967345693,0.946730754558633,0.2246738384069582
1539731784648722,-0.16534676127260228,0.9490501258869308,0.22748149843595034
1539731784664723,-0.16668955519951156,0.9494163424124515,0.22528419928282606
1539731784680725,-0.166567483024338,0.9491721980621044,0.22735942626077676
1539731784696725,-0.16803234912642084,0.9477073319600215,0.22601663233386748
1539731784712725,-0.16717784390020585,0.9472190432593273,0.22650492103456177
1539731784728726,-0.1660791943236437,0.9485618371862365,0.22711528191042962
1539731784744726,-0.16473640039673443,0.9479514763103687,0.22577248798352034
1539731784760726,-0.16559090562294942,0.9462424658579387,0.22369726100556964
1539731784776726,-0.16351567864499872,0.9461203936827651,0.22601663233386748
1539731784792727,-0.16351567864499872,0.9477073319600215,0.2263828488593882
1539731784808727,-0.16253910124361015,0.9502708476386665,0.2234531166552225
1539731784824727,-0.16034180209048587,0.9521019302662701,0.2246738384069582
1539731784840727,-0.161440451667048,0.9513694972152287,0.2251621271076525
1539731784856728,-0.164003967345693,0.9496604867627987,0.22442969405661106
1539731784872728,-0.16253910124361015,0.9503929198138401,0.22491798275730535
1539731784888728,-0.16302738994430443,0.9499046311131458,0.22540627145799963
1539731784904729,-0.163149462119478,0.9507591363393608,0.2238193331807432
1539731784920729,-0.16375982299534586,0.9481956206607158,0.2243076218814375
1539731784936729,-0.16253910124361015,0.9473411154345008,0.22650492103456177
1539731784952729,-0.16034180209048587,0.9473411154345008,0.2246738384069582
1539731784968730,-0.1607080186160066,0.9468528267338066,0.22821393148699176
1539731784984730,-0.15838864728770874,0.9446555275806823,0.23114366369115746
1539731785000732,-0.15973144121461802,0.9423361562523844,0.2305333028152896
1539731785016732,-0.1593652246890973,0.9412375066758223,0.23089951934081032
1539731785032733,-0.15924315251392374,0.9419699397268637,0.23553826199740602
1539731785048733,-0.1602197299153123,0.9444113832303351,0.23541618982223245
1539731785064733,-0.16205081254291587,0.9474631876096744,0.23578240634775316
1539731785080733,-0.16217288471808944,0.950148775463493,0.23370717936980245
1539731785096734,-0.16180666819256873,0.9541771572442208,0.2322423132677196
1539731785112734,-0.16168459601739515,0.9538109407187001,0.2310215915159839
1539731785128734,-0.163149462119478,0.9533226520180058,0.22735942626077676
1539731785144734,-0.16559090562294942,0.9514915693904022,0.22479591058213177
1539731785160735,-0.167421988250553,0.9497825589379723,0.21954680704966822
1539731785176735,-0.1677882047760737,0.9470969710841537,0.2205233844510568
1539731785192735,-0.16498054474708157,0.9434348058289466,0.21734950789654395
1539731785208736,-0.16595712214847014,0.942458228427558,0.21844815747310609
1539731785224736,-0.1636377508201723,0.9409933623254751,0.21612878614480824
1539731785240736,-0.16180666819256873,0.9419699397268637,0.21893644617380037
1539731785256736,-0.16253910124361015,0.9439230945296408,0.22198825055313964
1539731785272737,-0.16290531776913086,0.9461203936827651,0.2263828488593882
1539731785288737,-0.16131837949187444,0.9517357137407494,0.22504005493247892
1539731785304737,-0.16095216296635373,0.9542992294193944,0.22735942626077676
1539731785320770,-0.163149462119478,0.955275806820783,0.22943465323872747
1539731785336770,-0.164003967345693,0.9529564354924851,0.22613870450904106
1539731785352770,-0.162294956893263,0.9508812085145344,0.22198825055313964
1539731785368771,-0.16412603952086657,0.9490501258869308,0.2238193331807432
1539731785384771,-0.16424811169604014,0.947585259784848,0.2234531166552225
1539731785400771,-0.166567483024338,0.9453879606317237,0.22394140535591678
1539731785416772,-0.16705577172503228,0.9445334554055087,0.2238193331807432
1539731785432772,-0.16717784390020585,0.9442893110551616,0.22577248798352034
1539731785448772,-0.1660791943236437,0.9436789501792937,0.22613870450904106
1539731785464772,-0.16534676127260228,0.9451438162813766,0.22357518883039607
1539731785480773,-0.1636377508201723,0.9439230945296408,0.22748149843595034
1539731785496773,-0.1619287403677423,0.9473411154345008,0.22748149843595034
1539731785512773,-0.1610742351415273,0.9488059815365837,0.22821393148699176
1539731785528773,-0.16009765774013873,0.9491721980621044,0.2305333028152896
1539731785544774,-0.1581445029373616,0.9500267032883194,0.2293125810635539
1539731785560774,-0.15777828641184088,0.9523460746166172,0.23077744716563675
1539731785576774,-0.15741206988632017,0.9525902189669644,0.2301670862897689
1539731785592774,-0.15826657511253517,0.9534447241931794,0.2301670862897689
1539731785608775,-0.15863279163805588,0.9530785076676587,0.22980086976424818
1539731785624775,-0.1593652246890973,0.9524681467917908,0.23028915846494247
1539731785640777,-0.16168459601739515,0.9473411154345008,0.2263828488593882
1539731785656777,-0.161440451667048,0.9422140840772109,0.22565041580834677
1539731785672778,-0.1636377508201723,0.9396505683985659,0.22479591058213177
1539731785688778,-0.16583504997329657,0.9402609292744337,0.22565041580834677
1539731785704778,-0.165712977798123,0.9429465171282523,0.22406347753109035
1539731785720779,-0.1669336995498587,0.9478294041351951,0.2243076218814375
1539731785736779,-0.1677882047760737,0.9505149919890137,0.22442969405661106
1539731785752779,-0.165712977798123,0.9521019302662701,0.22784771496147105
1539731785768779,-0.164003967345693,0.9506370641641873,0.22418554970626392
1539731785784780,-0.1660791943236437,0.9502708476386665,0.22247653925383393
1539731785800780,-0.1652246890974287,0.9508812085145344,0.2225986114290075
1539731785816780,-0.16180666819256873,0.948439765011063,0.22027924010070965
1539731785832780,-0.1610742351415273,0.9464866102082858,0.22015716792553608
1539731785848781,-0.16217288471808944,0.9462424658579387,0.22064545662623036
1539731785864781,-0.16351567864499872,0.9446555275806823,0.2205233844510568
1539731785880781,-0.16302738994430443,0.9442893110551616,0.2200350957503625
1539731785896782,-0.16461432822156086,0.9474631876096744,0.2196688792248418
1539731785912782,-0.1652246890974287,0.9486839093614101,0.22113374532692465
1539731785928782,-0.165712977798123,0.9481956206607158,0.2213778896772718
1539731785944782,-0.16510261692225514,0.9489280537117573,0.22198825055313964
1539731785960754,-0.162294956893263,0.9507591363393608,0.22406347753109035
1539731785976754,-0.16327153429465158,0.9525902189669644,0.2276035706111239
1539731785992755,-0.1607080186160066,0.9512474250400551,0.2301670862897689
1539731786008755,-0.16058594644083302,0.9505149919890137,0.22784771496147105
1539731786024755,-0.15960936903944445,0.9489280537117573,0.23028915846494247
1539731786040755,-0.161440451667048,0.9462424658579387,0.23077744716563675
1539731786056756,-0.16168459601739515,0.9444113832303351,0.23041123064011604
1539731786072756,-0.1627832455939573,0.9448996719310294,0.22601663233386748
1539731786088756,-0.1636377508201723,0.9444113832303351,0.22882429236285962
1539731786104756,-0.16498054474708157,0.9448996719310294,0.23028915846494247
1539731786120757,-0.16595712214847014,0.9491721980621044,0.2301670862897689
1539731786136757,-0.16498054474708157,0.9500267032883194,0.2284580758373389
1539731786152757,-0.16510261692225514,0.950148775463493,0.2313878080415046
1539731786168758,-0.1627832455939573,0.9516136415655758,0.22943465323872747
1539731786184758,-0.16168459601739515,0.9507591363393608,0.22943465323872747
1539731786200758,-0.16241702906843658,0.951003280689708,0.22858014801251247
1539731786216758,-0.16095216296635373,0.949294270237278,0.2267490653849089
1539731786232759,-0.1598535133897916,0.9506370641641873,0.22528419928282606
1539731786248759,-0.16046387426565945,0.9488059815365837,0.2263828488593882
1539731786264759,-0.16241702906843658,0.946730754558633,0.2217441062027925
1539731786280761,-0.16131837949187444,0.9480735484855423,0.22247653925383393
1539731786296762,-0.16302738994430443,0.9478294041351951,0.22211032272831321
1539731786312762,-0.16253910124361015,0.9457541771572444,0.21905851834897394
1539731786328762,-0.16266117341878372,0.945876249332418,0.22247653925383393
1539731786344762,-0.16327153429465158,0.9435568780041201,0.22247653925383393
1539731786360763,-0.16412603952086657,0.9444113832303351,0.22284275577935464
1539731786376763,-0.16241702906843658,0.9468528267338066,0.22211032272831321
1539731786392763,-0.1619287403677423,0.9483176928358894,0.22320897230487535
1539731786408764,-0.16266117341878372,0.9505149919890137,0.22601663233386748
1539731786424764,-0.16266117341878372,0.9500267032883194,0.22650492103456177
1539731786440764,-0.16290531776913086,0.949294270237278,0.22662699320973534
1539731786456764,-0.16156252384222158,0.9491721980621044,0.22565041580834677
1539731786472765,-0.16180666819256873,0.947585259784848,0.2255283436331732
1539731786488765,-0.16461432822156086,0.9481956206607158,0.22870222018768604
1539731786504765,-0.16473640039673443,0.9480735484855423,0.22565041580834677
1539731786520765,-0.165712977798123,0.9461203936827651,0.22406347753109035
1539731786536766,-0.166567483024338,0.9451438162813766,0.22479591058213177
1539731786552766,-0.16559090562294942,0.945021744106203,0.2255283436331732
1539731786568766,-0.16424811169604014,0.945876249332418,0.22662699320973534
1539731786584766,-0.16266117341878372,0.9490501258869308,0.2272373540856032
1539731786600769,-0.16510261692225514,0.9513694972152287,0.23028915846494247
1539731786616769,-0.16375982299534586,0.9530785076676587,0.2301670862897689
1539731786632769,-0.16302738994430443,0.9514915693904022,0.22906843671320676
1539731786648769,-0.16424811169604014,0.9499046311131458,0.22919050888838033
1539731786664770,-0.163149462119478,0.947585259784848,0.22711528191042962
1539731786680770,-0.16327153429465158,0.9451438162813766,0.22357518883039607
1539731786696770,-0.163149462119478,0.9447775997558558,0.22699320973525605
1539731786712771,-0.164003967345693,0.945021744106203,0.22491798275730535
1539731786728771,-0.16412603952086657,0.9461203936827651,0.22662699320973534
1539731786744771,-0.16302738994430443,0.9472190432593273,0.22284275577935464
1539731786760771,-0.164003967345693,0.9453879606317237,0.22528419928282606
1539731786776772,-0.16156252384222158,0.9466086823834594,0.22491798275730535
1539731786792772,-0.15863279163805588,0.9466086823834594,0.2272373540856032
1539731786808772,-0.15802243076218803,0.9489280537117573,0.2276035706111239
1539731786824772,-0.15667963683527875,0.9485618371862365,0.2258945601586939
1539731786840773,-0.15594720378423732,0.9505149919890137,0.2255283436331732
1539731786856773,-0.15875486381322945,0.951857785915923,0.22369726100556964
1539731786872773,-0.1593652246890973,0.9506370641641873,0.2255283436331732
1539731786888774,-0.1607080186160066,0.9485618371862365,0.22442969405661106
1539731786904774,-0.164858472571908,0.9468528267338066,0.22320897230487535
1539731786920776,-0.164858472571908,0.9457541771572444,0.22333104448004892
1539731786936776,-0.16839856565194156,0.9445334554055087,0.22198825055313964
1539731786952777,-0.16925307087815655,0.9448996719310294,0.22308690012970178
1539731786968777,-0.17181658655680154,0.9444113832303351,0.2246738384069582
1539731786984777,-0.1698634317540244,0.9506370641641873,0.22479591058213177
1539731787000777,-0.1703517204547187,0.9529564354924851,0.22748149843595034
1539731787016778,-0.17145037003128083,0.952712291142138,0.22748149843595034
1539731787032778,-0.17230487525749583,0.9486839093614101,0.2310215915159839
1539731787048778,-0.17108415350576012,0.9464866102082858,0.23114366369115746
1539731787064778,-0.16632333867399085,0.9455100328068973,0.22796978713664462
1539731787080779,-0.16302738994430443,0.9457541771572444,0.22711528191042962
1539731787096779,-0.16119630731670087,0.9457541771572444,0.2243076218814375
1539731787112779,-0.16009765774013873,0.944167238879988,0.22626077668421463
1539731787128780,-0.16058594644083302,0.9457541771572444,0.2238193331807432
1539731787144780,-0.16083009079118016,0.949294270237278,0.22284275577935464
1539731787160780,-0.16009765774013873,0.9488059815365837,0.22320897230487535
1539731787176780,-0.15924315251392374,0.947585259784848,0.22308690012970178
1539731787192781,-0.1576562142366673,0.9478294041351951,0.2255283436331732
1539731787208781,-0.15448233768215447,0.949294270237278,0.2246738384069582
1539731787224781,-0.15484855420767518,0.9468528267338066,0.22406347753109035
1539731787240814,-0.1555809872587166,0.9459983215075916,0.22455176623178463
1539731787256814,-0.15741206988632017,0.9453879606317237,0.22394140535591678
1539731787272814,-0.1589990081635766,0.947585259784848,0.22369726100556964
1539731787288815,-0.16119630731670087,0.9495384145876251,0.2229648279545282
1539731787304815,-0.16266117341878372,0.9502708476386665,0.22479591058213177
1539731787320815,-0.16302738994430443,0.9506370641641873,0.22687113756008248
1539731787336815,-0.16437018387121372,0.949294270237278,0.22479591058213177
1539731787352816,-0.16375982299534586,0.9490501258869308,0.22662699320973534
1539731787368816,-0.16473640039673443,0.9469748989089801,0.22333104448004892
1539731787384816,-0.16888685435263584,0.9438010223544673,0.2258945601586939
1539731787400817,-0.1690089265278094,0.942458228427558,0.22479591058213177
1539731787416817,-0.1690089265278094,0.9463645380331123,0.22455176623178463
1539731787432817,-0.17059586480506583,0.9478294041351951,0.22333104448004892
1539731787448817,-0.1703517204547187,0.9496604867627987,0.2246738384069582
1539731787464818,-0.17169451438162797,0.9490501258869308,0.22308690012970178
1539731787480818,-0.17010757610437155,0.9494163424124515,0.22308690012970178
1539731787496818,-0.1703517204547187,0.951003280689708,0.22418554970626392
1539731787512818,-0.16839856565194156,0.9495384145876251,0.22491798275730535
1539731787528819,-0.166567483024338,0.9489280537117573,0.22406347753109035
1539731787544819,-0.16339360646982515,0.9474631876096744,0.22357518883039607
1539731787560821,-0.1636377508201723,0.9495384145876251,0.22577248798352034
1539731787576821,-0.1610742351415273,0.950148775463493,0.22479591058213177
1539731787592822,-0.15863279163805588,0.9499046311131458,0.2251621271076525
1539731787608822,-0.1581445029373616,0.9466086823834594,0.2251621271076525
1539731787624822,-0.1589990081635766,0.9438010223544673,0.2246738384069582
1539731787640823,-0.15912108033875016,0.944167238879988,0.22320897230487535
1539731787656823,-0.15680170901045232,0.945021744106203,0.2243076218814375
1539731787672823,-0.15631342030975803,0.9468528267338066,0.2267490653849089
1539731787688823,-0.15619134813458446,0.949294270237278,0.2272373540856032
1539731787704824,-0.15497062638284875,0.9512474250400551,0.22784771496147105
1539731787720824,-0.15533684290836947,0.9542992294193944,0.22662699320973534
1539731787736824,-0.15875486381322945,0.9524681467917908,0.2258945601586939
1539731787752824,-0.161440451667048,0.9503929198138401,0.22577248798352034
1539731787768825,-0.16510261692225514,0.9477073319600215,0.22491798275730535
1539731787784825,-0.16546883344777585,0.9448996719310294,0.2238193331807432
1539731787800825,-0.16668955519951156,0.9452658884565501,0.2217441062027925
1539731787816825,-0.16729991607537942,0.9489280537117573,0.22198825055313964
1539731787832826,-0.16961928740367727,0.9514915693904022,0.2200350957503625
1539731787848826,-0.17010757610437155,0.9485618371862365,0.21820401312275894
1539731787864826,-0.17376974135957868,0.9453879606317237,0.21832608529793252
1539731787880798,-0.17145037003128083,0.9434348058289466,0.22125581750209822
1539731787896798,-0.16974135957885084,0.9442893110551616,0.22308690012970178
1539731787912799,-0.17010757610437155,0.9472190432593273,0.22662699320973534
1539731787928799,-0.16803234912642084,0.9512474250400551,0.22784771496147105
1539731787944799,-0.167421988250553,0.951857785915923,0.22565041580834677
1539731787960799,-0.16839856565194156,0.9490501258869308,0.22943465323872747
1539731787976800,-0.17022964827954512,0.9463645380331123,0.2246738384069582
1539731787992800,-0.16717784390020585,0.9481956206607158,0.22235446707866036
1539731788008800,-0.16632333867399085,0.9486839093614101,0.2208896009765775
1539731788024800,-0.166567483024338,0.9502708476386665,0.22198825055313964
1539731788040801,-0.16412603952086657,0.9494163424124515,0.22027924010070965
1539731788056801,-0.16083009079118016,0.948439765011063,0.21905851834897394
1539731788072801,-0.16034180209048587,0.9485618371862365,0.22223239490348679
1539731788088801,-0.15570305943389018,0.948439765011063,0.22284275577935464
1539731788104802,-0.15362783245593947,0.9466086823834594,0.22308690012970178
1539731788120802,-0.15167467765316234,0.9463645380331123,0.22577248798352034
1539731788136802,-0.14984359502555877,0.9481956206607158,0.2289463645380332
1539731788152803,-0.1509422446021209,0.9494163424124515,0.2296787975890746
1539731788168803,-0.1517967498283359,0.9490501258869308,0.23028915846494247
1539731788184803,-0.15619134813458446,0.9466086823834594,0.22870222018768604
1539731788200805,-0.16046387426565945,0.9457541771572444,0.23163195239185175
1539731788216806,-0.16620126649881728,0.9483176928358894,0.2293125810635539
1539731788232806,-0.16803234912642084,0.9508812085145344,0.23126573586633103
1539731788248806,-0.16888685435263584,0.9529564354924851,0.22870222018768604
1539731788264806,-0.16888685435263584,0.9507591363393608,0.22784771496147105
1539731788280807,-0.16925307087815655,0.9494163424124515,0.22528419928282606
1539731788296807,-0.16766613260090013,0.9468528267338066,0.22735942626077676
1539731788312807,-0.16668955519951156,0.9448996719310294,0.2267490653849089
1539731788328807,-0.165712977798123,0.945876249332418,0.2267490653849089
1539731788344808,-0.16595712214847014,0.9463645380331123,0.22565041580834677
1539731788360808,-0.16388189517051943,0.9463645380331123,0.22064545662623036
1539731788376808,-0.16375982299534586,0.948439765011063,0.22247653925383393
1539731788392809,-0.16473640039673443,0.9483176928358894,0.22076752880140393
1539731788408809,-0.16510261692225514,0.9480735484855423,0.21954680704966822
1539731788424809,-0.16437018387121372,0.9500267032883194,0.21954680704966822
1539731788440809,-0.16546883344777585,0.9490501258869308,0.21722743572137038
1539731788456810,-0.16546883344777585,0.949294270237278,0.21930266269932108
1539731788472810,-0.16375982299534586,0.9502708476386665,0.21991302357518894
1539731788488810,-0.16498054474708157,0.9488059815365837,0.22015716792553608
1539731788504810,-0.164003967345693,0.9481956206607158,0.22027924010070965
1539731788520813,-0.16156252384222158,0.9491721980621044,0.21771572442206466
1539731788536813,-0.1619287403677423,0.9479514763103687,0.22113374532692465
1539731788552813,-0.16168459601739515,0.9479514763103687,0.2255283436331732
1539731788568813,-0.161440451667048,0.9485618371862365,0.2246738384069582
1539731788584814,-0.1607080186160066,0.9491721980621044,0.2255283436331732
1539731788600814,-0.15997558556496516,0.946730754558633,0.22662699320973534
1539731788616814,-0.16046387426565945,0.9459983215075916,0.22796978713664462
1539731788632815,-0.16009765774013873,0.9469748989089801,0.22955672541390104
1539731788648815,-0.15960936903944445,0.9478294041351951,0.22772564278629748
1539731788664815,-0.16034180209048587,0.9485618371862365,0.22858014801251247
1539731788680815,-0.16058594644083302,0.9496604867627987,0.22906843671320676
1539731788696816,-0.1607080186160066,0.9499046311131458,0.23150988021667818
1539731788712816,-0.16168459601739515,0.9485618371862365,0.2305333028152896
1539731788728816,-0.16339360646982515,0.9466086823834594,0.23150988021667818
1539731788744816,-0.16437018387121372,0.9444113832303351,0.23126573586633103
1539731788760817,-0.16510261692225514,0.945021744106203,0.22906843671320676
1539731788776817,-0.16510261692225514,0.9469748989089801,0.2280918593118182
1539731788792817,-0.16473640039673443,0.9485618371862365,0.22858014801251247
1539731788808817,-0.16388189517051943,0.9477073319600215,0.22565041580834677
1539731788824818,-0.16290531776913086,0.9477073319600215,0.2258945601586939
1539731788840850,-0.16424811169604014,0.947585259784848,0.22601663233386748
1539731788856851,-0.16351567864499872,0.947585259784848,0.22418554970626392
1539731788872851,-0.16156252384222158,0.949294270237278,0.2229648279545282
1539731788888851,-0.162294956893263,0.9488059815365837,0.22149996185244536
1539731788904852,-0.16156252384222158,0.9496604867627987,0.2217441062027925
1539731788920852,-0.16119630731670087,0.9474631876096744,0.22198825055313964
1539731788936852,-0.1610742351415273,0.9480735484855423,0.21905851834897394
1539731788952852,-0.16058594644083302,0.9461203936827651,0.22162203402761893
1539731788968853,-0.16217288471808944,0.9479514763103687,0.2205233844510568
1539731788984853,-0.16388189517051943,0.9473411154345008,0.22369726100556964
1539731789000853,-0.16412603952086657,0.9478294041351951,0.22149996185244536
1539731789016853,-0.16351567864499872,0.9474631876096744,0.22308690012970178
1539731789032854,-0.16461432822156086,0.9480735484855423,0.22577248798352034
1539731789048854,-0.16632333867399085,0.9472190432593273,0.22528419928282606
1539731789064854,-0.16583504997329657,0.9481956206607158,0.22394140535591678
1539731789080855,-0.16498054474708157,0.9486839093614101,0.2238193331807432
1539731789096855,-0.16559090562294942,0.9500267032883194,0.22699320973525605
1539731789112855,-0.16461432822156086,0.9502708476386665,0.22821393148699176
1539731789128855,-0.16461432822156086,0.9489280537117573,0.22748149843595034
1539731789144856,-0.1644922560463873,0.948439765011063,0.22528419928282606
1539731789160858,-0.164003967345693,0.9474631876096744,0.22735942626077676
1539731789176858,-0.1636377508201723,0.9473411154345008,0.22919050888838033
1539731789192858,-0.1619287403677423,0.9480735484855423,0.22662699320973534
1539731789208859,-0.16009765774013873,0.9512474250400551,0.22955672541390104
1539731789224859,-0.16119630731670087,0.9505149919890137,0.22821393148699176
1539731789240859,-0.16168459601739515,0.9497825589379723,0.2293125810635539
1539731789256859,-0.16009765774013873,0.9479514763103687,0.22882429236285962
1539731789272860,-0.16034180209048587,0.945876249332418,0.22528419928282606
1539731789288860,-0.16009765774013873,0.9451438162813766,0.22601663233386748
1539731789304860,-0.1593652246890973,0.9446555275806823,0.22711528191042962
1539731789320860,-0.1598535133897916,0.9459983215075916,0.22528419928282606
1539731789336861,-0.1607080186160066,0.9455100328068973,0.22357518883039607
1539731789352861,-0.15997558556496516,0.9440451667048144,0.22211032272831321
1539731789368861,-0.1610742351415273,0.9429465171282523,0.2196688792248418
1539731789384862,-0.16241702906843658,0.9420920119020373,0.22125581750209822
1539731789400862,-0.16461432822156086,0.9438010223544673,0.2234531166552225
1539731789416862,-0.1644922560463873,0.9511253528648815,0.22186617837796607
1539731789432862,-0.16681162737468513,0.9553978789959565,0.21991302357518894
1539731789448863,-0.16815442130159441,0.9566186007476922,0.21991302357518894
1539731789464863,-0.16852063782711513,0.9521019302662701,0.22162203402761893
1539731789480865,-0.16803234912642084,0.9507591363393608,0.22186617837796607
1539731789496865,-0.16632333867399085,0.9513694972152287,0.22113374532692465
1539731789512866,-0.16388189517051943,0.9523460746166172,0.22320897230487535
1539731789528866,-0.16473640039673443,0.9525902189669644,0.22357518883039607
1539731789544866,-0.16388189517051943,0.9507591363393608,0.22601663233386748
1539731789560866,-0.16473640039673443,0.9497825589379723,0.22870222018768604
1539731789576867,-0.16083009079118016,0.949294270237278,0.22772564278629748
1539731789592867,-0.1564354924849316,0.9486839093614101,0.22919050888838033
1539731789608867,-0.1543602655069809,0.9478294041351951,0.23004501411459533
1539731789624868,-0.15216296635385662,0.9464866102082858,0.23077744716563675
1539731789640868,-0.1531395437552452,0.9444113832303351,0.23370717936980245
1539731789656868,-0.15448233768215447,0.943312733653773,0.23163195239185175
1539731789672868,-0.15680170901045232,0.9440451667048144,0.23114366369115746
1539731789688869,-0.1593652246890973,0.9447775997558558,0.22796978713664462
1539731789704869,-0.1619287403677423,0.9438010223544673,0.22870222018768604
1539731789720869,-0.16534676127260228,0.9427023727779051,0.22613870450904106
1539731789736869,-0.16583504997329657,0.9452658884565501,0.2234531166552225
1539731789752870,-0.16632333867399085,0.9486839093614101,0.22247653925383393
1539731789768870,-0.16815442130159441,0.9516136415655758,0.22406347753109035
1539731789784870,-0.17218280308232226,0.9514915693904022,0.22479591058213177
1539731789800872,-0.1732814526588844,0.950148775463493,0.22613870450904106
1539731789816873,-0.17438010223544653,0.9507591363393608,0.2213778896772718
1539731789832873,-0.17291523613336368,0.9494163424124515,0.22320897230487535
1539731789848873,-0.17132829785610726,0.9516136415655758,0.22015716792553608
1539731789864874,-0.16937514305333012,0.9519798580910965,0.22101167315175108
1539731789880874,-0.16534676127260228,0.9539330128938737,0.2200350957503625
1539731789896874,-0.1627832455939573,0.9508812085145344,0.22064545662623036
1539731789912874,-0.16034180209048587,0.9486839093614101,0.21893644617380037
1539731789928875,-0.15802243076218803,0.9473411154345008,0.21783779659723823
1539731789944875,-0.15582513160906375,0.9439230945296408,0.21905851834897394
1539731789960875,-0.1572899977111466,0.9420920119020373,0.21954680704966822
1539731789976875,-0.1547264820325016,0.9417257953765166,0.21991302357518894
1539731789992876,-0.1535057602807659,0.940749217975128,0.22320897230487535
1539731790008876,-0.1552147707331959,0.9422140840772109,0.22308690012970178
1539731790024876,-0.15594720378423732,0.9452658884565501,0.22406347753109035
1539731790040876,-0.15790035858701446,0.9466086823834594,0.2267490653849089
1539731790056877,-0.16180666819256873,0.9488059815365837,0.2284580758373389
1539731790072877,-0.16583504997329657,0.9524681467917908,0.22796978713664462
1539731790088877,-0.16803234912642084,0.9522240024414437,0.23028915846494247
1539731790104878,-0.17084000915541298,0.9547875181200887,0.23028915846494247
1539731790120849,-0.16937514305333012,0.9522240024414437,0.2301670862897689
1539731790136850,-0.17059586480506583,0.9505149919890137,0.23028915846494247
1539731790152850,-0.16803234912642084,0.9466086823834594,0.22858014801251247
1539731790168850,-0.16815442130159441,0.9462424658579387,0.2276035706111239
1539731790184850,-0.16766613260090013,0.9470969710841537,0.22784771496147105
1539731790200851,-0.16681162737468513,0.946730754558633,0.2280918593118182
1539731790216851,-0.1669336995498587,0.9478294041351951,0.2258945601586939
1539731790232851,-0.16424811169604014,0.946730754558633,0.22540627145799963
1539731790248851,-0.16058594644083302,0.9468528267338066,0.22577248798352034
1539731790264852,-0.15973144121461802,0.9477073319600215,0.22479591058213177
1539731790280852,-0.15973144121461802,0.9478294041351951,0.22577248798352034
1539731790296852,-0.15924315251392374,0.9463645380331123,0.22699320973525605
1539731790312852,-0.15826657511253517,0.9472190432593273,0.22455176623178463
1539731790328853,-0.15887693598840302,0.9485618371862365,0.22333104448004892
1539731790344853,-0.16009765774013873,0.9491721980621044,0.22272068360418107
1539731790360853,-0.16034180209048587,0.9502708476386665,0.22272068360418107
1539731790376854,-0.15973144121461802,0.951003280689708,0.22040131227588322
1539731790392854,-0.15997558556496516,0.949294270237278,0.21954680704966822
1539731790408854,-0.15997558556496516,0.9507591363393608,0.22040131227588322
1539731790424854,-0.16156252384222158,0.9512474250400551,0.21979095140001537
1539731790440857,-0.1602197299153123,0.9483176928358894,0.22211032272831321
1539731790456857,-0.1610742351415273,0.9466086823834594,0.22113374532692465
1539731790472857,-0.16290531776913086,0.9445334554055087,0.22272068360418107
1539731790488857,-0.16241702906843658,0.9457541771572444,0.22211032272831321
1539731790504858,-0.1636377508201723,0.9455100328068973,0.22601663233386748
1539731790520858,-0.16852063782711513,0.9480735484855423,0.22650492103456177
1539731790536858,-0.16705577172503228,0.9474631876096744,0.22687113756008248
1539731790552858,-0.16717784390020585,0.9494163424124515,0.22699320973525605
1539731790568859,-0.16925307087815655,0.948439765011063,0.22748149843595034
1539731790584859,-0.1690089265278094,0.9489280537117573,0.23126573586633103
1539731790600859,-0.16791027695124727,0.9485618371862365,0.2310215915159839
1539731790616860,-0.16705577172503228,0.9481956206607158,0.23321889066910817
1539731790632860,-0.16583504997329657,0.9477073319600215,0.23273060196841389
1539731790648860,-0.16034180209048587,0.9480735484855423,0.2343175402456703
1539731790664860,-0.16583504997329657,0.9483176928358894,0.23004501411459533
1539731790680861,-0.16180666819256873,0.9496604867627987,0.23089951934081032
1539731790696861,-0.16058594644083302,0.9497825589379723,0.22626077668421463
1539731790712861,-0.16034180209048587,0.9496604867627987,0.2246738384069582
1539731790728861,-0.15912108033875016,0.9468528267338066,0.22442969405661106
1539731790744862,-0.15826657511253517,0.9448996719310294,0.22015716792553608
1539731790760894,-0.15704585336079946,0.9439230945296408,0.21832608529793252
1539731790776895,-0.1569237811856259,0.9459983215075916,0.21637293049515538
1539731790792895,-0.15875486381322945,0.9480735484855423,0.21405355916685753
1539731790808895,-0.15924315251392374,0.9508812085145344,0.21234454871442754
1539731790824895,-0.1581445029373616,0.9517357137407494,0.21600671396963467
1539731790840896,-0.15887693598840302,0.9521019302662701,0.2171053635461968
1539731790856896,-0.15997558556496516,0.9478294041351951,0.21808194094758537
1539731790872896,-0.16205081254291587,0.9483176928358894,0.22076752880140393
1539731790888897,-0.16388189517051943,0.9481956206607158,0.22223239490348679
1539731790904897,-0.16461432822156086,0.9488059815365837,0.22211032272831321
1539731790920897,-0.16412603952086657,0.9495384145876251,0.22540627145799963
1539731790936897,-0.16302738994430443,0.9497825589379723,0.22418554970626392
1539731790952898,-0.16351567864499872,0.9464866102082858,0.22565041580834677
1539731790968898,-0.166567483024338,0.9452658884565501,0.22735942626077676
1539731790984898,-0.16717784390020585,0.9446555275806823,0.22833600366216533
1539731791000898,-0.16766613260090013,0.945021744106203,0.2289463645380332
1539731791016899,-0.16888685435263584,0.9462424658579387,0.2296787975890746
1539731791032899,-0.1703517204547187,0.947585259784848,0.2313878080415046
1539731791048899,-0.16717784390020585,0.9479514763103687,0.2322423132677196
1539731791064900,-0.16913099870298298,0.9485618371862365,0.23150988021667818
1539731791080902,-0.16815442130159441,0.948439765011063,0.2305333028152896
1539731791096902,-0.16754406042572656,0.9491721980621044,0.23077744716563675
1539731791112902,-0.16632333867399085,0.9491721980621044,0.23126573586633103
1539731791128903,-0.16437018387121372,0.9503929198138401,0.22955672541390104
1539731791144903,-0.16424811169604014,0.9524681467917908,0.23028915846494247
1539731791160903,-0.162294956893263,0.9519798580910965,0.22601663233386748
1539731791176903,-0.15875486381322945,0.950148775463493,0.2276035706111239
1539731791192904,-0.15741206988632017,0.9457541771572444,0.22613870450904106
1539731791208904,-0.15484855420767518,0.9438010223544673,0.22247653925383393
1539731791224904,-0.1555809872587166,0.9434348058289466,0.2229648279545282
1539731791240904,-0.15655756466010518,0.9457541771572444,0.22235446707866036
1539731791256905,-0.15704585336079946,0.9462424658579387,0.21930266269932108
1539731791272905,-0.15838864728770874,0.949294270237278,0.22211032272831321
1539731791288905,-0.1581445029373616,0.9519798580910965,0.22320897230487535
1539731791304906,-0.15973144121461802,0.951003280689708,0.22406347753109035
1539731791320906,-0.1610742351415273,0.9496604867627987,0.22186617837796607
1539731791336906,-0.16156252384222158,0.9479514763103687,0.2213778896772718
1539731791352906,-0.16131837949187444,0.947585259784848,0.21942473487449465
1539731791368907,-0.164858472571908,0.9470969710841537,0.22101167315175108
1539731791384907,-0.1430075532158388,0.7455558098725872,0.11956969558251274
1539731791400909,-0.10382238498512253,1.0812542915999082,0.3562676432440677
1539731791416909,-0.13495078965438312,0.9455100328068973,0.24310673685816742
1539731791432910,-0.21808194094758537,0.8893568322270546,0.16778820477607415
1539731791448910,-0.1598535133897916,0.8954604409857332,0.23700312809948887
1539731791464910,-0.1442282749675745,0.9346456092164495,0.24884412909132525
1539731791480910,-0.19256885633630905,0.9706569008926529,0.2133211261158161
1539731791496911,-0.15753414206149374,0.9749294270237279,0.22833600366216533
1539731791512911,-0.16925307087815655,0.97602807660029,0.23504997329671173
1539731791528911,-0.17145037003128083,0.9418478675516901,0.2334630350194553
1539731791544911,-0.14691386282139307,0.9290302891584652,0.24164187075608456
1539731791560912,-0.16729991607537942,0.9380636301213094,0.22333104448004892
1539731791576912,-0.16302738994430443,0.9489280537117573,0.21527428091859324
1539731791592912,-0.13568322270542454,0.9533226520180058,0.2243076218814375
1539731791608913,-0.15387197680628661,0.9466086823834594,0.2276035706111239
1539731791624913,-0.17218280308232226,0.9466086823834594,0.22540627145799963
1539731791640913,-0.1569237811856259,0.9569848172732129,0.2200350957503625
1539731791656913,-0.14898908979934378,0.9579613946746015,0.21600671396963467
1539731791672914,-0.1552147707331959,0.944167238879988,0.2234531166552225
1539731791688914,-0.16058594644083302,0.9365987640192266,0.23004501411459533
1539731791704914,-0.1589990081635766,0.9418478675516901,0.2246738384069582
1539731791720916,-0.1547264820325016,0.9547875181200887,0.22149996185244536
1539731791736917,-0.15338368810559233,0.9586938277256429,0.22308690012970178
1539731791752917,-0.16095216296635373,0.9506370641641873,0.2276035706111239
1539731791768917,-0.1690089265278094,0.9429465171282523,0.2289463645380332
1539731791784917,-0.17291523613336368,0.9438010223544673,0.22149996185244536
1539731791800918,-0.17108415350576012,0.9459983215075916,0.2213778896772718
1539731791816918,-0.1712062256809337,0.9470969710841537,0.22540627145799963
1539731791832918,-0.17303730830853725,0.9474631876096744,0.22613870450904106
1539731791848919,-0.1732814526588844,0.9472190432593273,0.2263828488593882
1539731791864919,-0.1690089265278094,0.9499046311131458,0.2267490653849089
1539731791880919,-0.16498054474708157,0.951003280689708,0.2276035706111239
1539731791896919,-0.1644922560463873,0.9479514763103687,0.2318760967421989
1539731791912920,-0.16791027695124727,0.9468528267338066,0.22784771496147105
1539731791928920,-0.15960936903944445,0.9478294041351951,0.23248645761806674
1539731791944920,-0.16241702906843658,0.9495384145876251,0.22882429236285962
1539731791960920,-0.1644922560463873,0.9503929198138401,0.22821393148699176
1539731791976921,-0.1602197299153123,0.9466086823834594,0.2280918593118182
1539731791992921,-0.15948729686427088,0.9480735484855423,0.2263828488593882
1539731792008921,-0.16241702906843658,0.9459983215075916,0.22540627145799963
1539731792024922,-0.1607080186160066,0.9452658884565501,0.2267490653849089
1539731792040893,-0.15826657511253517,0.9478294041351951,0.22858014801251247
1539731792056893,-0.15863279163805588,0.9508812085145344,0.22418554970626392
1539731792072894,-0.15399404898146019,0.9533226520180058,0.2234531166552225
1539731792088894,-0.15582513160906375,0.9508812085145344,0.22528419928282606
1539731792104894,-0.15680170901045232,0.9456321049820708,0.2280918593118182
1539731792120895,-0.15802243076218803,0.9431906614785994,0.22650492103456177
1539731792136895,-0.1589990081635766,0.9451438162813766,0.22711528191042962
1539731792152895,-0.1619287403677423,0.9455100328068973,0.22565041580834677
1539731792168895,-0.16559090562294942,0.9469748989089801,0.22748149843595034
1539731792184896,-0.166567483024338,0.9512474250400551,0.2289463645380332
1539731792200896,-0.165712977798123,0.9508812085145344,0.22540627145799963
1539731792216896,-0.16424811169604014,0.9494163424124515,0.22320897230487535
1539731792232896,-0.16339360646982515,0.948439765011063,0.22626077668421463
1539731792248897,-0.161440451667048,0.9463645380331123,0.22394140535591678
1539731792264897,-0.162294956893263,0.9462424658579387,0.22406347753109035
1539731792280897,-0.16266117341878372,0.946730754558633,0.2246738384069582
1539731792296898,-0.163149462119478,0.9490501258869308,0.22601663233386748
1539731792312898,-0.16375982299534586,0.9500267032883194,0.22735942626077676
1539731792328898,-0.16375982299534586,0.9500267032883194,0.22650492103456177
1539731792344898,-0.1644922560463873,0.948439765011063,0.22577248798352034
1539731792360931,-0.16241702906843658,0.946730754558633,0.22528419928282606
1539731792376931,-0.16510261692225514,0.946730754558633,0.2243076218814375
1539731792392932,-0.1652246890974287,0.9489280537117573,0.22540627145799963
1539731792408932,-0.16388189517051943,0.9502708476386665,0.22528419928282606
1539731792424932,-0.1652246890974287,0.951003280689708,0.22577248798352034
1539731792440932,-0.16375982299534586,0.9480735484855423,0.22943465323872747
1539731792456933,-0.16510261692225514,0.945021744106203,0.22662699320973534
1539731792472933,-0.16583504997329657,0.9448996719310294,0.22650492103456177
1539731792488933,-0.15912108033875016,0.9473411154345008,0.2293125810635539
1539731792504933,-0.16156252384222158,0.9508812085145344,0.22735942626077676
1539731792520934,-0.16375982299534586,0.9499046311131458,0.22626077668421463
1539731792536934,-0.16009765774013873,0.9481956206607158,0.22699320973525605
1539731792552934,-0.1636377508201723,0.9468528267338066,0.22662699320973534
1539731792568935,-0.162294956893263,0.9466086823834594,0.22735942626077676
1539731792584935,-0.16253910124361015,0.9469748989089801,0.22784771496147105
1539731792600935,-0.162294956893263,0.9490501258869308,0.22491798275730535
1539731792616935,-0.16327153429465158,0.950148775463493,0.2229648279545282
1539731792632936,-0.16034180209048587,0.9502708476386665,0.22247653925383393
1539731792648936,-0.16290531776913086,0.9489280537117573,0.22418554970626392
1539731792664936,-0.1669336995498587,0.9466086823834594,0.22320897230487535
1539731792680938,-0.164858472571908,0.9497825589379723,0.22333104448004892
1539731792696939,-0.16534676127260228,0.948439765011063,0.22125581750209822
1539731792712939,-0.16668955519951156,0.947585259784848,0.22101167315175108
1539731792728939,-0.16595712214847014,0.9481956206607158,0.21991302357518894
1539731792744939,-0.16595712214847014,0.950148775463493,0.21930266269932108
1539731792760940,-0.164003967345693,0.950148775463493,0.22247653925383393
1539731792776940,-0.16339360646982515,0.9486839093614101,0.22320897230487535
1539731792792940,-0.16351567864499872,0.9468528267338066,0.22455176623178463
1539731792808941,-0.16217288471808944,0.9469748989089801,0.22955672541390104
1539731792824941,-0.16046387426565945,0.9470969710841537,0.22919050888838033
1539731792840941,-0.161440451667048,0.9485618371862365,0.2310215915159839
1539731792856941,-0.161440451667048,0.9466086823834594,0.22943465323872747
1539731792872942,-0.15960936903944445,0.9473411154345008,0.23004501411459533
1539731792888942,-0.15875486381322945,0.9474631876096744,0.22870222018768604
1539731792904942,-0.1576562142366673,0.946730754558633,0.2293125810635539
1539731792920942,-0.15997558556496516,0.9494163424124515,0.22687113756008248
1539731792936943,-0.16058594644083302,0.9490501258869308,0.2267490653849089
1539731792952943,-0.16058594644083302,0.9466086823834594,0.22491798275730535
1539731792968943,-0.16290531776913086,0.945876249332418,0.22406347753109035
1539731792984943,-0.16205081254291587,0.9439230945296408,0.22504005493247892
1539731793000946,-0.1593652246890973,0.9470969710841537,0.22272068360418107
1539731793016946,-0.16083009079118016,0.9500267032883194,0.22357518883039607
1539731793032946,-0.163149462119478,0.9502708476386665,0.22320897230487535
1539731793048946,-0.16375982299534586,0.949294270237278,0.22247653925383393
1539731793064947,-0.1652246890974287,0.9500267032883194,0.22442969405661106
1539731793080947,-0.17059586480506583,0.9500267032883194,0.22186617837796607
1539731793096947,-0.1669336995498587,0.9466086823834594,0.22284275577935464
1539731793112948,-0.16546883344777585,0.9419699397268637,0.22308690012970178
1539731793128948,-0.1694972152285037,0.9414816510261694,0.2188143739986268
1539731793144948,-0.16754406042572656,0.9447775997558558,0.22101167315175108
1539731793160948,-0.16095216296635373,0.9489280537117573,0.2213778896772718
1539731793176949,-0.16168459601739515,0.9545433737697415,0.22320897230487535
1539731793192949,-0.16266117341878372,0.9541771572442208,0.2229648279545282
1539731793208949,-0.16119630731670087,0.9521019302662701,0.2276035706111239
1539731793224949,-0.1610742351415273,0.951003280689708,0.22882429236285962
1539731793240950,-0.161440451667048,0.9478294041351951,0.2267490653849089
1539731793256950,-0.16339360646982515,0.9474631876096744,0.2305333028152896
1539731793272950,-0.16375982299534586,0.9461203936827651,0.22882429236285962
1539731793288951,-0.16437018387121372,0.9464866102082858,0.23126573586633103
1539731793304951,-0.15997558556496516,0.9496604867627987,0.22687113756008248
1539731793320953,-0.1593652246890973,0.9511253528648815,0.2301670862897689
1539731793336953,-0.15924315251392374,0.9489280537117573,0.22735942626077676
1539731793352954,-0.1607080186160066,0.9457541771572444,0.23175402456702532
1539731793368954,-0.16266117341878372,0.9462424658579387,0.23065537499046318
1539731793384954,-0.16351567864499872,0.9483176928358894,0.22784771496147105
1539731793400954,-0.16266117341878372,0.9522240024414437,0.22662699320973534
1539731793416955,-0.16266117341878372,0.9494163424124515,0.22662699320973534
1539731793432955,-0.16266117341878372,0.9461203936827651,0.2276035706111239
1539731793448955,-0.16156252384222158,0.9452658884565501,0.22735942626077676
1539731793464955,-0.16205081254291587,0.9466086823834594,0.2255283436331732
1539731793480956,-0.16510261692225514,0.9470969710841537,0.2243076218814375
1539731793496956,-0.1627832455939573,0.9480735484855423,0.22333104448004892
1539731793512956,-0.1669336995498587,0.948439765011063,0.2234531166552225
1539731793528957,-0.16510261692225514,0.9494163424124515,0.2200350957503625
1539731793544957,-0.16339360646982515,0.9489280537117573,0.21637293049515538
1539731793560957,-0.16290531776913086,0.9499046311131458,0.2171053635461968
1539731793576957,-0.16205081254291587,0.9481956206607158,0.22186617837796607
1539731793592958,-0.16375982299534586,0.9468528267338066,0.2205233844510568
1539731793608958,-0.16339360646982515,0.946730754558633,0.22149996185244536
1539731793624958,-0.162294956893263,0.9477073319600215,0.2175936522468911
1539731793640960,-0.1619287403677423,0.9477073319600215,0.22198825055313964
1539731793656961,-0.16058594644083302,0.9477073319600215,0.22308690012970178
1539731793672961,-0.1602197299153123,0.9494163424124515,0.22101167315175108
1539731793688961,-0.16083009079118016,0.9512474250400551,0.2238193331807432
1539731793704961,-0.1619287403677423,0.9494163424124515,0.22308690012970178
1539731793720962,-0.16205081254291587,0.9488059815365837,0.2263828488593882
1539731793736962,-0.16388189517051943,0.9468528267338066,0.22613870450904106
1539731793752962,-0.16583504997329657,0.9472190432593273,0.22662699320973534
1539731793768962,-0.1652246890974287,0.9468528267338066,0.2263828488593882
1539731793784963,-0.1652246890974287,0.948439765011063,0.2280918593118182
1539731793800963,-0.16412603952086657,0.9500267032883194,0.2280918593118182
1539731793816963,-0.16351567864499872,0.9495384145876251,0.2289463645380332
1539731793832964,-0.16351567864499872,0.9470969710841537,0.23163195239185175
1539731793848964,-0.1636377508201723,0.947585259784848,0.2296787975890746
1539731793864964,-0.16437018387121372,0.9481956206607158,0.2301670862897689
1539731793880964,-0.163149462119478,0.9463645380331123,0.22955672541390104
1539731793896965,-0.16205081254291587,0.948439765011063,0.22919050888838033
1539731793912965,-0.1607080186160066,0.9481956206607158,0.22955672541390104
1539731793928965,-0.16156252384222158,0.9473411154345008,0.2258945601586939
1539731793944965,-0.16388189517051943,0.9479514763103687,0.22455176623178463
1539731793960968,-0.16180666819256873,0.9486839093614101,0.2263828488593882
1539731793976968,-0.1627832455939573,0.9472190432593273,0.2229648279545282
1539731793992968,-0.16217288471808944,0.9485618371862365,0.22284275577935464
1539731794008968,-0.16046387426565945,0.9499046311131458,0.22394140535591678
1539731794024969,-0.16009765774013873,0.9496604867627987,0.22247653925383393
1539731794040969,-0.15973144121461802,0.9508812085145344,0.22186617837796607
1539731794056969,-0.15753414206149374,0.9525902189669644,0.22235446707866036
1539731794072970,-0.15863279163805588,0.9505149919890137,0.22101167315175108
1539731794088970,-0.1602197299153123,0.9486839093614101,0.22394140535591678
1539731794104970,-0.16241702906843658,0.9459983215075916,0.22491798275730535
1539731794120970,-0.164003967345693,0.9442893110551616,0.2289463645380332
1539731794136971,-0.16632333867399085,0.9451438162813766,0.22919050888838033
1539731794152971,-0.16668955519951156,0.9483176928358894,0.22613870450904106
1539731794168971,-0.16668955519951156,0.9499046311131458,0.22650492103456177
1539731794184971,-0.167421988250553,0.9470969710841537,0.22662699320973534
1539731794200972,-0.16620126649881728,0.9451438162813766,0.22357518883039607
1539731794216972,-0.16559090562294942,0.9445334554055087,0.2208896009765775
1539731794232972,-0.16437018387121372,0.9461203936827651,0.22162203402761893
1539731794248973,-0.16327153429465158,0.947585259784848,0.22735942626077676
1539731794264973,-0.16205081254291587,0.9478294041351951,0.22540627145799963
1539731794280975,-0.16046387426565945,0.9468528267338066,0.2258945601586939
1539731794296975,-0.15631342030975803,0.9485618371862365,0.2276035706111239
1539731794312976,-0.1552147707331959,0.9506370641641873,0.2255283436331732
1539731794328976,-0.15411612115663376,0.9512474250400551,0.22687113756008248
1539731794344976,-0.15497062638284875,0.9499046311131458,0.2258945601586939
1539731794360976,-0.15838864728770874,0.9474631876096744,0.22540627145799963
1539731794376977,-0.15863279163805588,0.9466086823834594,0.22662699320973534
1539731794392977,-0.16156252384222158,0.9463645380331123,0.22479591058213177
1539731794408977,-0.16180666819256873,0.9461203936827651,0.22442969405661106
1539731794424977,-0.16266117341878372,0.9496604867627987,0.22369726100556964
1539731794440978,-0.163149462119478,0.9514915693904022,0.2234531166552225
1539731794456978,-0.16473640039673443,0.9502708476386665,0.22504005493247892
1539731794472978,-0.16461432822156086,0.9507591363393608,0.2276035706111239
1539731794488978,-0.16534676127260228,0.9488059815365837,0.2272373540856032
1539731794504979,-0.16754406042572656,0.9496604867627987,0.22821393148699176
1539731794520979,-0.1690089265278094,0.9483176928358894,0.23175402456702532
1539731794536979,-0.16913099870298298,0.9491721980621044,0.22821393148699176
1539731794552980,-0.1669336995498587,0.9488059815365837,0.2301670862897689
1539731794568980,-0.16717784390020585,0.9486839093614101,0.22955672541390104
1539731794584980,-0.16595712214847014,0.948439765011063,0.22601663233386748
1539731794600982,-0.166567483024338,0.950148775463493,0.22919050888838033
1539731794616983,-0.16803234912642084,0.9483176928358894,0.2284580758373389
1539731794632983,-0.16729991607537942,0.9470969710841537,0.22662699320973534
1539731794648983,-0.16510261692225514,0.9461203936827651,0.22357518883039607
1539731794664983,-0.16375982299534586,0.9462424658579387,0.22308690012970178
1539731794680984,-0.16168459601739515,0.9491721980621044,0.22235446707866036
1539731794696984,-0.1585107194628823,0.9489280537117573,0.22076752880140393
1539731794712984,-0.15497062638284875,0.9466086823834594,0.22491798275730535
1539731794728984,-0.15631342030975803,0.9442893110551616,0.22333104448004892
1539731794744985,-0.15460440985732804,0.9451438162813766,0.22235446707866036
1539731794760985,-0.15338368810559233,0.946730754558633,0.22162203402761893
1539731794776985,-0.15387197680628661,0.9503929198138401,0.22235446707866036
1539731794792986,-0.15326161593041876,0.9506370641641873,0.22357518883039607
1539731794808986,-0.15289539940489805,0.9495384145876251,0.2229648279545282
1539731794824986,-0.15497062638284875,0.9496604867627987,0.22247653925383393
1539731794840986,-0.15838864728770874,0.9483176928358894,0.22320897230487535
1539731794856987,-0.15875486381322945,0.9480735484855423,0.22479591058213177
1539731794872987,-0.162294956893263,0.9474631876096744,0.22406347753109035
1539731794888987,-0.164003967345693,0.9462424658579387,0.22626077668421463
1539731794904987,-0.16424811169604014,0.9470969710841537,0.22748149843595034
1539731794920990,-0.16681162737468513,0.9468528267338066,0.2258945601586939
1539731794936990,-0.1698634317540244,0.946730754558633,0.23077744716563675
1539731794952990,-0.16998550392919798,0.9463645380331123,0.22748149843595034
1539731794968990,-0.17181658655680154,0.9457541771572444,0.2289463645380332
1539731794984991,-0.1715724422064544,0.9457541771572444,0.22992294193942175
1539731795000991,-0.17206073090714868,0.9496604867627987,0.22906843671320676
1539731795016991,-0.1712062256809337,0.9511253528648815,0.22662699320973534
1539731795032992,-0.16888685435263584,0.9516136415655758,0.22735942626077676
1539731795048992,-0.16913099870298298,0.949294270237278,0.22796978713664462
1539731795064992,-0.167421988250553,0.9478294041351951,0.22796978713664462
1539731795080992,-0.1652246890974287,0.9455100328068973,0.22772564278629748
1539731795096993,-0.1644922560463873,0.9463645380331123,0.2258945601586939
1539731795112993,-0.16095216296635373,0.9463645380331123,0.2267490653849089
1539731795128993,-0.15753414206149374,0.9452658884565501,0.22626077668421463
1539731795144993,-0.15594720378423732,0.9459983215075916,0.22308690012970178
1539731795160994,-0.15680170901045232,0.9489280537117573,0.22504005493247892
1539731795176994,-0.1543602655069809,0.948439765011063,0.2251621271076525
1539731795192994,-0.15301747158007162,0.951003280689708,0.22357518883039607
1539731795208994,-0.15277332722972448,0.951003280689708,0.22247653925383393
1539731795224995,-0.15460440985732804,0.9505149919890137,0.22235446707866036
1539731795240997,-0.15594720378423732,0.9494163424124515,0.22369726100556964
1539731795256997,-0.15753414206149374,0.9477073319600215,0.22125581750209822
1539731795272997,-0.16009765774013873,0.9478294041351951,0.22211032272831321
1539731795288998,-0.162294956893263,0.9461203936827651,0.22418554970626392
1539731795304998,-0.1636377508201723,0.9480735484855423,0.22394140535591678
1539731795320998,-0.164858472571908,0.9503929198138401,0.22577248798352034
1539731795336999,-0.16668955519951156,0.9505149919890137,0.22748149843595034
1539731795352999,-0.16766613260090013,0.9477073319600215,0.2267490653849089
1539731795368999,-0.16974135957885084,0.9459983215075916,0.22711528191042962
1539731795384999,-0.17218280308232226,0.9472190432593273,0.2301670862897689
1539731795401000,-0.17010757610437155,0.947585259784848,0.22784771496147105
1539731795417000,-0.17010757610437155,0.9480735484855423,0.2293125810635539
1539731795433000,-0.16888685435263584,0.9494163424124515,0.2267490653849089
1539731795449000,-0.16644541084916442,0.9479514763103687,0.22858014801251247
1539731795465001,-0.16388189517051943,0.9477073319600215,0.22479591058213177
1539731795481001,-0.1619287403677423,0.9466086823834594,0.22711528191042962
1539731795497001,-0.15875486381322945,0.9473411154345008,0.22650492103456177
1539731795513002,-0.15704585336079946,0.9485618371862365,0.22223239490348679
1539731795529002,-0.15374990463111304,0.9489280537117573,0.2229648279545282
1539731795545002,-0.1531395437552452,0.9483176928358894,0.22235446707866036
1539731795561004,-0.15460440985732804,0.9490501258869308,0.22394140535591678
1539731795577005,-0.15497062638284875,0.9489280537117573,0.22320897230487535
1539731795593005,-0.1569237811856259,0.949294270237278,0.22198825055313964
1539731795609005,-0.15838864728770874,0.950148775463493,0.21954680704966822
1539731795625005,-0.1598535133897916,0.9505149919890137,0.22406347753109035
1539731795641006,-0.1627832455939573,0.948439765011063,0.22601663233386748
1539731795657006,-0.16424811169604014,0.9478294041351951,0.22491798275730535
1539731795673006,-0.165712977798123,0.9470969710841537,0.2243076218814375
1539731795689006,-0.16717784390020585,0.9469748989089801,0.22418554970626392
1539731795705007,-0.16620126649881728,0.9474631876096744,0.22442969405661106
1539731795721007,-0.16681162737468513,0.9473411154345008,0.22528419928282606
1539731795737007,-0.1677882047760737,0.948439765011063,0.22711528191042962
1539731795753008,-0.166567483024338,0.9472190432593273,0.2258945601586939
1539731795769008,-0.16473640039673443,0.9477073319600215,0.22711528191042962
1539731795785008,-0.16632333867399085,0.9462424658579387,0.22699320973525605
1539731795801008,-0.1660791943236437,0.9474631876096744,0.22613870450904106
1539731795817009,-0.16424811169604014,0.9496604867627987,0.22601663233386748
1539731795833009,-0.16375982299534586,0.9480735484855423,0.2255283436331732
1539731795849009,-0.16412603952086657,0.948439765011063,0.22333104448004892
1539731795865009,-0.16156252384222158,0.9488059815365837,0.2243076218814375
1539731795881012,-0.15924315251392374,0.9500267032883194,0.2251621271076525
1539731795897012,-0.16119630731670087,0.9481956206607158,0.22357518883039607
1539731795913012,-0.15973144121461802,0.9483176928358894,0.22235446707866036
1539731795929012,-0.15790035858701446,0.9494163424124515,0.22528419928282606
1539731795945013,-0.15826657511253517,0.9508812085145344,0.2258945601586939
1539731795961013,-0.15631342030975803,0.9505149919890137,0.2243076218814375
1539731795977013,-0.15667963683527875,0.948439765011063,0.22479591058213177
1539731795993013,-0.1569237811856259,0.9457541771572444,0.22858014801251247
1539731796009014,-0.1576562142366673,0.9459983215075916,0.2284580758373389
1539731796025014,-0.15924315251392374,0.9479514763103687,0.22735942626077676
1539731796041014,-0.15948729686427088,0.9505149919890137,0.22870222018768604
1539731796057015,-0.16095216296635373,0.9503929198138401,0.22772564278629748
1539731796073015,-0.16180666819256873,0.9483176928358894,0.2258945601586939
1539731796089015,-0.16351567864499872,0.9474631876096744,0.2251621271076525
1539731796105015,-0.16461432822156086,0.946730754558633,0.2243076218814375
1539731796121016,-0.16620126649881728,0.9469748989089801,0.22223239490348679
1539731796137016,-0.1660791943236437,0.9457541771572444,0.2217441062027925
1539731796153016,-0.16705577172503228,0.9469748989089801,0.22369726100556964
1539731796169016,-0.16681162737468513,0.9486839093614101,0.22272068360418107
1539731796185017,-0.16473640039673443,0.9491721980621044,0.22369726100556964
1539731796201019,-0.16351567864499872,0.9468528267338066,0.22247653925383393
1539731796217019,-0.16156252384222158,0.9477073319600215,0.22491798275730535
1539731796233019,-0.16302738994430443,0.9483176928358894,0.22565041580834677
1539731796249020,-0.16302738994430443,0.9491721980621044,0.22235446707866036
1539731796265020,-0.1636377508201723,0.9497825589379723,0.22406347753109035
1539731796281020,-0.16412603952086657,0.9496604867627987,0.22455176623178463
1539731796297021,-0.16510261692225514,0.9507591363393608,0.22613870450904106
1539731796313021,-0.16327153429465158,0.9483176928358894,0.22369726100556964
1539731796329021,-0.16205081254291587,0.9470969710841537,0.2234531166552225
1539731796345021,-0.16168459601739515,0.9468528267338066,0.22357518883039607
1539731796361022,-0.16046387426565945,0.9464866102082858,0.22577248798352034
1539731796377022,-0.16083009079118016,0.9477073319600215,0.22662699320973534
1539731796393022,-0.16009765774013873,0.9502708476386665,0.22687113756008248
1539731796409022,-0.15912108033875016,0.949294270237278,0.2258945601586939
1539731796425023,-0.15887693598840302,0.949294270237278,0.22821393148699176
1539731796441023,-0.15716792553597303,0.9477073319600215,0.22699320973525605
1539731796457023,-0.1572899977111466,0.9480735484855423,0.23028915846494247
1539731796473024,-0.15912108033875016,0.9489280537117573,0.2280918593118182
1539731796489024,-0.16058594644083302,0.9488059815365837,0.22748149843595034
1539731796505024,-0.16119630731670087,0.9496604867627987,0.22687113756008248
1539731796521026,-0.16205081254291587,0.9490501258869308,0.22540627145799963
1539731796537027,-0.16253910124361015,0.9502708476386665,0.2263828488593882
1539731796553027,-0.16290531776913086,0.9503929198138401,0.2258945601586939
1539731796569027,-0.1627832455939573,0.9469748989089801,0.22796978713664462
1539731796585027,-0.1636377508201723,0.9452658884565501,0.22577248798352034
1539731796601028,-0.16473640039673443,0.9466086823834594,0.2267490653849089
1539731796617028,-0.164858472571908,0.9483176928358894,0.22601663233386748
1539731796633028,-0.16583504997329657,0.9481956206607158,0.2276035706111239
1539731796649028,-0.16424811169604014,0.9477073319600215,0.22577248798352034
1539731796665029,-0.1644922560463873,0.9474631876096744,0.22540627145799963
1539731796681029,-0.16351567864499872,0.9491721980621044,0.21979095140001537
1539731796697029,-0.16241702906843658,0.9461203936827651,0.22357518883039607
1539731796713029,-0.16168459601739515,0.9469748989089801,0.22247653925383393
1539731796729030,-0.1619287403677423,0.9470969710841537,0.2213778896772718
1539731796745030,-0.16205081254291587,0.9481956206607158,0.2213778896772718
1539731796761030,-0.16095216296635373,0.9474631876096744,0.22040131227588322
1539731796777031,-0.1607080186160066,0.9477073319600215,0.22308690012970178
1539731796793031,-0.15887693598840302,0.9479514763103687,0.22284275577935464
1539731796809031,-0.15826657511253517,0.9499046311131458,0.2251621271076525
1539731796825031,-0.15790035858701446,0.9503929198138401,0.2258945601586939
1539731796841034,-0.16046387426565945,0.949294270237278,0.22650492103456177
1539731796857034,-0.16119630731670087,0.9485618371862365,0.2276035706111239
1539731796873034,-0.16131837949187444,0.9500267032883194,0.22882429236285962
1539731796889034,-0.16156252384222158,0.9483176928358894,0.22650492103456177
1539731796905035,-0.16290531776913086,0.9486839093614101,0.22613870450904106
1539731796921035,-0.16375982299534586,0.947585259784848,0.22858014801251247
1539731796937035,-0.16388189517051943,0.9463645380331123,0.22784771496147105
1539731796953035,-0.163149462119478,0.9451438162813766,0.22772564278629748
1539731796969036,-0.16461432822156086,0.9466086823834594,0.22626077668421463
1539731796985036,-0.1644922560463873,0.9455100328068973,0.22955672541390104
1539731797001036,-0.16461432822156086,0.9480735484855423,0.22955672541390104
1539731797017037,-0.16302738994430443,0.9486839093614101,0.23089951934081032
1539731797033037,-0.1644922560463873,0.9494163424124515,0.22662699320973534
1539731797049037,-0.1627832455939573,0.9494163424124515,0.22796978713664462
1539731797065037,-0.1610742351415273,0.9483176928358894,0.2272373540856032
1539731797081038,-0.16253910124361015,0.9478294041351951,0.22784771496147105
1539731797097038,-0.16095216296635373,0.9472190432593273,0.22565041580834677
1539731797113038,-0.16217288471808944,0.9503929198138401,0.22455176623178463
1539731797129038,-0.16217288471808944,0.9505149919890137,0.22272068360418107
1539731797145039,-0.16168459601739515,0.9488059815365837,0.22504005493247892
1539731797161041,-0.16156252384222158,0.9499046311131458,0.2251621271076525
1539731797177041,-0.1602197299153123,0.9483176928358894,0.22504005493247892
1539731797193041,-0.16034180209048587,0.9478294041351951,0.22308690012970178
1539731797209042,-0.16083009079118016,0.9468528267338066,0.2243076218814375
1539731797225042,-0.16290531776913086,0.9455100328068973,0.2243076218814375
1539731797241042,-0.16217288471808944,0.9466086823834594,0.22613870450904106
1539731797257043,-0.1607080186160066,0.948439765011063,0.22369726100556964
1539731797273043,-0.16388189517051943,0.950148775463493,0.22284275577935464
1539731797289043,-0.16180666819256873,0.948439765011063,0.2243076218814375
1539731797305043,-0.16046387426565945,0.949294270237278,0.2217441062027925
1539731797321044,-0.1607080186160066,0.9474631876096744,0.22565041580834677
1539731797337044,-0.16083009079118016,0.9473411154345008,0.22308690012970178
1539731797353044,-0.1607080186160066,0.9468528267338066,0.22455176623178463
1539731797369044,-0.1602197299153123,0.9469748989089801,0.22540627145799963
1539731797385045,-0.1619287403677423,0.9481956206607158,0.22369726100556964
1539731797401045,-0.16156252384222158,0.9473411154345008,0.22491798275730535
1539731797417045,-0.16156252384222158,0.9481956206607158,0.22735942626077676
1539731797433045,-0.16009765774013873,0.9473411154345008,0.22369726100556964
1539731797449046,-0.1598535133897916,0.9485618371862365,0.2258945601586939
1539731797465046,-0.1619287403677423,0.9468528267338066,0.22711528191042962
1539731797481048,-0.16205081254291587,0.9483176928358894,0.22906843671320676
1539731797497048,-0.16168459601739515,0.9488059815365837,0.22858014801251247
1539731797513049,-0.16412603952086657,0.947585259784848,0.22821393148699176
1539731797529049,-0.16424811169604014,0.9489280537117573,0.2267490653849089
1539731797545049,-0.16290531776913086,0.9489280537117573,0.23041123064011604
1539731797561050,-0.16339360646982515,0.9483176928358894,0.22980086976424818
1539731797577050,-0.16546883344777585,0.9473411154345008,0.22735942626077676
1539731797593050,-0.16595712214847014,0.9469748989089801,0.22870222018768604
1539731797609050,-0.164858472571908,0.948439765011063,0.22662699320973534
1539731797625051,-0.16473640039673443,0.9489280537117573,0.2255283436331732
1539731797641051,-0.16388189517051943,0.9469748989089801,0.2280918593118182
1539731797657051,-0.16375982299534586,0.9480735484855423,0.22882429236285962
1539731797673051,-0.1627832455939573,0.9490501258869308,0.2246738384069582
1539731797689052,-0.16083009079118016,0.9486839093614101,0.22284275577935464
1539731797705052,-0.16266117341878372,0.949294270237278,0.22418554970626392
1539731797721052,-0.1619287403677423,0.9489280537117573,0.22308690012970178
1539731797737053,-0.16217288471808944,0.9488059815365837,0.22149996185244536
1539731797753053,-0.15960936903944445,0.9490501258869308,0.22235446707866036
1539731797769053,-0.15887693598840302,0.9490501258869308,0.22149996185244536
1539731797785053,-0.15960936903944445,0.9468528267338066,0.2251621271076525
1539731797801086,-0.16046387426565945,0.9485618371862365,0.22491798275730535
1539731797817086,-0.1585107194628823,0.950148775463493,0.22662699320973534
1539731797833087,-0.1598535133897916,0.9497825589379723,0.2258945601586939
1539731797849087,-0.1602197299153123,0.945876249332418,0.2276035706111239
1539731797865087,-0.16302738994430443,0.9456321049820708,0.2293125810635539
1539731797881087,-0.16180666819256873,0.945876249332418,0.22943465323872747
1539731797897088,-0.16290531776913086,0.9489280537117573,0.22858014801251247
1539731797913088,-0.16437018387121372,0.9488059815365837,0.2293125810635539
1539731797929088,-0.16437018387121372,0.9490501258869308,0.22613870450904106
1539731797945088,-0.16327153429465158,0.9478294041351951,0.22796978713664462
1539731797961089,-0.163149462119478,0.9478294041351951,0.22699320973525605
1539731797977089,-0.16327153429465158,0.9469748989089801,0.2272373540856032
1539731797993089,-0.16241702906843658,0.9479514763103687,0.22504005493247892
1539731798009090,-0.163149462119478,0.949294270237278,0.22601663233386748
1539731798025090,-0.16302738994430443,0.9488059815365837,0.2258945601586939
1539731798041090,-0.162294956893263,0.946730754558633,0.22504005493247892
1539731798057090,-0.16131837949187444,0.9469748989089801,0.22247653925383393
1539731798073091,-0.1610742351415273,0.9481956206607158,0.22418554970626392
1539731798089091,-0.16034180209048587,0.9479514763103687,0.22284275577935464
1539731798105091,-0.16034180209048587,0.9490501258869308,0.2251621271076525
1539731798121093,-0.16241702906843658,0.9477073319600215,0.22308690012970178
1539731798137094,-0.16168459601739515,0.950148775463493,0.22442969405661106
1539731798153094,-0.1619287403677423,0.9503929198138401,0.22455176623178463
1539731798169094,-0.1607080186160066,0.9506370641641873,0.22455176623178463
1539731798185094,-0.16058594644083302,0.9481956206607158,0.22442969405661106
1539731798201095,-0.16034180209048587,0.9453879606317237,0.22577248798352034
1539731798217095,-0.16156252384222158,0.9456321049820708,0.2267490653849089
1539731798233095,-0.16388189517051943,0.947585259784848,0.22613870450904106
1539731798249096,-0.161440451667048,0.9496604867627987,0.22858014801251247
1539731798265096,-0.16461432822156086,0.9495384145876251,0.2272373540856032
1539731798281096,-0.16461432822156086,0.947585259784848,0.22650492103456177
1539731798297096,-0.16498054474708157,0.9466086823834594,0.22650492103456177
1539731798313097,-0.16546883344777585,0.9463645380331123,0.22540627145799963
1539731798329097,-0.16253910124361015,0.946730754558633,0.22577248798352034
1539731798345097,-0.16375982299534586,0.9479514763103687,0.2258945601586939
1539731798361097,-0.16388189517051943,0.9474631876096744,0.2251621271076525
1539731798377098,-0.16241702906843658,0.9500267032883194,0.22784771496147105
1539731798393098,-0.1607080186160066,0.9494163424124515,0.22577248798352034
1539731798409098,-0.16119630731670087,0.9485618371862365,0.22613870450904106
1539731798425099,-0.161440451667048,0.9477073319600215,0.2272373540856032
1539731798441070,-0.16205081254291587,0.948439765011063,0.22479591058213177
1539731798457070,-0.16156252384222158,0.9502708476386665,0.22772564278629748
1539731798473071,-0.1607080186160066,0.9486839093614101,0.22748149843595034
1539731798489071,-0.1619287403677423,0.9456321049820708,0.22662699320973534
1539731798505071,-0.161440451667048,0.9439230945296408,0.22577248798352034
1539731798521072,-0.16241702906843658,0.9455100328068973,0.22504005493247892
1539731798537072,-0.163149462119478,0.9473411154345008,0.2267490653849089
1539731798553072,-0.1610742351415273,0.9494163424124515,0.22650492103456177
1539731798569072,-0.15948729686427088,0.9480735484855423,0.22784771496147105
1539731798585073,-0.1581445029373616,0.9457541771572444,0.2251621271076525
1539731798601073,-0.15887693598840302,0.945876249332418,0.22735942626077676
1539731798617073,-0.15631342030975803,0.9500267032883194,0.22540627145799963
1539731798633073,-0.16046387426565945,0.9529564354924851,0.22284275577935464
1539731798649074,-0.1598535133897916,0.9522240024414437,0.22406347753109035
1539731798665074,-0.15997558556496516,0.9474631876096744,0.22577248798352034
1539731798681074,-0.1619287403677423,0.9459983215075916,0.22186617837796607
1539731798697075,-0.16424811169604014,0.9435568780041201,0.22333104448004892
1539731798713075,-0.165712977798123,0.9453879606317237,0.22504005493247892
1539731798729075,-0.1669336995498587,0.9469748989089801,0.22333104448004892
1539731798745075,-0.16913099870298298,0.9508812085145344,0.22455176623178463
1539731798761078,-0.1686427100022887,0.9519798580910965,0.2246738384069582
1539731798777078,-0.16766613260090013,0.9502708476386665,0.2276035706111239
1539731798793078,-0.16729991607537942,0.9473411154345008,0.2276035706111239
1539731798809078,-0.1660791943236437,0.9447775997558558,0.2276035706111239
1539731798825079,-0.16583504997329657,0.9452658884565501,0.2272373540856032
1539731798841079,-0.16253910124361015,0.9459983215075916,0.22455176623178463
1539731798857079,-0.162294956893263,0.948439765011063,0.22784771496147105
1539731798873079,-0.1602197299153123,0.9477073319600215,0.22711528191042962
1539731798889080,-0.16119630731670087,0.9477073319600215,0.22528419928282606
1539731798905080,-0.15912108033875016,0.9477073319600215,0.2258945601586939
1539731798921080,-0.15741206988632017,0.9466086823834594,0.22662699320973534
1539731798937080,-0.1564354924849316,0.9474631876096744,0.22565041580834677
1539731798953081,-0.15838864728770874,0.9478294041351951,0.2255283436331732
1539731798969081,-0.15863279163805588,0.9491721980621044,0.2255283436331732
1539731798985081,-0.15655756466010518,0.9496604867627987,0.2258945601586939
1539731799001082,-0.1560692759594109,0.9505149919890137,0.22223239490348679
1539731799017082,-0.15777828641184088,0.9514915693904022,0.22613870450904106
1539731799033082,-0.15802243076218803,0.9478294041351951,0.22565041580834677
1539731799049082,-0.1593652246890973,0.9485618371862365,0.2284580758373389
1539731799065083,-0.15973144121461802,0.9491721980621044,0.22699320973525605
1539731799081085,-0.15997558556496516,0.9506370641641873,0.22504005493247892
1539731799097085,-0.16217288471808944,0.9483176928358894,0.22772564278629748
1539731799113085,-0.165712977798123,0.9457541771572444,0.22882429236285962
1539731799129086,-0.16791027695124727,0.9470969710841537,0.22601663233386748
1539731799145086,-0.1698634317540244,0.9472190432593273,0.2243076218814375
1539731799161086,-0.1707179369802394,0.9463645380331123,0.22308690012970178
1539731799177086,-0.17267109178301654,0.9495384145876251,0.22565041580834677
1539731799193087,-0.17010757610437155,0.9477073319600215,0.22601663233386748
1539731799209087,-0.16998550392919798,0.9444113832303351,0.22565041580834677
1539731799225087,-0.16839856565194156,0.9459983215075916,0.22577248798352034
1539731799241088,-0.16375982299534586,0.947585259784848,0.22565041580834677
1539731799257088,-0.1627832455939573,0.9481956206607158,0.22540627145799963
1539731799273088,-0.1607080186160066,0.9491721980621044,0.22613870450904106
1539731799289088,-0.1593652246890973,0.9506370641641873,0.22333104448004892
1539731799305089,-0.1593652246890973,0.949294270237278,0.22223239490348679
1539731799321089,-0.15667963683527875,0.9464866102082858,0.22320897230487535
1539731799337089,-0.15667963683527875,0.9483176928358894,0.22235446707866036
1539731799353089,-0.15741206988632017,0.9488059815365837,0.2213778896772718
1539731799369090,-0.15912108033875016,0.9497825589379723,0.22357518883039607
1539731799385090,-0.1585107194628823,0.950148775463493,0.2238193331807432
1539731799401092,-0.15704585336079946,0.9490501258869308,0.22333104448004892
1539731799417092,-0.15802243076218803,0.9469748989089801,0.22284275577935464
1539731799433093,-0.15924315251392374,0.9470969710841537,0.22613870450904106
1539731799449093,-0.16034180209048587,0.9472190432593273,0.22565041580834677
1539731799465093,-0.15997558556496516,0.9486839093614101,0.2276035706111239
1539731799481094,-0.16180666819256873,0.9483176928358894,0.22796978713664462
1539731799497094,-0.16461432822156086,0.9474631876096744,0.2267490653849089
1539731799513094,-0.16546883344777585,0.9486839093614101,0.22699320973525605
1539731799529094,-0.16852063782711513,0.947585259784848,0.2289463645380332
1539731799545095,-0.16803234912642084,0.9473411154345008,0.22748149843595034
1539731799561095,-0.167421988250553,0.9474631876096744,0.2305333028152896
1539731799577095,-0.16681162737468513,0.949294270237278,0.2293125810635539
1539731799593095,-0.16644541084916442,0.9505149919890137,0.22870222018768604
1539731799609096,-0.16595712214847014,0.9480735484855423,0.2301670862897689
1539731799625096,-0.16546883344777585,0.9461203936827651,0.22992294193942175
1539731799641096,-0.16388189517051943,0.9472190432593273,0.22772564278629748
1539731799657096,-0.16351567864499872,0.9497825589379723,0.22711528191042962
1539731799673097,-0.16156252384222158,0.9494163424124515,0.22565041580834677
1539731799689097,-0.16180666819256873,0.9488059815365837,0.22479591058213177
1539731799705097,-0.16046387426565945,0.9507591363393608,0.22394140535591678
1539731799721130,-0.15997558556496516,0.9508812085145344,0.22479591058213177
1539731799737130,-0.16034180209048587,0.9485618371862365,0.22613870450904106
1539731799753131,-0.16034180209048587,0.9453879606317237,0.2255283436331732
1539731799769131,-0.16046387426565945,0.9468528267338066,0.22565041580834677
1539731799785131,-0.16095216296635373,0.9491721980621044,0.22540627145799963
1539731799801131,-0.15960936903944445,0.9480735484855423,0.22357518883039607
1539731799817132,-0.1598535133897916,0.9494163424124515,0.2229648279545282
1539731799833132,-0.15924315251392374,0.9481956206607158,0.2251621271076525
1539731799849132,-0.15777828641184088,0.9474631876096744,0.22418554970626392
1539731799865132,-0.1585107194628823,0.9480735484855423,0.2243076218814375
1539731799881133,-0.15924315251392374,0.9469748989089801,0.2229648279545282
1539731799897133,-0.16083009079118016,0.9468528267338066,0.22442969405661106
1539731799913133,-0.16131837949187444,0.946730754558633,0.2234531166552225
1539731799929134,-0.16205081254291587,0.9472190432593273,0.22333104448004892
1539731799945134,-0.16217288471808944,0.9470969710841537,0.2243076218814375
1539731799961134,-0.1636377508201723,0.9468528267338066,0.2213778896772718
1539731799977134,-0.16473640039673443,0.9481956206607158,0.22320897230487535
1539731799993135,-0.16595712214847014,0.9479514763103687,0.22613870450904106
1539731800009135,-0.16632333867399085,0.9489280537117573,0.22650492103456177
1539731800025135,-0.16546883344777585,0.9496604867627987,0.2276035706111239
1539731800041137,-0.16546883344777585,0.9490501258869308,0.22821393148699176
1539731800057138,-0.16461432822156086,0.9478294041351951,0.22748149843595034
1539731800073138,-0.164858472571908,0.9486839093614101,0.2293125810635539
1539731800089138,-0.1636377508201723,0.9486839093614101,0.22821393148699176
1539731800105138,-0.16424811169604014,0.9470969710841537,0.22735942626077676
1539731800121139,-0.16437018387121372,0.9478294041351951,0.23004501411459533
1539731800137139,-0.16217288471808944,0.9470969710841537,0.2310215915159839
1539731800153139,-0.1610742351415273,0.9470969710841537,0.23089951934081032
1539731800169139,-0.16034180209048587,0.9464866102082858,0.2284580758373389
1539731800185140,-0.1607080186160066,0.9491721980621044,0.22772564278629748
1539731800201140,-0.15924315251392374,0.950148775463493,0.2280918593118182
1539731800217140,-0.15948729686427088,0.9485618371862365,0.22626077668421463
1539731800233141,-0.15753414206149374,0.9483176928358894,0.22211032272831321
1539731800249141,-0.15716792553597303,0.9486839093614101,0.2213778896772718
1539731800265141,-0.15741206988632017,0.9486839093614101,0.2246738384069582
1539731800281141,-0.16046387426565945,0.9470969710841537,0.2213778896772718
1539731800297142,-0.1585107194628823,0.947585259784848,0.22247653925383393
1539731800313142,-0.16095216296635373,0.946730754558633,0.22223239490348679
1539731800329142,-0.162294956893263,0.9469748989089801,0.2217441062027925
1539731800345142,-0.1644922560463873,0.9480735484855423,0.22442969405661106
1539731800361145,-0.164003967345693,0.9488059815365837,0.22284275577935464
1539731800377145,-0.16510261692225514,0.949294270237278,0.2213778896772718
1539731800393145,-0.16583504997329657,0.9505149919890137,0.22565041580834677
1539731800409145,-0.1669336995498587,0.9488059815365837,0.22870222018768604
1539731800425146,-0.16583504997329657,0.945876249332418,0.2289463645380332
1539731800441146,-0.16705577172503228,0.945876249332418,0.22687113756008248
1539731800457146,-0.16644541084916442,0.9464866102082858,0.22882429236285962
1539731800473147,-0.16546883344777585,0.9474631876096744,0.2313878080415046
1539731800489147,-0.16339360646982515,0.9481956206607158,0.22943465323872747
1539731800505147,-0.1627832455939573,0.9488059815365837,0.22943465323872747
1539731800521147,-0.1619287403677423,0.9490501258869308,0.2289463645380332
1539731800537148,-0.16034180209048587,0.9485618371862365,0.22943465323872747
1539731800553148,-0.1589990081635766,0.9464866102082858,0.2284580758373389
1539731800569148,-0.15924315251392374,0.9464866102082858,0.22577248798352034
1539731800585148,-0.15863279163805588,0.9468528267338066,0.2246738384069582
1539731800601149,-0.1572899977111466,0.9472190432593273,0.22735942626077676
1539731800617149,-0.1572899977111466,0.9478294041351951,0.22613870450904106
1539731800633149,-0.15619134813458446,0.9499046311131458,0.2263828488593882
1539731800649150,-0.15667963683527875,0.9488059815365837,0.22528419928282606
1539731800665150,-0.1589990081635766,0.9481956206607158,0.2255283436331732
1539731800681121,-0.16131837949187444,0.949294270237278,0.22662699320973534
1539731800697122,-0.16119630731670087,0.9478294041351951,0.22735942626077676
1539731800713122,-0.16217288471808944,0.9497825589379723,0.2246738384069582
1539731800729122,-0.16388189517051943,0.9499046311131458,0.22540627145799963
1539731800745123,-0.164858472571908,0.9480735484855423,0.22540627145799963
1539731800761123,-0.164003967345693,0.9472190432593273,0.22687113756008248
1539731800777123,-0.16595712214847014,0.9469748989089801,0.22613870450904106
1539731800793123,-0.16632333867399085,0.9490501258869308,0.22577248798352034
1539731800809124,-0.167421988250553,0.9490501258869308,0.2263828488593882
1539731800825124,-0.16559090562294942,0.9495384145876251,0.2263828488593882
1539731800841124,-0.18793011367971335,0.9422140840772109,0.2772869459067673
1539731800857124,-0.308659494926375,1.0498817425803004,0.05279621576256943
1539731800873125,-0.029602502479590953,0.9658960860608836,0.315495536736095
1539731800889125,-0.2435950255588617,0.9224383916990924,0.2356603341725796
1539731800905125,-0.1940337224383919,0.9186541542687117,0.2562905317769131
1539731800921126,-0.13958953231097881,0.9135271229114217,0.24676890211337454
1539731800937126,-0.18316929884794364,0.9378194857709623,0.23675898374914173
1539731800953126,-0.1911039902342262,0.9474631876096744,0.2503089951934081
1539731800969126,-0.1893949797817962,0.9497825589379723,0.2650797283894102
1539731800985127,-0.18439002059967935,0.9589379720759901,0.2548256656748302
1539731801001129,-0.17608911268787653,0.9606469825284201,0.23614862287327387
1539731801017129,-0.14837872892347592,0.9561303120469979,0.22748149843595034
1539731801033129,-0.15252918287937733,0.9444113832303351,0.22626077668421463
1539731801049130,-0.15399404898146019,0.933058670939193,0.23236438544289317
1539731801065130,-0.14813458457312878,0.9365987640192266,0.23065537499046318
1539731801081130,-0.14654764629587236,0.9461203936827651,0.21893644617380037
1539731801097130,-0.14251926451514452,0.9542992294193944,0.21258869306477468
1539731801113131,-0.14325169756618594,0.9503929198138401,0.2191805905241475
1539731801129131,-0.14752422369726093,0.9463645380331123,0.22027924010070965
1539731801145131,-0.14813458457312878,0.946730754558633,0.2146639200427254
1539731801161131,-0.14361791409170666,0.9480735484855423,0.20892652780956755
1539731801177132,-0.14837872892347592,0.9479514763103687,0.2033112077515833
1539731801193132,-0.15387197680628661,0.9474631876096744,0.20477607385366614
1539731801209132,-0.16095216296635373,0.9469748989089801,0.2083161669336997
1539731801225133,-0.1644922560463873,0.947585259784848,0.2091706721599147
1539731801241133,-0.16717784390020585,0.945876249332418,0.21173418783855968
1539731801257133,-0.16852063782711513,0.9469748989089801,0.21564049744411395
1539731801273133,-0.16766613260090013,0.9451438162813766,0.21905851834897394
1539731801289134,-0.16729991607537942,0.946730754558633,0.21905851834897394
1539731801305134,-0.16888685435263584,0.9477073319600215,0.22357518883039607
1539731801321167,-0.17047379262989226,0.9497825589379723,0.22796978713664462
1539731801337167,-0.17230487525749583,0.9536888685435265,0.2284580758373389
1539731801353167,-0.17401388570992582,0.9497825589379723,0.22858014801251247
1539731801369167,-0.17730983443961224,0.9448996719310294,0.23199816891737246
1539731801385168,-0.17633325703822367,0.9445334554055087,0.23639276722362101
1539731801401168,-0.1762111848630501,0.9440451667048144,0.23785763332570387
1539731801417168,-0.17376974135957868,0.9479514763103687,0.23627069504844744
1539731801433169,-0.17267109178301654,0.9468528267338066,0.23932249942778672
1539731801449169,-0.17022964827954512,0.9468528267338066,0.24298466468299385
1539731801465169,-0.16852063782711513,0.946730754558633,0.24408331425955598
1539731801481169,-0.1660791943236437,0.9447775997558558,0.24676890211337454
1539731801497170,-0.16461432822156086,0.946730754558633,0.2461585412375067
1539731801513170,-0.16266117341878372,0.945876249332418,0.2461585412375067
1539731801529170,-0.16205081254291587,0.9479514763103687,0.24335088120851456
1539731801545170,-0.15960936903944445,0.9478294041351951,0.24335088120851456
1539731801561171,-0.1576562142366673,0.9481956206607158,0.242374303807126
1539731801577171,-0.15594720378423732,0.9474631876096744,0.23907835507743957
1539731801593171,-0.15704585336079946,0.9469748989089801,0.23553826199740602
1539731801609171,-0.15570305943389018,0.9479514763103687,0.23297474631876103
1539731801625172,-0.15704585336079946,0.9472190432593273,0.23065537499046318
1539731801641174,-0.15667963683527875,0.9491721980621044,0.22613870450904106
1539731801657174,-0.15631342030975803,0.9489280537117573,0.22394140535591678
1539731801673174,-0.15887693598840302,0.949294270237278,0.22101167315175108
1539731801689175,-0.15924315251392374,0.9499046311131458,0.21857022964827966
1539731801705175,-0.15948729686427088,0.9521019302662701,0.21942473487449465
1539731801721175,-0.1598535133897916,0.9514915693904022,0.2171053635461968
1539731801737176,-0.16168459601739515,0.9469748989089801,0.21527428091859324
1539731801753176,-0.16510261692225514,0.9464866102082858,0.21551842526894038
1539731801769176,-0.16595712214847014,0.9468528267338066,0.2129549095902954
1539731801785176,-0.1677882047760737,0.9468528267338066,0.21149004348821254
1539731801801177,-0.16852063782711513,0.9474631876096744,0.2129549095902954
1539731801817177,-0.16876478217746227,0.9480735484855423,0.2175936522468911
1539731801833177,-0.1677882047760737,0.9485618371862365,0.21905851834897394
1539731801849177,-0.165712977798123,0.9481956206607158,0.21661707484550252
1539731801865178,-0.167421988250553,0.9485618371862365,0.21832608529793252
1539731801881178,-0.16461432822156086,0.9461203936827651,0.2200350957503625
1539731801897178,-0.16510261692225514,0.947585259784848,0.2258945601586939
1539731801913179,-0.1644922560463873,0.9468528267338066,0.22125581750209822
1539731801929179,-0.16205081254291587,0.9481956206607158,0.22528419928282606
1539731801945179,-0.16156252384222158,0.9468528267338066,0.22662699320973534
1539731801961181,-0.1598535133897916,0.946730754558633,0.2322423132677196
1539731801977182,-0.16083009079118016,0.9473411154345008,0.2339513237201496
1539731801993182,-0.16180666819256873,0.9473411154345008,0.23529411764705888
1539731802009182,-0.16168459601739515,0.9479514763103687,0.23529411764705888
1539731802025182,-0.163149462119478,0.9470969710841537,0.23639276722362101
1539731802041183,-0.16168459601739515,0.9470969710841537,0.23749141680018315
1539731802057183,-0.15948729686427088,0.9466086823834594,0.23736934462500958
1539731802073183,-0.15924315251392374,0.9474631876096744,0.23627069504844744
1539731802089183,-0.15960936903944445,0.9469748989089801,0.23761348897535672
1539731802105184,-0.1610742351415273,0.947585259784848,0.237247272449836
1539731802121184,-0.15973144121461802,0.9462424658579387,0.2322423132677196
1539731802137184,-0.16131837949187444,0.946730754558633,0.23297474631876103
1539731802153185,-0.163149462119478,0.9470969710841537,0.2301670862897689
1539731802169185,-0.16351567864499872,0.9448996719310294,0.22955672541390104
1539731802185185,-0.1636377508201723,0.9470969710841537,0.22796978713664462
1539731802201185,-0.1636377508201723,0.9474631876096744,0.22772564278629748
1539731802217186,-0.16302738994430443,0.9483176928358894,0.2243076218814375
1539731802233186,-0.16424811169604014,0.949294270237278,0.2205233844510568
1539731802249186,-0.16437018387121372,0.9477073319600215,0.22076752880140393
1539731802265186,-0.164003967345693,0.9470969710841537,0.21942473487449465
1539731802281189,-0.16375982299534586,0.9481956206607158,0.21954680704966822
1539731802297189,-0.16461432822156086,0.9474631876096744,0.21686121919584966
1539731802313189,-0.16351567864499872,0.9478294041351951,0.2200350957503625
1539731802329189,-0.164858472571908,0.9477073319600215,0.22272068360418107
1539731802345190,-0.16424811169604014,0.949294270237278,0.21991302357518894
1539731802361190,-0.16534676127260228,0.949294270237278,0.21820401312275894
1539731802377190,-0.16461432822156086,0.9472190432593273,0.22027924010070965
1539731802393190,-0.16388189517051943,0.9497825589379723,0.2229648279545282
1539731802409191,-0.16302738994430443,0.9502708476386665,0.2251621271076525
1539731802425191,-0.16253910124361015,0.9496604867627987,0.2251621271076525
1539731802441191,-0.1607080186160066,0.9479514763103687,0.22821393148699176
1539731802457192,-0.1627832455939573,0.9447775997558558,0.23163195239185175
1539731802473192,-0.16253910124361015,0.9425803006027316,0.2296787975890746
