Timestamp (microseconds),Gyro X (°/s),Gyro Y (°/s),Gyro Z (°/s)
1539731777320556,1.1902037079423735,-0.3967345693140487,0.6408789196611906
1539731777336556,1.2512397955290453,-0.7629510948347615,0.7019150072480898
1539731777352556,1.3122758831159445,-0.6408789196611906,0.45777065690094787
1539731777368556,1.4343480582895154,-0.09155413138023505,0.213626306553806
1539731777384555,1.4343480582895154,-0.3967345693140487,0.09155413138023505
1539731777400555,1.3122758831159445,-0.7629510948347615,0.213626306553806
1539731777416555,1.3122758831159445,-0.33569848172737693,0.213626306553806
1539731777432555,1.0681315327688026,-0.15259021896690683,0.213626306553806
1539731777448555,0.7019150072480898,-1.1902037079423735,0.5188067444876197
1539731777464554,0.7019150072480898,-1.3733119707026162,0.5188067444876197
1539731777480554,0.8239871824216607,-0.8239871824216607,0.45777065690094787
1539731777496554,1.0681315327688026,-0.2746623941404778,0.5188067444876197
1539731777512554,1.0681315327688026,0.2746623941404778,0.6408789196611906
1539731777528554,0.8239871824216607,0.3967345693140487,0.7019150072480898
1539731777544553,0.7019150072480898,0.03051804379333589,0.8239871824216607
1539731777560553,0.5798428320745188,-0.7019150072480898,1.0681315327688026
1539731777576553,0.5188067444876197,-1.4343480582895154,1.4343480582895154
1539731777592553,0.5188067444876197,-1.8616006713969,1.6174563210497581
1539731777608553,0.33569848172737693,-1.983672846570471,1.739528496223329
1539731777624552,0.03051804379333589,-1.6784924086366573,1.8005645838102282
1539731777640564,-0.213626306553806,-1.1291676203554744,1.739528496223329
1539731777656563,-0.5798428320745188,-0.8239871824216607,1.4953841458761872
1539731777672563,-0.6408789196611906,-0.8850232700083325,1.0070954451819034
1539731777688563,-0.5188067444876197,-0.8239871824216607,0.3967345693140487
1539731777704563,-0.33569848172737693,-0.8239871824216607,-0.03051804379333589
1539731777720563,-0.03051804379333589,-0.7629510948347615,-0.3967345693140487
1539731777736562,0.15259021896690683,-0.45777065690094787,-0.7019150072480898
1539731777752562,0.2746623941404778,-0.213626306553806,-0.7629510948347615
1539731777768562,0.5188067444876197,-0.3967345693140487,-0.7019150072480898
1539731777784562,0.7629510948347615,-0.5798428320745188,-0.45777065690094787
1539731777800562,1.0070954451819034,-0.7629510948347615,-0.213626306553806
1539731777816561,1.2512397955290453,-1.0070954451819034,0.15259021896690683
1539731777832561,1.3122758831159445,-1.1291676203554744,0.5798428320745188
1539731777848561,1.3122758831159445,-1.0070954451819034,1.0681315327688026
1539731777864561,1.3122758831159445,-0.6408789196611906,1.4953841458761872
1539731777880560,1.2512397955290453,-0.15259021896690683,1.6174563210497581
1539731777896560,1.3122758831159445,0.03051804379333589,1.6174563210497581
1539731777912560,1.4343480582895154,-0.03051804379333589,1.3733119707026162
1539731777928560,1.4953841458761872,-0.2746623941404778,1.0681315327688026
1539731777944560,1.6784924086366573,-0.5188067444876197,0.7019150072480898
1539731777960571,1.6784924086366573,-0.6408789196611906,0.45777065690094787
1539731777976571,1.6784924086366573,-0.5188067444876197,0.3967345693140487
1539731777992571,1.4953841458761872,-0.5798428320745188,0.45777065690094787
1539731778008570,1.3122758831159445,-0.5798428320745188,0.5798428320745188
1539731778024570,0.9460593575952316,-0.8239871824216607,0.6408789196611906
1539731778040570,0.5188067444876197,-0.9460593575952316,0.6408789196611906
1539731778056570,0.2746623941404778,-0.8850232700083325,0.7019150072480898
1539731778072569,0.09155413138023505,-0.8239871824216607,0.7629510948347615
1539731778088569,0.15259021896690683,-0.6408789196611906,0.7629510948347615
1539731778104569,0.09155413138023505,-0.3967345693140487,0.7019150072480898
1539731778120569,0.15259021896690683,-0.03051804379333589,0.5798428320745188
1539731778136569,0.2746623941404778,0.03051804379333589,0.3967345693140487
1539731778152568,0.45777065690094787,-0.09155413138023505,0.3967345693140487
1539731778168568,0.7019150072480898,-0.3967345693140487,0.3967345693140487
1539731778184568,0.8850232700083325,-0.5188067444876197,0.5188067444876197
1539731778200568,0.7629510948347615,-0.6408789196611906,0.6408789196611906
1539731778216568,0.5188067444876197,-0.8239871824216607,0.8239871824216607
1539731778232567,0.3967345693140487,-0.8850232700083325,0.8850232700083325
1539731778248567,0.33569848172737693,-0.7019150072480898,0.9460593575952316
1539731778264567,0.2746623941404778,-0.7019150072480898,0.8850232700083325
1539731778280578,0.213626306553806,-0.7019150072480898,0.8239871824216607
1539731778296578,0.213626306553806,-0.7629510948347615,0.6408789196611906
1539731778312578,0.213626306553806,-0.8239871824216607,0.45777065690094787
1539731778328578,0.2746623941404778,-0.6408789196611906,0.33569848172737693
1539731778344577,0.45777065690094787,-0.7019150072480898,0.2746623941404778
1539731778360577,0.7019150072480898,-0.7019150072480898,0.09155413138023505
1539731778376577,1.0070954451819034,-0.45777065690094787,-0.03051804379333589
1539731778392577,1.2512397955290453,-0.3967345693140487,0.09155413138023505
1539731778408577,1.3733119707026162,-0.5188067444876197,0.213626306553806
1539731778424576,1.4343480582895154,-0.7019150072480898,0.3967345693140487
1539731778440576,1.4953841458761872,-0.8239871824216607,0.7019150072480898
1539731778456576,1.4343480582895154,-0.7019150072480898,0.8850232700083325
1539731778472576,1.4953841458761872,-0.3967345693140487,1.0070954451819034
1539731778488576,1.4343480582895154,-0.2746623941404778,1.0681315327688026
1539731778504575,1.4343480582895154,-0.3967345693140487,1.1291676203554744
1539731778520575,1.3122758831159445,-0.6408789196611906,1.1291676203554744
1539731778536575,1.2512397955290453,-0.7629510948347615,1.1291676203554744
1539731778552575,1.1291676203554744,-0.7629510948347615,1.0681315327688026
1539731778568575,0.9460593575952316,-0.7019150072480898,0.8850232700083325
1539731778584574,0.7629510948347615,-0.5188067444876197,0.6408789196611906
1539731778600586,0.7629510948347615,-0.5188067444876197,0.3967345693140487
1539731778616585,0.6408789196611906,-0.3967345693140487,0.2746623941404778
1539731778632585,0.5188067444876197,-0.45777065690094787,0.09155413138023505
1539731778648585,0.3967345693140487,-0.7019150072480898,0.03051804379333589
1539731778664585,0.33569848172737693,-1.0681315327688026,0.09155413138023505
1539731778680585,0.2746623941404778,-1.1902037079423735,0.33569848172737693
1539731778696584,0.15259021896690683,-0.9460593575952316,0.45777065690094787
1539731778712584,0.09155413138023505,-0.7019150072480898,0.45777065690094787
1539731778728584,-0.03051804379333589,-0.8239871824216607,0.45777065690094787
1539731778744584,0.09155413138023505,-0.8239871824216607,0.45777065690094787
1539731778760584,0.33569848172737693,-0.7019150072480898,0.5798428320745188
1539731778776583,0.5188067444876197,-0.5798428320745188,0.7019150072480898
1539731778792583,0.6408789196611906,-0.33569848172737693,0.8239871824216607
1539731778808583,0.6408789196611906,-0.2746623941404778,0.8239871824216607
1539731778824583,0.6408789196611906,-0.45777065690094787,0.7629510948347615
1539731778840582,0.7019150072480898,-0.7019150072480898,0.5798428320745188
1539731778856582,0.7629510948347615,-0.8850232700083325,0.5798428320745188
1539731778872582,0.7019150072480898,-1.0681315327688026,0.5188067444876197
1539731778888582,0.8239871824216607,-1.0070954451819034,0.5798428320745188
1539731778904582,0.8239871824216607,-0.7629510948347615,0.6408789196611906
1539731778920593,0.8850232700083325,-0.5798428320745188,0.8850232700083325
1539731778936593,0.9460593575952316,-0.45777065690094787,1.1291676203554744
1539731778952592,1.0070954451819034,-0.15259021896690683,1.1902037079423735
1539731778968592,1.0070954451819034,-0.09155413138023505,1.1291676203554744
1539731778984592,1.0681315327688026,-0.2746623941404778,1.0070954451819034
1539731779000592,1.1291676203554744,-0.5798428320745188,0.9460593575952316
1539731779016592,1.0681315327688026,-0.8239871824216607,0.9460593575952316
1539731779032591,1.0070954451819034,-0.8850232700083325,0.8850232700083325
1539731779048591,0.9460593575952316,-0.7629510948347615,0.7019150072480898
1539731779064591,0.9460593575952316,-0.5798428320745188,0.5798428320745188
1539731779080591,0.9460593575952316,-0.45777065690094787,0.5188067444876197
1539731779096591,0.8850232700083325,-0.3967345693140487,0.3967345693140487
1539731779112590,0.7629510948347615,-0.3967345693140487,0.33569848172737693
1539731779128590,0.7019150072480898,-0.6408789196611906,0.15259021896690683
1539731779144590,0.7019150072480898,-0.6408789196611906,0.09155413138023505
1539731779160590,0.7019150072480898,-0.45777065690094787,0.09155413138023505
1539731779176590,0.7019150072480898,-0.09155413138023505,0.15259021896690683
1539731779192589,0.5188067444876197,0.09155413138023505,0.15259021896690683
1539731779208589,0.33569848172737693,0.03051804379333589,0.213626306553806
1539731779224589,0.2746623941404778,-0.09155413138023505,0.2746623941404778
1539731779240600,0.2746623941404778,-0.5188067444876197,0.3967345693140487
1539731779256600,0.213626306553806,-0.8850232700083325,0.5798428320745188
1539731779272601,0.03051804379333589,-1.0070954451819034,0.8239871824216607
1539731779288601,0.03051804379333589,-1.0070954451819034,1.0681315327688026
1539731779304601,0.15259021896690683,-1.0070954451819034,1.3122758831159445
1539731779320602,0.3967345693140487,-0.7629510948347615,1.4343480582895154
1539731779336602,0.7019150072480898,-0.3967345693140487,1.4953841458761872
1539731779352602,0.9460593575952316,-0.2746623941404778,1.3733119707026162
1539731779368602,1.0070954451819034,-0.213626306553806,1.1902037079423735
1539731779384603,1.1291676203554744,-0.213626306553806,0.9460593575952316
1539731779400603,1.1291676203554744,-0.33569848172737693,0.6408789196611906
1539731779416603,1.1902037079423735,-0.5188067444876197,0.3967345693140487
1539731779432603,1.2512397955290453,-0.5188067444876197,0.15259021896690683
1539731779448604,1.1902037079423735,-0.5798428320745188,-0.03051804379333589
1539731779464604,1.1291676203554744,-0.7019150072480898,0.03051804379333589
1539731779480604,1.0070954451819034,-0.8850232700083325,-0.03051804379333589
1539731779496605,0.9460593575952316,-0.8239871824216607,0.09155413138023505
1539731779512605,0.8850232700083325,-0.5798428320745188,0.09155413138023505
1539731779528605,0.8239871824216607,-0.3967345693140487,0.15259021896690683
1539731779544605,0.8850232700083325,-0.33569848172737693,0.213626306553806
1539731779560608,1.0070954451819034,-0.5188067444876197,0.2746623941404778
1539731779576608,1.1902037079423735,-0.5188067444876197,0.3967345693140487
1539731779592608,1.3122758831159445,-0.45777065690094787,0.5798428320745188
1539731779608608,1.3122758831159445,-0.3967345693140487,0.8850232700083325
1539731779624609,1.1902037079423735,-0.33569848172737693,0.9460593575952316
1539731779640609,1.1291676203554744,-0.3967345693140487,1.0070954451819034
1539731779656609,1.0070954451819034,-0.6408789196611906,1.1291676203554744
1539731779672609,0.7629510948347615,-0.7019150072480898,1.0681315327688026
1539731779688610,0.5188067444876197,-0.7019150072480898,1.0070954451819034
1539731779704610,0.2746623941404778,-0.7019150072480898,0.9460593575952316
1539731779720610,0.213626306553806,-0.6408789196611906,0.9460593575952316
1539731779736611,0.03051804379333589,-0.6408789196611906,0.8850232700083325
1539731779752611,-0.09155413138023505,-0.6408789196611906,0.8239871824216607
1539731779768611,-0.09155413138023505,-0.7019150072480898,0.7019150072480898
1539731779784611,-0.03051804379333589,-0.8239871824216607,0.5798428320745188
1539731779800612,0.03051804379333589,-1.0070954451819034,0.45777065690094787
1539731779816612,0.213626306553806,-1.1291676203554744,0.33569848172737693
1539731779832612,0.33569848172737693,-1.0070954451819034,0.213626306553806
1539731779848612,0.3967345693140487,-0.7629510948347615,0.213626306553806
1539731779864613,0.5188067444876197,-0.33569848172737693,0.213626306553806
1539731779880615,0.6408789196611906,-0.09155413138023505,0.2746623941404778
1539731779896615,0.7629510948347615,-0.2746623941404778,0.33569848172737693
1539731779912615,1.1291676203554744,-0.3967345693140487,0.3967345693140487
1539731779928616,1.3733119707026162,-0.45777065690094787,0.5798428320745188
1539731779944616,1.4953841458761872,-0.5798428320745188,0.7629510948347615
1539731779960616,1.5564202334630863,-0.5188067444876197,0.8850232700083325
1539731779976616,1.3733119707026162,-0.3967345693140487,0.9460593575952316
1539731779992617,1.1291676203554744,-0.5798428320745188,0.9460593575952316
1539731780008617,0.8850232700083325,-0.8850232700083325,0.8850232700083325
1539731780024617,0.8239871824216607,-1.1902037079423735,0.6408789196611906
1539731780040618,0.7629510948347615,-1.4343480582895154,0.6408789196611906
1539731780056618,0.6408789196611906,-1.6784924086366573,0.8239871824216607
1539731780072618,0.5188067444876197,-1.1291676203554744,0.9460593575952316
1539731780088618,0.45777065690094787,-0.2746623941404778,1.0070954451819034
1539731780104619,0.33569848172737693,-0.15259021896690683,0.9460593575952316
1539731780120619,0.33569848172737693,-0.15259021896690683,0.7629510948347615
1539731780136619,0.3967345693140487,-0.3967345693140487,0.5798428320745188
1539731780152619,0.45777065690094787,-0.7019150072480898,0.5188067444876197
1539731780168620,0.45777065690094787,-0.7629510948347615,0.45777065690094787
1539731780184620,0.3967345693140487,-0.6408789196611906,0.3967345693140487
1539731780200622,0.33569848172737693,-0.6408789196611906,0.5188067444876197
1539731780216622,0.5188067444876197,-0.7629510948347615,0.6408789196611906
1539731780232623,0.6408789196611906,-0.7629510948347615,0.8850232700083325
1539731780248623,0.7629510948347615,-0.7019150072480898,1.0070954451819034
1539731780264623,0.7019150072480898,-0.7629510948347615,0.9460593575952316
1539731780280624,0.5188067444876197,-0.7019150072480898,0.8239871824216607
1539731780296624,0.33569848172737693,-0.7019150072480898,0.6408789196611906
1539731780312624,0.15259021896690683,-0.6408789196611906,0.5798428320745188
1539731780328624,0.09155413138023505,-0.45777065690094787,0.5188067444876197
1539731780344625,0.03051804379333589,-0.3967345693140487,0.5798428320745188
1539731780360625,0.15259021896690683,-0.7019150072480898,0.5798428320745188
1539731780376625,0.2746623941404778,-1.1291676203554744,0.5188067444876197
1539731780392625,0.5798428320745188,-1.1291676203554744,0.5798428320745188
1539731780408626,0.7019150072480898,-0.8239871824216607,0.7019150072480898
1539731780424626,0.7629510948347615,-0.3967345693140487,0.6408789196611906
1539731780440626,0.9460593575952316,-0.09155413138023505,0.5188067444876197
1539731780456627,1.1291676203554744,-0.15259021896690683,0.33569848172737693
1539731780472627,1.3733119707026162,-0.2746623941404778,0.03051804379333589
1539731780488627,1.6174563210497581,-0.2746623941404778,-0.09155413138023505
1539731780504627,1.739528496223329,-0.33569848172737693,-0.09155413138023505
1539731780520630,1.6784924086366573,-0.2746623941404778,0.15259021896690683
1539731780536630,1.5564202334630863,-0.2746623941404778,0.3967345693140487
1539731780552630,1.5564202334630863,-0.3967345693140487,0.7019150072480898
1539731780568630,1.4953841458761872,-0.6408789196611906,0.7629510948347615
1539731780584631,1.4953841458761872,-0.8239871824216607,0.6408789196611906
1539731780600631,1.1902037079423735,-1.0070954451819034,0.5188067444876197
1539731780616631,1.1291676203554744,-1.0681315327688026,0.2746623941404778
1539731780632631,1.0681315327688026,-1.0070954451819034,0.15259021896690683
1539731780648632,1.0681315327688026,-0.8239871824216607,0.03051804379333589
1539731780664632,1.0681315327688026,-0.3967345693140487,0.03051804379333589
1539731780680632,1.0681315327688026,-0.2746623941404778,-0.15259021896690683
1539731780696632,1.0070954451819034,-0.15259021896690683,-0.2746623941404778
1539731780712633,1.0681315327688026,-0.213626306553806,-0.45777065690094787
1539731780728633,1.1291676203554744,-0.2746623941404778,-0.3967345693140487
1539731780744633,1.1291676203554744,-0.33569848172737693,-0.213626306553806
1539731780760634,1.0070954451819034,-0.5188067444876197,0.15259021896690683
1539731780776634,0.9460593575952316,-0.7019150072480898,0.45777065690094787
1539731780792634,0.8239871824216607,-0.7629510948347615,0.8239871824216607
1539731780808634,0.7019150072480898,-0.7629510948347615,1.0070954451819034
1539731780824635,0.5188067444876197,-0.7019150072480898,1.2512397955290453
1539731780840637,0.45777065690094787,-0.5798428320745188,1.3733119707026162
1539731780856637,0.45777065690094787,-0.5188067444876197,1.4343480582895154
1539731780872637,0.5188067444876197,-0.5798428320745188,1.3733119707026162
1539731780888638,0.6408789196611906,-0.6408789196611906,1.3122758831159445
1539731780904638,0.7019150072480898,-0.5188067444876197,1.2512397955290453
1539731780920638,0.7019150072480898,-0.3967345693140487,1.1902037079423735
1539731780936638,0.6408789196611906,-0.09155413138023505,1.1291676203554744
1539731780952639,0.5188067444876197,-0.09155413138023505,1.0070954451819034
1539731780968639,0.5188067444876197,-0.213626306553806,0.9460593575952316
1539731780984639,0.5188067444876197,-0.33569848172737693,0.8239871824216607
1539731781000640,0.45777065690094787,-0.5798428320745188,0.6408789196611906
1539731781016640,0.3967345693140487,-0.6408789196611906,0.5798428320745188
1539731781032640,0.33569848172737693,-0.5798428320745188,0.5798428320745188
1539731781048640,0.2746623941404778,-0.5798428320745188,0.5798428320745188
1539731781064641,0.3967345693140487,-0.5798428320745188,0.6408789196611906
1539731781080641,0.5798428320745188,-0.6408789196611906,0.6408789196611906
1539731781096641,0.7019150072480898,-0.6408789196611906,0.5798428320745188
1539731781112641,0.8850232700083325,-0.5798428320745188,0.5188067444876197
1539731781128642,1.0070954451819034,-0.33569848172737693,0.5188067444876197
1539731781144642,1.0070954451819034,-0.15259021896690683,0.45777065690094787
1539731781160644,0.8850232700083325,-0.09155413138023505,0.2746623941404778
1539731781176644,0.8850232700083325,-0.213626306553806,0.213626306553806
1539731781192645,0.8239871824216607,-0.5188067444876197,0.15259021896690683
1539731781208645,0.7629510948347615,-0.8239871824216607,0.213626306553806
1539731781224645,0.7019150072480898,-1.0681315327688026,0.2746623941404778
1539731781240646,0.7629510948347615,-1.0681315327688026,0.33569848172737693
1539731781256646,0.7629510948347615,-1.0070954451819034,0.45777065690094787
1539731781272646,0.8850232700083325,-0.8239871824216607,0.5188067444876197
1539731781288646,0.8850232700083325,-0.6408789196611906,0.7019150072480898
1539731781304647,1.0681315327688026,-0.5798428320745188,0.7629510948347615
1539731781320647,1.1291676203554744,-0.6408789196611906,0.8850232700083325
1539731781336647,1.1902037079423735,-0.6408789196611906,0.9460593575952316
1539731781352647,1.2512397955290453,-0.5188067444876197,1.0070954451819034
1539731781368648,1.0681315327688026,-0.45777065690094787,1.0681315327688026
1539731781384648,0.8850232700083325,-0.5188067444876197,1.1902037079423735
1539731781400648,0.8239871824216607,-0.6408789196611906,1.0681315327688026
1539731781416648,0.7019150072480898,-0.8239871824216607,1.0070954451819034
1539731781432649,0.6408789196611906,-1.0070954451819034,0.9460593575952316
1539731781448649,0.5188067444876197,-1.0070954451819034,0.7629510948347615
1539731781464649,0.45777065690094787,-0.8239871824216607,0.6408789196611906
1539731781480651,0.45777065690094787,-0.7629510948347615,0.5188067444876197
1539731781496652,0.3967345693140487,-0.7019150072480898,0.45777065690094787
1539731781512652,0.3967345693140487,-0.5188067444876197,0.33569848172737693
1539731781528652,0.45777065690094787,-0.3967345693140487,0.2746623941404778
1539731781544653,0.6408789196611906,-0.33569848172737693,0.15259021896690683
1539731781560653,0.6408789196611906,-0.2746623941404778,0.09155413138023505
1539731781576653,0.6408789196611906,-0.33569848172737693,0.03051804379333589
1539731781592653,0.5798428320745188,-0.45777065690094787,0.15259021896690683
1539731781608654,0.5188067444876197,-0.7629510948347615,0.213626306553806
1539731781624654,0.5188067444876197,-0.9460593575952316,0.3967345693140487
1539731781640654,0.7019150072480898,-0.9460593575952316,0.5188067444876197
1539731781656654,0.8850232700083325,-0.8239871824216607,0.5798428320745188
1539731781672655,0.9460593575952316,-0.5188067444876197,0.6408789196611906
1539731781688655,1.0681315327688026,-0.2746623941404778,0.7629510948347615
1539731781704655,1.0681315327688026,-0.213626306553806,0.8850232700083325
1539731781720656,1.0681315327688026,-0.213626306553806,0.8239871824216607
1539731781736656,1.0681315327688026,-0.33569848172737693,0.6408789196611906
1539731781752656,1.0681315327688026,-0.6408789196611906,0.5188067444876197
1539731781768656,1.1291676203554744,-1.0070954451819034,0.5188067444876197
1539731781784657,1.0681315327688026,-1.3122758831159445,0.5798428320745188
1539731781800659,1.0681315327688026,-1.4343480582895154,0.6408789196611906
1539731781816659,0.9460593575952316,-1.1902037079423735,0.8239871824216607
1539731781832659,0.8239871824216607,-0.8239871824216607,0.8850232700083325
1539731781848660,0.8239871824216607,-0.5798428320745188,1.0070954451819034
1539731781864660,0.7629510948347615,-0.6408789196611906,1.0070954451819034
1539731781880660,0.7629510948347615,-0.8850232700083325,0.8850232700083325
1539731781896660,0.8239871824216607,-0.7629510948347615,0.8239871824216607
1539731781912661,0.8239871824216607,-0.45777065690094787,0.7629510948347615
1539731781928661,0.8850232700083325,-0.15259021896690683,0.7019150072480898
1539731781944661,0.8239871824216607,-0.15259021896690683,0.7019150072480898
1539731781960662,0.8239871824216607,-0.3967345693140487,0.7019150072480898
1539731781976662,0.7629510948347615,-0.5188067444876197,0.7019150072480898
1539731781992662,0.6408789196611906,-0.6408789196611906,0.6408789196611906
1539731782008662,0.5798428320745188,-0.8850232700083325,0.7019150072480898
1539731782024663,0.45777065690094787,-1.0681315327688026,0.7629510948347615
1539731782040663,0.45777065690094787,-1.0070954451819034,0.7629510948347615
1539731782056663,0.2746623941404778,-0.7629510948347615,0.9460593575952316
1539731782072663,0.213626306553806,-0.5798428320745188,0.9460593575952316
1539731782088664,0.213626306553806,-0.3967345693140487,0.7629510948347615
1539731782104664,0.2746623941404778,-0.45777065690094787,0.6408789196611906
1539731782120666,0.5188067444876197,-0.6408789196611906,0.45777065690094787
1539731782136666,0.7019150072480898,-0.5798428320745188,0.3967345693140487
1539731782152667,0.7019150072480898,-0.15259021896690683,0.33569848172737693
1539731782168667,0.7019150072480898,0.03051804379333589,0.213626306553806
1539731782184667,0.8239871824216607,-0.03051804379333589,0.15259021896690683
1539731782200667,1.0681315327688026,-0.03051804379333589,0.09155413138023505
1539731782216668,1.2512397955290453,-0.213626306553806,0.2746623941404778
1539731782232668,1.2512397955290453,-0.33569848172737693,0.33569848172737693
1539731782248668,1.1902037079423735,-0.3967345693140487,0.5188067444876197
1539731782264669,1.0681315327688026,-0.3967345693140487,0.7629510948347615
1539731782280669,0.8850232700083325,-0.45777065690094787,0.8239871824216607
1539731782296669,0.7019150072480898,-0.5188067444876197,0.8850232700083325
1539731782312669,0.5798428320745188,-0.6408789196611906,0.8850232700083325
1539731782328670,0.3967345693140487,-0.7629510948347615,0.8239871824216607
1539731782344670,0.3967345693140487,-0.7629510948347615,0.7019150072480898
1539731782360670,0.3967345693140487,-0.7019150072480898,0.5798428320745188
1539731782376670,0.3967345693140487,-0.7019150072480898,0.5188067444876197
1539731782392671,0.45777065690094787,-0.7629510948347615,0.45777065690094787
1539731782408671,0.5188067444876197,-0.7629510948347615,0.5798428320745188
1539731782424671,0.5798428320745188,-0.9460593575952316,0.5798428320745188
1539731782440673,0.6408789196611906,-1.0681315327688026,0.5798428320745188
1539731782456674,0.7629510948347615,-1.0681315327688026,0.6408789196611906
1539731782472674,0.8850232700083325,-0.9460593575952316,0.7629510948347615
1539731782488674,1.0681315327688026,-0.7019150072480898,0.7629510948347615
1539731782504675,1.1902037079423735,-0.33569848172737693,0.8239871824216607
1539731782520675,1.1291676203554744,-0.2746623941404778,0.7629510948347615
1539731782536675,1.0070954451819034,-0.45777065690094787,0.7019150072480898
1539731782552675,1.0070954451819034,-0.6408789196611906,0.5188067444876197
1539731782568676,0.9460593575952316,-0.7629510948347615,0.45777065690094787
1539731782584676,0.9460593575952316,-0.7019150072480898,0.3967345693140487
1539731782600676,0.9460593575952316,-0.6408789196611906,0.33569848172737693
1539731782616676,0.8239871824216607,-0.6408789196611906,0.33569848172737693
1539731782632677,0.7019150072480898,-0.6408789196611906,0.3967345693140487
1539731782648677,0.6408789196611906,-0.7629510948347615,0.3967345693140487
1539731782664677,0.5798428320745188,-0.9460593575952316,0.45777065690094787
1539731782680678,0.5188067444876197,-0.9460593575952316,0.45777065690094787
1539731782696678,0.5798428320745188,-0.6408789196611906,0.45777065690094787
1539731782712678,0.5798428320745188,-0.5188067444876197,0.45777065690094787
1539731782728678,0.5798428320745188,-0.6408789196611906,0.3967345693140487
1539731782744679,0.7019150072480898,-0.6408789196611906,0.3967345693140487
1539731782760681,0.8850232700083325,-0.5798428320745188,0.5188067444876197
1539731782776681,1.0070954451819034,-0.5798428320745188,0.6408789196611906
1539731782792681,0.8850232700083325,-0.6408789196611906,0.7629510948347615
1539731782808682,0.8239871824216607,-0.45777065690094787,0.8239871824216607
1539731782824682,0.7629510948347615,-0.5188067444876197,0.8850232700083325
1539731782840682,0.5798428320745188,-0.45777065690094787,0.7629510948347615
1539731782856682,0.5188067444876197,-0.3967345693140487,0.5798428320745188
1539731782872683,0.5188067444876197,-0.8850232700083325,0.5798428320745188
1539731782888683,0.45777065690094787,-1.0681315327688026,0.5188067444876197
1539731782904683,0.3967345693140487,-0.9460593575952316,0.6408789196611906
1539731782920683,0.213626306553806,-0.9460593575952316,0.8239871824216607
1539731782936684,0.09155413138023505,-0.9460593575952316,1.0681315327688026
1539731782952684,0.15259021896690683,-0.8239871824216607,1.1291676203554744
1539731782968684,0.213626306553806,-0.7019150072480898,1.0681315327688026
1539731782984685,0.3967345693140487,-0.6408789196611906,1.0070954451819034
1539731783000685,0.5188067444876197,-0.7629510948347615,1.0070954451819034
1539731783016685,0.45777065690094787,-0.7019150072480898,0.9460593575952316
1539731783032685,0.45777065690094787,-0.7019150072480898,1.0681315327688026
1539731783048686,0.45777065690094787,-0.6408789196611906,1.0681315327688026
1539731783064686,0.45777065690094787,-0.6408789196611906,1.0070954451819034
1539731783080688,0.3967345693140487,-0.7019150072480898,0.8850232700083325
1539731783096688,0.3967345693140487,-0.7019150072480898,0.8239871824216607
1539731783112689,0.45777065690094787,-0.5188067444876197,0.7019150072480898
1539731783128689,0.5188067444876197,-0.3967345693140487,0.6408789196611906
1539731783144689,0.6408789196611906,-0.33569848172737693,0.6408789196611906
1539731783160689,0.7019150072480898,-0.213626306553806,0.7019150072480898
1539731783176690,0.8239871824216607,-0.213626306553806,0.7019150072480898
1539731783192690,1.0070954451819034,-0.2746623941404778,0.6408789196611906
1539731783208690,1.0070954451819034,-0.33569848172737693,0.45777065690094787
1539731783224691,1.0681315327688026,-0.33569848172737693,0.45777065690094787
1539731783240691,1.1291676203554744,-0.213626306553806,0.3967345693140487
1539731783256691,1.0681315327688026,-0.2746623941404778,0.33569848172737693
1539731783272691,1.0681315327688026,-0.5188067444876197,0.2746623941404778
1539731783288692,1.1902037079423735,-0.6408789196611906,0.33569848172737693
1539731783304692,1.3122758831159445,-0.5798428320745188,0.45777065690094787
1539731783320692,1.3733119707026162,-0.45777065690094787,0.5798428320745188
1539731783336692,1.2512397955290453,-0.33569848172737693,0.6408789196611906
1539731783352693,1.0681315327688026,-0.2746623941404778,0.6408789196611906
1539731783368693,0.8850232700083325,-0.33569848172737693,0.5798428320745188
1539731783384693,0.7629510948347615,-0.5188067444876197,0.3967345693140487
1539731783400726,0.7629510948347615,-0.7629510948347615,0.2746623941404778
1539731783416726,0.8239871824216607,-1.0070954451819034,0.213626306553806
1539731783432726,0.8850232700083325,-1.0070954451819034,0.2746623941404778
1539731783448727,0.8850232700083325,-0.8850232700083325,0.45777065690094787
1539731783464727,0.8239871824216607,-0.5798428320745188,0.7019150072480898
1539731783480727,0.7629510948347615,-0.33569848172737693,0.7019150072480898
1539731783496728,0.8239871824216607,-0.3967345693140487,0.7019150072480898
1539731783512728,0.8239871824216607,-0.5798428320745188,0.6408789196611906
1539731783528728,0.8239871824216607,-0.7019150072480898,0.5798428320745188
1539731783544728,0.8239871824216607,-0.8239871824216607,0.5188067444876197
1539731783560729,0.7629510948347615,-0.7629510948347615,0.5188067444876197
1539731783576729,0.8239871824216607,-0.5798428320745188,0.5798428320745188
1539731783592729,0.8239871824216607,-0.3967345693140487,0.6408789196611906
1539731783608729,0.8239871824216607,-0.33569848172737693,0.7629510948347615
1539731783624730,0.8239871824216607,-0.3967345693140487,0.7629510948347615
1539731783640730,0.8239871824216607,-0.5798428320745188,0.6408789196611906
1539731783656730,0.8239871824216607,-0.7019150072480898,0.5798428320745188
1539731783672731,0.7629510948347615,-0.8239871824216607,0.5188067444876197
1539731783688731,0.6408789196611906,-0.8850232700083325,0.5798428320745188
1539731783704731,0.7019150072480898,-0.7629510948347615,0.7019150072480898
1539731783720703,0.6408789196611906,-0.5798428320745188,0.7019150072480898
1539731783736703,0.6408789196611906,-0.5798428320745188,0.8239871824216607
1539731783752703,0.6408789196611906,-0.7019150072480898,0.7629510948347615
1539731783768704,0.6408789196611906,-0.8239871824216607,0.6408789196611906
1539731783784704,0.6408789196611906,-0.9460593575952316,0.5798428320745188
1539731783800704,0.6408789196611906,-1.0070954451819034,0.5188067444876197
1539731783816704,0.8239871824216607,-0.8239871824216607,0.5188067444876197
1539731783832705,1.0681315327688026,-0.5188067444876197,0.5188067444876197
1539731783848705,1.1291676203554744,-0.5188067444876197,0.5188067444876197
1539731783864705,1.1291676203554744,-0.3967345693140487,0.5188067444876197
1539731783880705,1.0070954451819034,-0.213626306553806,0.5188067444876197
1539731783896706,0.8850232700083325,-0.213626306553806,0.5188067444876197
1539731783912706,0.7629510948347615,-0.33569848172737693,0.45777065690094787
1539731783928706,0.6408789196611906,-0.5188067444876197,0.3967345693140487
1539731783944707,0.5798428320745188,-0.8239871824216607,0.33569848172737693
1539731783960707,0.5188067444876197,-0.8850232700083325,0.45777065690094787
1539731783976707,0.45777065690094787,-0.8850232700083325,0.6408789196611906
1539731783992707,0.33569848172737693,-0.8850232700083325,0.8239871824216607
1539731784008708,0.2746623941404778,-0.8850232700083325,0.9460593575952316
1539731784024708,0.3967345693140487,-0.7629510948347615,0.8850232700083325
1539731784040710,0.3967345693140487,-0.6408789196611906,0.7629510948347615
1539731784056710,0.5798428320745188,-0.5188067444876197,0.7629510948347615
1539731784072711,0.7629510948347615,-0.45777065690094787,0.7019150072480898
1539731784088711,0.8239871824216607,-0.45777065690094787,0.7629510948347615
1539731784104711,0.8239871824216607,-0.33569848172737693,0.9460593575952316
1539731784120711,0.8239871824216607,-0.33569848172737693,1.0070954451819034
1539731784136712,0.7629510948347615,-0.3967345693140487,1.0681315327688026
1539731784152712,0.7019150072480898,-0.6408789196611906,1.1291676203554744
1539731784168712,0.5798428320745188,-0.8239871824216607,1.0681315327688026
1539731784184713,0.45777065690094787,-0.8239871824216607,0.8850232700083325
1539731784200713,0.3967345693140487,-0.8850232700083325,0.7629510948347615
1539731784216713,0.2746623941404778,-0.7629510948347615,0.6408789196611906
1539731784232713,0.2746623941404778,-0.6408789196611906,0.45777065690094787
1539731784248714,0.15259021896690683,-0.5188067444876197,0.33569848172737693
1539731784264714,0.213626306553806,-0.5188067444876197,0.15259021896690683
1539731784280714,0.2746623941404778,-0.7019150072480898,0.09155413138023505
1539731784296714,0.3967345693140487,-0.8850232700083325,-0.03051804379333589
1539731784312715,0.3967345693140487,-1.0681315327688026,0.09155413138023505
1539731784328715,0.5188067444876197,-1.1291676203554744,0.15259021896690683
1539731784344715,0.5798428320745188,-1.1291676203554744,0.213626306553806
1539731784360717,0.6408789196611906,-1.0070954451819034,0.45777065690094787
1539731784376718,0.8239871824216607,-0.7019150072480898,0.6408789196611906
1539731784392718,1.1291676203554744,-0.3967345693140487,0.7629510948347615
1539731784408718,1.3122758831159445,-0.213626306553806,0.8239871824216607
1539731784424718,1.3733119707026162,-0.15259021896690683,0.7629510948347615
1539731784440719,1.3733119707026162,-0.09155413138023505,0.6408789196611906
1539731784456719,1.3733119707026162,-0.09155413138023505,0.5798428320745188
1539731784472719,1.2512397955290453,-0.33569848172737693,0.5188067444876197
1539731784488720,1.1291676203554744,-0.5798428320745188,0.3967345693140487
1539731784504720,1.0681315327688026,-0.7629510948347615,0.3967345693140487
1539731784520720,1.0070954451819034,-0.8850232700083325,0.45777065690094787
1539731784536720,0.8239871824216607,-0.8239871824216607,0.5798428320745188
1539731784552721,0.7019150072480898,-0.7629510948347615,0.7019150072480898
1539731784568721,0.5798428320745188,-0.7629510948347615,0.8850232700083325
1539731784584721,0.5798428320745188,-0.6408789196611906,0.9460593575952316
1539731784600721,0.6408789196611906,-0.45777065690094787,0.9460593575952316
1539731784616722,0.7019150072480898,-0.33569848172737693,0.9460593575952316
1539731784632722,0.7629510948347615,-0.3967345693140487,0.9460593575952316
1539731784648722,0.8850232700083325,-0.3967345693140487,0.8239871824216607
1539731784664723,0.9460593575952316,-0.2746623941404778,0.7019150072480898
1539731784680725,0.8850232700083325,-0.3967345693140487,0.7019150072480898
1539731784696725,0.8850232700083325,-0.45777065690094787,0.5798428320745188
1539731784712725,0.9460593575952316,-0.5798428320745188,0.3967345693140487
1539731784728726,0.8850232700083325,-0.7629510948347615,0.33569848172737693
1539731784744726,0.7629510948347615,-0.6408789196611906,0.213626306553806
1539731784760726,0.7019150072480898,-0.5798428320745188,0.213626306553806
1539731784776726,0.6408789196611906,-0.6408789196611906,0.2746623941404778
1539731784792727,0.6408789196611906,-0.5188067444876197,0.3967345693140487
1539731784808727,0.7629510948347615,-0.5188067444876197,0.45777065690094787
1539731784824727,0.8239871824216607,-0.5188067444876197,0.5188067444876197
1539731784840727,0.8239871824216607,-0.5798428320745188,0.6408789196611906
1539731784856728,0.8239871824216607,-0.5798428320745188,0.7019150072480898
1539731784872728,0.9460593575952316,-0.6408789196611906,0.6408789196611906
1539731784888728,0.8850232700083325,-0.6408789196611906,0.5798428320745188
1539731784904729,0.8239871824216607,-0.7629510948347615,0.45777065690094787
1539731784920729,0.8850232700083325,-0.9460593575952316,0.33569848172737693
1539731784936729,0.8850232700083325,-1.0070954451819034,0.213626306553806
1539731784952729,1.0070954451819034,-0.9460593575952316,0.15259021896690683
1539731784968730,1.2512397955290453,-0.7629510948347615,0.213626306553806
1539731784984730,1.4953841458761872,-0.5188067444876197,0.213626306553806
1539731785000732,1.6784924086366573,-0.2746623941404778,0.33569848172737693
1539731785016732,1.6784924086366573,0.03051804379333589,0.5188067444876197
1539731785032733,1.5564202334630863,-0.03051804379333589,0.7629510948347615
1539731785048733,1.1902037079423735,-0.09155413138023505,0.8850232700083325
1539731785064733,0.8239871824216607,-0.45777065690094787,1.0070954451819034
1539731785080733,0.45777065690094787,-0.8850232700083325,1.1291676203554744
1539731785096734,0.15259021896690683,-1.1902037079423735,1.2512397955290453
1539731785112734,-0.09155413138023505,-1.2512397955290453,1.2512397955290453
1539731785128734,-0.3967345693140487,-1.1291676203554744,1.1902037079423735
1539731785144734,-0.45777065690094787,-1.0681315327688026,1.0681315327688026
1539731785160735,-0.3967345693140487,-1.0070954451819034,0.8850232700083325
1539731785176735,-0.213626306553806,-0.9460593575952316,0.6408789196611906
1539731785192735,0.03051804379333589,-0.8850232700083325,0.33569848172737693
1539731785208736,0.3967345693140487,-0.7019150072480898,0.15259021896690683
1539731785224736,0.8239871824216607,-0.5798428320745188,0.09155413138023505
1539731785240736,1.1902037079423735,-0.2746623941404778,0.213626306553806
1539731785256736,1.4953841458761872,-0.03051804379333589,0.3967345693140487
1539731785272737,1.5564202334630863,0.213626306553806,0.6408789196611906
1539731785288737,1.4953841458761872,0.15259021896690683,0.7629510948347615
1539731785304737,1.3122758831159445,-0.15259021896690683,0.8239871824216607
1539731785320770,1.0070954451819034,-0.5798428320745188,0.7629510948347615
1539731785336770,0.9460593575952316,-0.8239871824216607,0.7019150072480898
1539731785352770,1.0070954451819034,-0.8850232700083325,0.7019150072480898
1539731785368771,0.9460593575952316,-0.7629510948347615,0.7629510948347615
1539731785384771,0.7629510948347615,-0.7019150072480898,0.7019150072480898
1539731785400771,0.7629510948347615,-0.8239871824216607,0.7019150072480898
1539731785416772,0.8850232700083325,-0.8850232700083325,0.6408789196611906
1539731785432772,1.1291676203554744,-0.8850232700083325,0.6408789196611906
1539731785448772,1.3122758831159445,-0.7019150072480898,0.5188067444876197
1539731785464772,1.3733119707026162,-0.5798428320745188,0.3967345693140487
1539731785480773,1.3733119707026162,-0.45777065690094787,0.213626306553806
1539731785496773,1.3122758831159445,-0.2746623941404778,0.09155413138023505
1539731785512773,1.3733119707026162,-0.03051804379333589,-0.03051804379333589
1539731785528773,1.3733119707026162,0.09155413138023505,-0.03051804379333589
1539731785544774,1.2512397955290453,0.03051804379333589,0.03051804379333589
1539731785560774,1.0681315327688026,-0.03051804379333589,0.09155413138023505
1539731785576774,0.8239871824216607,-0.213626306553806,0.213626306553806
1539731785592774,0.5188067444876197,-0.6408789196611906,0.3967345693140487
1539731785608775,0.33569848172737693,-1.0070954451819034,0.5798428320745188
1539731785624775,0.2746623941404778,-1.1291676203554744,0.8850232700083325
1539731785640777,0.2746623941404778,-1.2512397955290453,1.1291676203554744
1539731785656777,0.15259021896690683,-1.3122758831159445,1.2512397955290453
1539731785672778,0.3967345693140487,-0.9460593575952316,1.3733119707026162
1539731785688778,0.45777065690094787,-0.6408789196611906,1.4343480582895154
1539731785704778,0.45777065690094787,-0.33569848172737693,1.2512397955290453
1539731785720779,0.5798428320745188,0.213626306553806,0.9460593575952316
1539731785736779,0.5188067444876197,0.33569848172737693,0.5798428320745188
1539731785752779,0.33569848172737693,0.15259021896690683,0.2746623941404778
1539731785768779,0.2746623941404778,-0.2746623941404778,0.09155413138023505
1539731785784780,0.213626306553806,-0.8239871824216607,0.09155413138023505
1539731785800780,0.213626306553806,-1.4953841458761872,0.213626306553806
1539731785816780,0.15259021896690683,-1.739528496223329,0.3967345693140487
1539731785832780,0.213626306553806,-1.6784924086366573,0.5798428320745188
1539731785848781,0.2746623941404778,-1.3733119707026162,0.7629510948347615
1539731785864781,0.5188067444876197,-1.0070954451819034,0.8239871824216607
1539731785880781,0.8239871824216607,-0.5188067444876197,0.9460593575952316
1539731785896782,1.1902037079423735,-0.09155413138023505,0.8850232700083325
1539731785912782,1.3122758831159445,0.213626306553806,0.7019150072480898
1539731785928782,1.4343480582895154,0.213626306553806,0.5188067444876197
1539731785944782,1.4953841458761872,0.09155413138023505,0.33569848172737693
1539731785960754,1.6174563210497581,-0.15259021896690683,0.2746623941404778
1539731785976754,1.5564202334630863,-0.5798428320745188,0.2746623941404778
1539731785992755,1.4343480582895154,-0.9460593575952316,0.2746623941404778
1539731786008755,1.2512397955290453,-1.1902037079423735,0.3967345693140487
1539731786024755,1.1902037079423735,-1.3122758831159445,0.5798428320745188
1539731786040755,1.0681315327688026,-1.0681315327688026,0.7019150072480898
1539731786056756,0.9460593575952316,-0.7629510948347615,0.9460593575952316
1539731786072756,0.8850232700083325,-0.45777065690094787,1.1291676203554744
1539731786088756,0.8239871824216607,-0.15259021896690683,1.1291676203554744
1539731786104756,0.8850232700083325,0.03051804379333589,1.0070954451819034
1539731786120757,0.7629510948347615,-0.15259021896690683,0.7629510948347615
1539731786136757,0.7019150072480898,-0.45777065690094787,0.5798428320745188
1539731786152757,0.7019150072480898,-0.7019150072480898,0.45777065690094787
1539731786168758,0.3967345693140487,-0.9460593575952316,0.3967345693140487
1539731786184758,0.2746623941404778,-1.0070954451819034,0.33569848172737693
1539731786200758,0.09155413138023505,-1.0070954451819034,0.3967345693140487
1539731786216758,-0.03051804379333589,-1.1902037079423735,0.3967345693140487
1539731786232759,-0.09155413138023505,-1.0681315327688026,0.45777065690094787
1539731786248759,-0.09155413138023505,-0.8239871824216607,0.5188067444876197
1539731786264759,-0.03051804379333589,-0.6408789196611906,0.5798428320745188
1539731786280761,0.09155413138023505,-0.45777065690094787,0.7629510948347615
1539731786296762,0.2746623941404778,-0.3967345693140487,0.8239871824216607
1539731786312762,0.5798428320745188,-0.3967345693140487,0.8239871824216607
1539731786328762,0.7629510948347615,-0.45777065690094787,0.8239871824216607
1539731786344762,0.9460593575952316,-0.45777065690094787,0.7019150072480898
1539731786360763,1.0681315327688026,-0.3967345693140487,0.7629510948347615
1539731786376763,1.0681315327688026,-0.3967345693140487,0.6408789196611906
1539731786392763,1.0681315327688026,-0.2746623941404778,0.45777065690094787
1539731786408764,0.9460593575952316,-0.5188067444876197,0.5798428320745188
1539731786424764,0.8850232700083325,-0.7019150072480898,0.6408789196611906
1539731786440764,0.8850232700083325,-0.7629510948347615,0.7629510948347615
1539731786456764,0.8239871824216607,-0.8239871824216607,0.8850232700083325
1539731786472765,0.7629510948347615,-0.7019150072480898,1.0681315327688026
1539731786488765,0.6408789196611906,-0.6408789196611906,1.1291676203554744
1539731786504765,0.7019150072480898,-0.7019150072480898,1.0070954451819034
1539731786520765,0.8239871824216607,-0.7019150072480898,0.8239871824216607
1539731786536766,1.0070954451819034,-0.5798428320745188,0.7629510948347615
1539731786552766,1.1902037079423735,-0.45777065690094787,0.6408789196611906
1539731786568766,1.1902037079423735,-0.2746623941404778,0.5188067444876197
1539731786584766,1.1291676203554744,-0.15259021896690683,0.3967345693140487
1539731786600769,1.0070954451819034,-0.09155413138023505,0.33569848172737693
1539731786616769,0.8239871824216607,-0.213626306553806,0.33569848172737693
1539731786632769,0.6408789196611906,-0.45777065690094787,0.33569848172737693
1539731786648769,0.45777065690094787,-0.8239871824216607,0.33569848172737693
1539731786664770,0.3967345693140487,-1.1291676203554744,0.3967345693140487
1539731786680770,0.33569848172737693,-1.0681315327688026,0.45777065690094787
1539731786696770,0.3967345693140487,-0.8850232700083325,0.45777065690094787
1539731786712771,0.3967345693140487,-0.6408789196611906,0.5188067444876197
1539731786728771,0.45777065690094787,-0.45777065690094787,0.5188067444876197
1539731786744771,0.5798428320745188,-0.2746623941404778,0.3967345693140487
1539731786760771,0.7629510948347615,-0.213626306553806,0.2746623941404778
1539731786776772,0.9460593575952316,-0.2746623941404778,0.213626306553806
1539731786792772,0.9460593575952316,-0.5188067444876197,0.213626306553806
1539731786808772,0.8850232700083325,-0.7019150072480898,0.3967345693140487
1539731786824772,0.8850232700083325,-0.5798428320745188,0.6408789196611906
1539731786840773,0.8239871824216607,-0.213626306553806,0.9460593575952316
1539731786856773,0.7019150072480898,-0.09155413138023505,1.1902037079423735
1539731786872773,0.6408789196611906,-0.15259021896690683,1.3733119707026162
1539731786888774,0.5798428320745188,-0.15259021896690683,1.4953841458761872
1539731786904774,0.5188067444876197,-0.09155413138023505,1.4953841458761872
1539731786920776,0.6408789196611906,-0.33569848172737693,1.4953841458761872
1539731786936776,0.8850232700083325,-0.8239871824216607,1.3122758831159445
1539731786952777,1.1291676203554744,-1.4343480582895154,1.1902037079423735
1539731786968777,1.6174563210497581,-1.6784924086366573,1.1902037079423735
1539731786984777,1.9226367589837992,-1.0681315327688026,1.1291676203554744
1539731787000777,1.739528496223329,-0.15259021896690683,0.8239871824216607
1539731787016778,1.3122758831159445,0.33569848172737693,0.3967345693140487
1539731787032778,0.8850232700083325,0.15259021896690683,-0.09155413138023505
1539731787048778,0.6408789196611906,-0.2746623941404778,-0.5188067444876197
1539731787064778,0.5798428320745188,-0.45777065690094787,-0.7629510948347615
1539731787080779,0.5188067444876197,-0.5798428320745188,-0.7019150072480898
1539731787096779,0.33569848172737693,-0.45777065690094787,-0.5188067444876197
1539731787112779,0.213626306553806,-0.3967345693140487,-0.33569848172737693
1539731787128780,0.213626306553806,-0.2746623941404778,0.03051804379333589
1539731787144780,0.33569848172737693,-0.33569848172737693,0.213626306553806
1539731787160780,0.3967345693140487,-0.8239871824216607,0.2746623941404778
1539731787176780,0.3967345693140487,-1.3122758831159445,0.15259021896690683
1539731787192781,0.5188067444876197,-1.6174563210497581,0.09155413138023505
1539731787208781,0.7019150072480898,-1.739528496223329,0.15259021896690683
1539731787224781,0.8239871824216607,-1.1902037079423735,0.45777065690094787
1539731787240814,0.9460593575952316,-0.3967345693140487,0.7629510948347615
1539731787256814,1.0681315327688026,0.2746623941404778,1.0681315327688026
1539731787272814,1.1902037079423735,0.7019150072480898,1.1902037079423735
1539731787288815,1.3122758831159445,0.6408789196611906,1.1902037079423735
1539731787304815,1.3122758831159445,0.09155413138023505,0.9460593575952316
1539731787320815,1.2512397955290453,-0.45777065690094787,0.8239871824216607
1539731787336815,1.1291676203554744,-0.7019150072480898,0.8850232700083325
1539731787352816,0.8850232700083325,-0.7019150072480898,1.0070954451819034
1539731787368816,0.8239871824216607,-0.5188067444876197,1.1902037079423735
1539731787384816,0.7629510948347615,-0.5798428320745188,1.1902037079423735
1539731787400817,0.8850232700083325,-0.7019150072480898,1.1902037079423735
1539731787416817,0.9460593575952316,-0.7019150072480898,1.0681315327688026
1539731787432817,0.8850232700083325,-0.8239871824216607,1.0070954451819034
1539731787448817,0.8239871824216607,-0.8239871824216607,0.8850232700083325
1539731787464818,0.7019150072480898,-0.7629510948347615,0.7019150072480898
1539731787480818,0.7629510948347615,-0.5798428320745188,0.45777065690094787
1539731787496818,0.8239871824216607,-0.45777065690094787,0.213626306553806
1539731787512818,0.7629510948347615,-0.45777065690094787,-0.03051804379333589
1539731787528819,0.6408789196611906,-0.6408789196611906,-0.15259021896690683
1539731787544819,0.5798428320745188,-0.9460593575952316,-0.15259021896690683
1539731787560821,0.6408789196611906,-1.0681315327688026,-0.15259021896690683
1539731787576821,0.7629510948347615,-0.8850232700083325,-0.09155413138023505
1539731787592822,0.8239871824216607,-0.7629510948347615,0.03051804379333589
1539731787608822,0.8850232700083325,-0.6408789196611906,0.213626306553806
1539731787624822,0.8850232700083325,-0.2746623941404778,0.2746623941404778
1539731787640823,0.8850232700083325,-0.03051804379333589,0.3967345693140487
1539731787656823,0.8239871824216607,-0.213626306553806,0.33569848172737693
1539731787672823,0.9460593575952316,-0.5188067444876197,0.33569848172737693
1539731787688823,1.0070954451819034,-1.0070954451819034,0.45777065690094787
1539731787704824,0.9460593575952316,-1.3733119707026162,0.7019150072480898
1539731787720824,0.8239871824216607,-1.3733119707026162,1.0681315327688026
1539731787736824,0.5798428320745188,-0.9460593575952316,1.4343480582895154
1539731787752824,0.15259021896690683,-0.5188067444876197,1.6784924086366573
1539731787768825,-0.09155413138023505,-0.2746623941404778,1.8005645838102282
1539731787784825,0.03051804379333589,-0.5188067444876197,1.8005645838102282
1539731787800825,0.2746623941404778,-0.5188067444876197,1.5564202334630863
1539731787816825,0.5188067444876197,-0.33569848172737693,1.1291676203554744
1539731787832826,0.5188067444876197,-0.2746623941404778,0.8850232700083325
1539731787848826,0.5798428320745188,-0.33569848172737693,0.7629510948347615
1539731787864826,0.7629510948347615,-0.213626306553806,0.6408789196611906
1539731787880798,1.1902037079423735,-0.213626306553806,0.5798428320745188
1539731787896798,1.6174563210497581,-0.3967345693140487,0.5798428320745188
1539731787912799,1.739528496223329,-0.8850232700083325,0.3967345693140487
1539731787928799,1.3733119707026162,-1.3733119707026162,0.33569848172737693
1539731787944799,0.8850232700083325,-1.4343480582895154,0.2746623941404778
1539731787960799,0.5188067444876197,-1.0681315327688026,0.3967345693140487
1539731787976800,0.3967345693140487,-0.6408789196611906,0.5188067444876197
1539731787992800,0.45777065690094787,-0.3967345693140487,0.45777065690094787
1539731788008800,0.5188067444876197,-0.3967345693140487,0.213626306553806
1539731788024800,0.5798428320745188,-0.6408789196611906,-0.15259021896690683
1539731788040801,0.7019150072480898,-0.7019150072480898,-0.3967345693140487
1539731788056801,0.9460593575952316,-0.45777065690094787,-0.5188067444876197
1539731788072801,1.1902037079423735,-0.213626306553806,-0.45777065690094787
1539731788088801,1.3122758831159445,-0.213626306553806,-0.45777065690094787
1539731788104802,1.4343480582895154,-0.2746623941404778,-0.33569848172737693
1539731788120802,1.3733119707026162,-0.5798428320745188,-0.15259021896690683
1539731788136802,1.3733119707026162,-0.8239871824216607,0.3967345693140487
1539731788152803,1.4953841458761872,-0.8239871824216607,1.0681315327688026
1539731788168803,1.4343480582895154,-0.7019150072480898,1.739528496223329
1539731788184803,1.1902037079423735,-0.5188067444876197,2.3498893720911838
1539731788200805,0.9460593575952316,-0.5188067444876197,2.7161058976118966
1539731788216806,0.7629510948347615,-0.7019150072480898,2.7161058976118966
1539731788232806,0.6408789196611906,-0.9460593575952316,2.410925459678083
1539731788248806,0.45777065690094787,-1.1291676203554744,1.8616006713969
1539731788264806,0.2746623941404778,-1.1291676203554744,1.3733119707026162
1539731788280807,0.09155413138023505,-1.1291676203554744,0.9460593575952316
1539731788296807,0.03051804379333589,-1.0070954451819034,0.5188067444876197
1539731788312807,0.03051804379333589,-0.8239871824216607,0.33569848172737693
1539731788328807,0.03051804379333589,-0.7629510948347615,0.3967345693140487
1539731788344808,-0.03051804379333589,-0.6408789196611906,0.33569848172737693
1539731788360808,-0.03051804379333589,-0.7019150072480898,0.3967345693140487
1539731788376808,0.03051804379333589,-0.7629510948347615,0.5188067444876197
1539731788392809,0.213626306553806,-0.7019150072480898,0.45777065690094787
1539731788408809,0.2746623941404778,-0.7019150072480898,0.5798428320745188
1539731788424809,0.33569848172737693,-0.5188067444876197,0.5798428320745188
1539731788440809,0.33569848172737693,-0.6408789196611906,0.7019150072480898
1539731788456810,0.3967345693140487,-0.7019150072480898,0.6408789196611906
1539731788472810,0.5798428320745188,-0.8239871824216607,0.7019150072480898
1539731788488810,0.7629510948347615,-0.8850232700083325,0.5798428320745188
1539731788504810,1.0070954451819034,-0.8850232700083325,0.45777065690094787
1539731788520813,1.1291676203554744,-0.7629510948347615,0.3967345693140487
1539731788536813,1.1902037079423735,-0.6408789196611906,0.3967345693140487
1539731788552813,1.1902037079423735,-0.5798428320745188,0.5188067444876197
1539731788568813,1.1291676203554744,-0.33569848172737693,0.45777065690094787
1539731788584814,1.1902037079423735,-0.2746623941404778,0.45777065690094787
1539731788600814,1.2512397955290453,-0.213626306553806,0.3967345693140487
1539731788616814,1.2512397955290453,-0.15259021896690683,0.3967345693140487
1539731788632815,1.2512397955290453,-0.2746623941404778,0.45777065690094787
1539731788648815,1.1902037079423735,-0.33569848172737693,0.5188067444876197
1539731788664815,1.0070954451819034,-0.5188067444876197,0.5798428320745188
1539731788680815,0.9460593575952316,-0.7629510948347615,0.7019150072480898
1539731788696816,1.0070954451819034,-0.7019150072480898,0.8239871824216607
1539731788712816,0.8850232700083325,-0.7629510948347615,0.8850232700083325
1539731788728816,0.7629510948347615,-0.7629510948347615,0.9460593575952316
1539731788744816,0.5798428320745188,-0.7019150072480898,1.0681315327688026
1539731788760817,0.2746623941404778,-0.6408789196611906,1.0070954451819034
1539731788776817,0.15259021896690683,-0.45777065690094787,0.8850232700083325
1539731788792817,0.09155413138023505,-0.33569848172737693,0.6408789196611906
1539731788808817,0.09155413138023505,-0.2746623941404778,0.45777065690094787
1539731788824818,0.09155413138023505,-0.3967345693140487,0.33569848172737693
1539731788840850,0.09155413138023505,-0.45777065690094787,0.2746623941404778
1539731788856851,0.213626306553806,-0.6408789196611906,0.33569848172737693
1539731788872851,0.2746623941404778,-0.7019150072480898,0.3967345693140487
1539731788888851,0.33569848172737693,-0.6408789196611906,0.45777065690094787
1539731788904852,0.3967345693140487,-0.6408789196611906,0.5188067444876197
1539731788920852,0.5188067444876197,-0.6408789196611906,0.5798428320745188
1539731788936852,0.7019150072480898,-0.7019150072480898,0.7019150072480898
1539731788952852,0.8850232700083325,-0.5188067444876197,0.7629510948347615
1539731788968853,0.9460593575952316,-0.33569848172737693,0.8850232700083325
1539731788984853,1.0681315327688026,-0.213626306553806,0.9460593575952316
1539731789000853,1.1291676203554744,-0.213626306553806,1.0681315327688026
1539731789016853,1.1902037079423735,-0.33569848172737693,1.0681315327688026
1539731789032854,1.2512397955290453,-0.5188067444876197,1.0070954451819034
1539731789048854,1.1902037079423735,-0.6408789196611906,0.8850232700083325
1539731789064854,1.2512397955290453,-0.8850232700083325,0.7019150072480898
1539731789080855,1.3122758831159445,-0.8850232700083325,0.5798428320745188
1539731789096855,1.2512397955290453,-0.9460593575952316,0.5188067444876197
1539731789112855,1.1902037079423735,-0.7629510948347615,0.5188067444876197
1539731789128855,1.1291676203554744,-0.5798428320745188,0.5188067444876197
1539731789144856,1.0681315327688026,-0.45777065690094787,0.5188067444876197
1539731789160858,1.0070954451819034,-0.5798428320745188,0.45777065690094787
1539731789176858,0.9460593575952316,-0.5188067444876197,0.3967345693140487
1539731789192858,0.8239871824216607,-0.6408789196611906,0.2746623941404778
1539731789208859,0.7019150072480898,-0.7019150072480898,0.33569848172737693
1539731789224859,0.7019150072480898,-0.7629510948347615,0.33569848172737693
1539731789240859,0.7629510948347615,-0.7019150072480898,0.33569848172737693
1539731789256859,0.7629510948347615,-0.7019150072480898,0.45777065690094787
1539731789272860,0.7019150072480898,-0.6408789196611906,0.5188067444876197
1539731789288860,0.6408789196611906,-0.5188067444876197,0.5798428320745188
1539731789304860,0.45777065690094787,-0.45777065690094787,0.5798428320745188
1539731789320860,0.33569848172737693,-0.33569848172737693,0.5188067444876197
1539731789336861,0.33569848172737693,-0.33569848172737693,0.5798428320745188
1539731789352861,0.3967345693140487,-0.3967345693140487,0.5798428320745188
1539731789368861,0.6408789196611906,-0.5188067444876197,0.7629510948347615
1539731789384862,0.8850232700083325,-0.7019150072480898,0.9460593575952316
1539731789400862,1.0070954451819034,-0.7019150072480898,1.1902037079423735
1539731789416862,1.0681315327688026,-0.5188067444876197,1.2512397955290453
1539731789432862,0.8239871824216607,-0.6408789196611906,1.1902037079423735
1539731789448863,0.6408789196611906,-1.1291676203554744,0.9460593575952316
1539731789464863,0.6408789196611906,-1.6174563210497581,0.7019150072480898
1539731789480865,1.0681315327688026,-1.8005645838102282,0.5188067444876197
1539731789496865,1.3733119707026162,-1.3122758831159445,0.3967345693140487
1539731789512866,1.4343480582895154,-0.5798428320745188,0.2746623941404778
1539731789528866,1.2512397955290453,0.03051804379333589,0.15259021896690683
1539731789544866,1.0681315327688026,0.45777065690094787,-0.03051804379333589
1539731789560866,0.9460593575952316,0.3967345693140487,-0.2746623941404778
1539731789576867,1.0681315327688026,0.213626306553806,-0.3967345693140487
1539731789592867,1.0681315327688026,-0.03051804379333589,-0.5188067444876197
1539731789608867,0.8239871824216607,-0.33569848172737693,-0.3967345693140487
1539731789624868,0.6408789196611906,-0.5798428320745188,-0.09155413138023505
1539731789640868,0.45777065690094787,-0.7019150072480898,0.45777065690094787
1539731789656868,0.45777065690094787,-0.3967345693140487,1.0070954451819034
1539731789672868,0.33569848172737693,-0.15259021896690683,1.4953841458761872
1539731789688869,0.213626306553806,-0.213626306553806,1.739528496223329
1539731789704869,0.15259021896690683,-0.45777065690094787,1.6784924086366573
1539731789720869,0.09155413138023505,-1.0681315327688026,1.5564202334630863
1539731789736869,0.15259021896690683,-1.4343480582895154,1.5564202334630863
1539731789752870,0.3967345693140487,-1.4343480582895154,1.6174563210497581
1539731789768870,0.5798428320745188,-1.1291676203554744,1.6174563210497581
1539731789784870,0.5798428320745188,-0.8850232700083325,1.6174563210497581
1539731789800872,0.45777065690094787,-0.8239871824216607,1.4343480582895154
1539731789816873,0.3967345693140487,-0.8850232700083325,1.0070954451819034
1539731789832873,0.2746623941404778,-1.0070954451819034,0.5188067444876197
1539731789848873,0.09155413138023505,-1.0681315327688026,-0.09155413138023505
1539731789864874,0.09155413138023505,-0.8850232700083325,-0.5188067444876197
1539731789880874,0.09155413138023505,-0.7629510948347615,-0.8850232700083325
1539731789896874,0.2746623941404778,-0.45777065690094787,-0.8850232700083325
1539731789912874,0.3967345693140487,-0.2746623941404778,-0.7629510948347615
1539731789928875,0.3967345693140487,-0.15259021896690683,-0.5188067444876197
1539731789944875,0.5798428320745188,-0.15259021896690683,-0.2746623941404778
1539731789960875,0.7019150072480898,-0.2746623941404778,-0.09155413138023505
1539731789976875,1.1291676203554744,-0.5188067444876197,0.15259021896690683
1539731789992876,1.4953841458761872,-0.7019150072480898,0.45777065690094787
1539731790008876,1.8005645838102282,-0.5798428320745188,0.8239871824216607
1539731790024876,1.8616006713969,-0.45777065690094787,1.3122758831159445
1539731790040876,1.9226367589837992,-0.09155413138023505,1.739528496223329
1539731790056877,1.8616006713969,0.09155413138023505,1.9226367589837992
1539731790072877,1.739528496223329,-0.15259021896690683,1.9226367589837992
1539731790088877,1.6174563210497581,-0.6408789196611906,1.6784924086366573
1539731790104878,1.4343480582895154,-1.1291676203554744,1.3733119707026162
1539731790120849,1.1902037079423735,-1.5564202334630863,1.0681315327688026
1539731790136850,1.0070954451819034,-1.6174563210497581,0.8239871824216607
1539731790152850,0.8850232700083325,-1.3122758831159445,0.6408789196611906
1539731790168850,0.7629510948347615,-0.7629510948347615,0.45777065690094787
1539731790184850,0.7019150072480898,-0.213626306553806,0.2746623941404778
1539731790200851,0.5798428320745188,0.15259021896690683,0.03051804379333589
1539731790216851,0.5188067444876197,0.15259021896690683,-0.213626306553806
1539731790232851,0.3967345693140487,-0.03051804379333589,-0.3967345693140487
1539731790248851,0.5188067444876197,-0.45777065690094787,-0.45777065690094787
1539731790264852,0.5188067444876197,-0.8239871824216607,-0.33569848172737693
1539731790280852,0.5798428320745188,-1.0681315327688026,-0.03051804379333589
1539731790296852,0.5798428320745188,-1.2512397955290453,0.45777065690094787
1539731790312852,0.5188067444876197,-1.2512397955290453,0.8239871824216607
1539731790328853,0.45777065690094787,-1.0070954451819034,1.0681315327688026
1539731790344853,0.33569848172737693,-0.7629510948347615,0.9460593575952316
1539731790360853,0.2746623941404778,-0.6408789196611906,0.7629510948347615
1539731790376854,0.45777065690094787,-0.6408789196611906,0.5188067444876197
1539731790392854,0.6408789196611906,-0.3967345693140487,0.3967345693140487
1539731790408854,0.7629510948347615,-0.15259021896690683,0.45777065690094787
1539731790424854,0.8239871824216607,-0.03051804379333589,0.5798428320745188
1539731790440857,0.8239871824216607,-0.3967345693140487,0.7019150072480898
1539731790456857,0.8850232700083325,-0.8239871824216607,0.8239871824216607
1539731790472857,1.1291676203554744,-1.0681315327688026,1.0070954451819034
1539731790488857,1.3733119707026162,-1.1291676203554744,1.0681315327688026
1539731790504858,1.4343480582895154,-1.0070954451819034,1.0681315327688026
1539731790520858,1.4953841458761872,-0.8850232700083325,1.1291676203554744
1539731790536858,1.4953841458761872,-0.8850232700083325,1.3122758831159445
1539731790552858,1.3733119707026162,-0.5188067444876197,1.3122758831159445
1539731790568859,1.1902037079423735,-0.33569848172737693,1.1902037079423735
1539731790584859,1.0070954451819034,-0.7629510948347615,0.9460593575952316
1539731790600859,0.8850232700083325,-1.1291676203554744,0.6408789196611906
1539731790616860,0.7629510948347615,-1.1902037079423735,0.33569848172737693
1539731790632860,0.5188067444876197,-0.9460593575952316,0.15259021896690683
1539731790648860,0.213626306553806,-0.5798428320745188,0.15259021896690683
1539731790664860,-0.03051804379333589,-0.3967345693140487,0.15259021896690683
1539731790680861,-0.33569848172737693,-0.7629510948347615,0.213626306553806
1539731790696861,-0.5188067444876197,-0.7629510948347615,0.09155413138023505
1539731790712861,-0.5798428320745188,-0.8239871824216607,0.09155413138023505
1539731790728861,-0.6408789196611906,-1.0681315327688026,0.15259021896690683
1539731790744862,-0.5188067444876197,-1.0681315327688026,0.15259021896690683
1539731790760894,-0.3967345693140487,-0.8850232700083325,0.15259021896690683
1539731790776895,-0.09155413138023505,-0.8239871824216607,0.2746623941404778
1539731790792895,0.213626306553806,-0.8239871824216607,0.3967345693140487
1539731790808895,0.6408789196611906,-0.7629510948347615,0.5188067444876197
1539731790824895,1.0681315327688026,-0.6408789196611906,0.7629510948347615
1539731790840896,1.3733119707026162,-0.3967345693140487,0.8850232700083325
1539731790856896,1.4953841458761872,-0.03051804379333589,0.9460593575952316
1539731790872896,1.6174563210497581,0.15259021896690683,0.8850232700083325
1539731790888897,1.6174563210497581,0.09155413138023505,0.7629510948347615
1539731790904897,1.5564202334630863,-0.15259021896690683,0.6408789196611906
1539731790920897,1.5564202334630863,-0.5188067444876197,0.6408789196611906
1539731790936897,1.4343480582895154,-0.7019150072480898,0.7019150072480898
1539731790952898,1.3733119707026162,-0.7629510948347615,0.9460593575952316
1539731790968898,1.3733119707026162,-0.5798428320745188,1.1902037079423735
1539731790984898,1.4343480582895154,-0.3967345693140487,1.3122758831159445
1539731791000898,1.3122758831159445,-0.33569848172737693,1.1902037079423735
1539731791016899,1.1902037079423735,-0.3967345693140487,1.0070954451819034
1539731791032899,1.1291676203554744,-0.45777065690094787,0.8239871824216607
1539731791048899,1.0070954451819034,-0.5798428320745188,0.7629510948347615
1539731791064900,1.0070954451819034,-0.6408789196611906,0.6408789196611906
1539731791080902,0.8239871824216607,-0.6408789196611906,0.5798428320745188
1539731791096902,0.7629510948347615,-0.6408789196611906,0.5188067444876197
1539731791112902,0.5188067444876197,-0.7019150072480898,0.3967345693140487
1539731791128903,0.33569848172737693,-0.7629510948347615,0.213626306553806
1539731791144903,0.15259021896690683,-0.7629510948347615,0.15259021896690683
1539731791160903,0.03051804379333589,-0.8239871824216607,-0.03051804379333589
1539731791176903,-0.03051804379333589,-0.9460593575952316,-0.15259021896690683
1539731791192904,-0.03051804379333589,-0.9460593575952316,-0.09155413138023505
1539731791208904,0.09155413138023505,-0.8850232700083325,0.03051804379333589
1539731791224904,0.213626306553806,-0.6408789196611906,0.213626306553806
1539731791240904,0.33569848172737693,-0.3967345693140487,0.45777065690094787
1539731791256905,0.45777065690094787,-0.213626306553806,0.7019150072480898
1539731791272905,0.5798428320745188,-0.213626306553806,0.8239871824216607
1539731791288905,0.5798428320745188,-0.3967345693140487,0.8850232700083325
1539731791304906,0.7629510948347615,-0.7019150072480898,0.9460593575952316
1539731791320906,0.7629510948347615,-0.9460593575952316,1.0681315327688026
1539731791336906,0.7629510948347615,-1.0070954451819034,1.2512397955290453
1539731791352906,0.8239871824216607,-0.8850232700083325,1.3122758831159445
1539731791368907,0.8239871824216607,-0.5798428320745188,1.4343480582895154
1539731791384907,0.6408789196611906,-0.03051804379333589,1.5564202334630863
1539731791400909,-3.3875028610666504,-9.246967269398056,2.166781109330941
1539731791416909,3.997863736934505,2.8381780727854675,-0.15259021896690683
1539731791432910,4.180971999694748,9.613183794918768,-0.45777065690094787
1539731791448910,-0.5188067444876197,-4.303044174868319,1.6784924086366573
1539731791464910,0.15259021896690683,-4.974441138323073,1.6784924086366573
1539731791480910,2.3498893720911838,1.739528496223329,0.7629510948347615
1539731791496911,1.1902037079423735,-0.45777065690094787,0.7019150072480898
1539731791512911,0.5798428320745188,-2.5940337224383256,-0.5188067444876197
1539731791528911,0.45777065690094787,-4.119935912108076,-0.7629510948347615
1539731791544911,0.213626306553806,-3.0212863355459376,-0.5798428320745188
1539731791560912,0.5798428320745188,1.6784924086366573,-0.5798428320745188
1539731791576912,-0.213626306553806,1.8005645838102282,0.2746623941404778
1539731791592912,-0.7019150072480898,-0.5188067444876197,0.09155413138023505
1539731791608913,0.15259021896690683,0.03051804379333589,-1.0070954451819034
1539731791624913,0.9460593575952316,0.8850232700083325,-0.3967345693140487
1539731791640913,0.9460593575952316,1.0070954451819034,1.1291676203554744
1539731791656913,0.6408789196611906,0.6408789196611906,1.3733119707026162
1539731791672914,0.2746623941404778,-1.6174563210497581,0.5798428320745188
1539731791688914,0.5188067444876197,-3.2654306858930795,0.15259021896690683
1539731791704914,1.1291676203554744,-2.4719615472647547,0.7629510948347615
1539731791720916,1.2512397955290453,-1.0070954451819034,1.6784924086366573
1539731791736917,0.8239871824216607,-0.7019150072480898,1.983672846570471
1539731791752917,0.5188067444876197,-0.5798428320745188,1.8005645838102282
1539731791768917,0.7019150072480898,0.15259021896690683,1.739528496223329
1539731791784917,1.0070954451819034,0.8850232700083325,1.8616006713969
1539731791800918,1.0681315327688026,0.9460593575952316,1.739528496223329
1539731791816918,0.9460593575952316,0.3967345693140487,1.1291676203554744
1539731791832918,1.0070954451819034,-0.33569848172737693,0.5188067444876197
1539731791848919,1.1291676203554744,-1.1902037079423735,0.213626306553806
1539731791864919,1.1902037079423735,-1.8005645838102282,0.15259021896690683
1539731791880919,1.1291676203554744,-1.5564202334630863,0.15259021896690683
1539731791896919,0.9460593575952316,-0.9460593575952316,0.213626306553806
1539731791912920,0.6408789196611906,-0.6408789196611906,0.2746623941404778
1539731791928920,0.2746623941404778,-1.2512397955290453,0.2746623941404778
1539731791944920,0.5188067444876197,-0.6408789196611906,0.03051804379333589
1539731791960920,0.7629510948347615,-0.213626306553806,0.09155413138023505
1539731791976921,0.7629510948347615,0.03051804379333589,0.2746623941404778
1539731791992921,0.5188067444876197,0.2746623941404778,0.213626306553806
1539731792008921,0.33569848172737693,0.03051804379333589,0.213626306553806
1539731792024922,0.3967345693140487,-0.45777065690094787,0.15259021896690683
1539731792040893,0.7019150072480898,-0.8850232700083325,0.15259021896690683
1539731792056893,0.8239871824216607,-1.3733119707026162,0.09155413138023505
1539731792072894,0.7629510948347615,-1.8616006713969,0.2746623941404778
1539731792088894,0.7629510948347615,-1.6174563210497581,0.45777065690094787
1539731792104894,0.9460593575952316,-0.7629510948347615,0.7629510948347615
1539731792120895,1.0681315327688026,-0.213626306553806,1.1902037079423735
1539731792136895,0.9460593575952316,0.15259021896690683,1.4953841458761872
1539731792152895,0.8239871824216607,0.3967345693140487,1.3733119707026162
1539731792168895,0.6408789196611906,0.2746623941404778,1.1291676203554744
1539731792184896,0.5798428320745188,-0.213626306553806,0.8239871824216607
1539731792200896,0.6408789196611906,-0.6408789196611906,0.5798428320745188
1539731792216896,0.7019150072480898,-0.9460593575952316,0.5188067444876197
1539731792232896,0.8239871824216607,-1.0681315327688026,0.5188067444876197
1539731792248897,0.7629510948347615,-0.9460593575952316,0.5798428320745188
1539731792264897,0.7019150072480898,-0.7019150072480898,0.5798428320745188
1539731792280897,0.7019150072480898,-0.5188067444876197,0.6408789196611906
1539731792296898,0.7019150072480898,-0.3967345693140487,0.5798428320745188
1539731792312898,0.8239871824216607,-0.15259021896690683,0.5188067444876197
1539731792328898,0.8850232700083325,-0.09155413138023505,0.5798428320745188
1539731792344898,0.9460593575952316,-0.09155413138023505,0.6408789196611906
1539731792360931,0.9460593575952316,-0.15259021896690683,0.7019150072480898
1539731792376931,0.8850232700083325,-0.2746623941404778,0.8239871824216607
1539731792392932,0.8239871824216607,-0.3967345693140487,0.8239871824216607
1539731792408932,0.8239871824216607,-0.6408789196611906,0.8239871824216607
1539731792424932,0.9460593575952316,-0.7629510948347615,0.6408789196611906
1539731792440932,0.9460593575952316,-0.9460593575952316,0.5798428320745188
1539731792456933,1.0070954451819034,-0.7019150072480898,0.5188067444876197
1539731792472933,0.6408789196611906,-1.0070954451819034,0.5798428320745188
1539731792488933,0.5188067444876197,-1.2512397955290453,0.5798428320745188
1539731792504933,0.7629510948347615,-0.15259021896690683,0.45777065690094787
1539731792520934,0.8850232700083325,0.45777065690094787,0.45777065690094787
1539731792536934,0.8850232700083325,0.5188067444876197,0.45777065690094787
1539731792552934,0.7629510948347615,0.5188067444876197,0.2746623941404778
1539731792568935,0.5188067444876197,-0.09155413138023505,0.213626306553806
1539731792584935,0.5188067444876197,-0.6408789196611906,0.2746623941404778
1539731792600935,0.5798428320745188,-1.0070954451819034,0.45777065690094787
1539731792616935,0.45777065690094787,-1.6174563210497581,0.7019150072480898
1539731792632936,0.213626306553806,-1.983672846570471,0.8850232700083325
1539731792648936,0.33569848172737693,-1.6784924086366573,0.9460593575952316
1539731792664936,0.45777065690094787,-1.3122758831159445,1.0070954451819034
1539731792680938,0.5188067444876197,-1.1902037079423735,1.0070954451819034
1539731792696939,0.5188067444876197,-0.8239871824216607,0.9460593575952316
1539731792712939,0.6408789196611906,-0.33569848172737693,0.7019150072480898
1539731792728939,0.7629510948347615,-0.09155413138023505,0.5188067444876197
1539731792744939,0.9460593575952316,-0.213626306553806,0.3967345693140487
1539731792760940,1.2512397955290453,-0.5188067444876197,0.2746623941404778
1539731792776940,1.4953841458761872,-0.8239871824216607,0.2746623941404778
1539731792792940,1.4953841458761872,-0.7629510948347615,0.33569848172737693
1539731792808941,1.3733119707026162,-0.7019150072480898,0.5188067444876197
1539731792824941,1.2512397955290453,-0.5188067444876197,0.5798428320745188
1539731792840941,1.1291676203554744,-0.45777065690094787,0.45777065690094787
1539731792856941,0.9460593575952316,-0.5798428320745188,0.2746623941404778
1539731792872942,0.8239871824216607,-0.7019150072480898,0.213626306553806
1539731792888942,0.6408789196611906,-0.5798428320745188,0.33569848172737693
1539731792904942,0.6408789196611906,-0.03051804379333589,0.3967345693140487
1539731792920942,0.6408789196611906,0.213626306553806,0.5188067444876197
1539731792936943,0.33569848172737693,-0.45777065690094787,0.6408789196611906
1539731792952943,0.15259021896690683,-1.2512397955290453,0.7629510948347615
1539731792968943,0.2746623941404778,-1.4953841458761872,0.7629510948347615
1539731792984943,0.3967345693140487,-1.6174563210497581,0.8850232700083325
1539731793000946,0.5188067444876197,-1.3122758831159445,0.9460593575952316
1539731793016946,0.5798428320745188,-0.8239871824216607,0.9460593575952316
1539731793032946,0.6408789196611906,-0.6408789196611906,0.9460593575952316
1539731793048946,0.6408789196611906,-0.45777065690094787,1.0681315327688026
1539731793064947,0.7629510948347615,0.15259021896690683,1.1902037079423735
1539731793080947,0.8239871824216607,0.15259021896690683,1.1291676203554744
1539731793096947,0.6408789196611906,-0.7019150072480898,1.0070954451819034
1539731793112948,0.7019150072480898,-0.7629510948347615,0.6408789196611906
1539731793128948,0.8850232700083325,-0.5798428320745188,0.3967345693140487
1539731793144948,0.8850232700083325,-1.0681315327688026,0.45777065690094787
1539731793160948,0.9460593575952316,-1.1291676203554744,0.3967345693140487
1539731793176949,1.1291676203554744,-0.8850232700083325,0.2746623941404778
1539731793192949,1.3733119707026162,-0.9460593575952316,0.2746623941404778
1539731793208949,1.6174563210497581,-0.7019150072480898,0.5188067444876197
1539731793224949,1.8616006713969,0.03051804379333589,0.7019150072480898
1539731793240950,1.739528496223329,0.5188067444876197,0.7629510948347615
1539731793256950,1.3122758831159445,0.09155413138023505,0.7019150072480898
1539731793272950,0.9460593575952316,-0.7019150072480898,0.5798428320745188
1539731793288951,0.7629510948347615,-1.3733119707026162,0.5188067444876197
1539731793304951,0.8850232700083325,-1.4953841458761872,0.5188067444876197
1539731793320953,0.9460593575952316,-1.0681315327688026,0.5798428320745188
1539731793336953,0.9460593575952316,-0.33569848172737693,0.5798428320745188
1539731793352954,0.7629510948347615,0.15259021896690683,0.5798428320745188
1539731793368954,0.45777065690094787,0.2746623941404778,0.6408789196611906
1539731793384954,0.213626306553806,-0.03051804379333589,0.7629510948347615
1539731793400954,0.15259021896690683,-0.5798428320745188,0.7019150072480898
1539731793416955,0.213626306553806,-0.9460593575952316,0.6408789196611906
1539731793432955,0.33569848172737693,-1.1902037079423735,0.6408789196611906
1539731793448955,0.33569848172737693,-1.1902037079423735,0.5798428320745188
1539731793464955,0.213626306553806,-0.8239871824216607,0.6408789196611906
1539731793480956,0.03051804379333589,-0.5188067444876197,0.8850232700083325
1539731793496956,-0.09155413138023505,-0.3967345693140487,0.9460593575952316
1539731793512956,-0.03051804379333589,-0.45777065690094787,0.8239871824216607
1539731793528957,0.09155413138023505,-0.8239871824216607,0.5188067444876197
1539731793544957,0.15259021896690683,-1.2512397955290453,0.3967345693140487
1539731793560957,0.33569848172737693,-1.1291676203554744,0.33569848172737693
1539731793576957,0.45777065690094787,-0.5798428320745188,0.33569848172737693
1539731793592958,0.5798428320745188,-0.09155413138023505,0.33569848172737693
1539731793608958,0.7019150072480898,-0.03051804379333589,0.3967345693140487
1539731793624958,0.8850232700083325,-0.33569848172737693,0.45777065690094787
1539731793640960,0.9460593575952316,-0.8239871824216607,0.3967345693140487
1539731793656961,1.1291676203554744,-1.2512397955290453,0.3967345693140487
1539731793672961,1.3122758831159445,-1.0681315327688026,0.6408789196611906
1539731793688961,1.3733119707026162,-0.6408789196611906,0.8850232700083325
1539731793704961,1.3733119707026162,-0.33569848172737693,1.0681315327688026
1539731793720962,1.4343480582895154,-0.2746623941404778,1.0070954451819034
1539731793736962,1.3122758831159445,-0.3967345693140487,1.0070954451819034
1539731793752962,1.3733119707026162,-0.6408789196611906,1.0070954451819034
1539731793768962,1.4343480582895154,-0.8850232700083325,0.8850232700083325
1539731793784963,1.3733119707026162,-0.8850232700083325,0.8239871824216607
1539731793800963,1.2512397955290453,-0.8239871824216607,0.7019150072480898
1539731793816963,1.1291676203554744,-0.6408789196611906,0.5188067444876197
1539731793832964,0.9460593575952316,-0.45777065690094787,0.5188067444876197
1539731793848964,0.8239871824216607,-0.45777065690094787,0.33569848172737693
1539731793864964,0.6408789196611906,-0.6408789196611906,0.33569848172737693
1539731793880964,0.5798428320745188,-0.7019150072480898,0.2746623941404778
1539731793896965,0.3967345693140487,-0.9460593575952316,0.2746623941404778
1539731793912965,0.213626306553806,-1.2512397955290453,0.33569848172737693
1539731793928965,0.213626306553806,-1.1291676203554744,0.5188067444876197
1539731793944965,0.213626306553806,-1.1291676203554744,0.7019150072480898
1539731793960968,0.09155413138023505,-1.2512397955290453,0.8239871824216607
1539731793976968,0.03051804379333589,-1.1902037079423735,0.7019150072480898
1539731793992968,0.15259021896690683,-0.7019150072480898,0.45777065690094787
1539731794008968,0.2746623941404778,-0.2746623941404778,0.213626306553806
1539731794024969,0.3967345693140487,-0.03051804379333589,0.03051804379333589
1539731794040969,0.7019150072480898,-0.09155413138023505,0.09155413138023505
1539731794056969,0.9460593575952316,-0.33569848172737693,0.2746623941404778
1539731794072970,1.0681315327688026,-0.45777065690094787,0.7019150072480898
1539731794088970,1.1291676203554744,-0.7019150072480898,1.0681315327688026
1539731794104970,1.0681315327688026,-0.8239871824216607,1.3122758831159445
1539731794120970,1.0070954451819034,-0.8239871824216607,1.3733119707026162
1539731794136971,0.8850232700083325,-0.8239871824216607,1.3733119707026162
1539731794152971,0.7019150072480898,-1.0070954451819034,1.1291676203554744
1539731794168971,0.5798428320745188,-1.2512397955290453,0.8239871824216607
1539731794184971,0.5188067444876197,-1.1902037079423735,0.5798428320745188
1539731794200972,0.45777065690094787,-1.0070954451819034,0.5188067444876197
1539731794216972,0.6408789196611906,-0.5798428320745188,0.3967345693140487
1539731794232972,0.8239871824216607,-0.213626306553806,0.2746623941404778
1539731794248973,0.8850232700083325,0.09155413138023505,0.03051804379333589
1539731794264973,0.8850232700083325,-0.03051804379333589,-0.15259021896690683
1539731794280975,1.0681315327688026,-0.3967345693140487,-0.213626306553806
1539731794296975,1.2512397955290453,-0.6408789196611906,-0.15259021896690683
1539731794312976,1.3122758831159445,-0.7629510948347615,0.09155413138023505
1539731794328976,1.1902037079423735,-0.7629510948347615,0.5188067444876197
1539731794344976,1.1902037079423735,-0.5798428320745188,0.8850232700083325
1539731794360976,1.0681315327688026,-0.2746623941404778,1.1291676203554744
1539731794376977,0.9460593575952316,-0.15259021896690683,1.2512397955290453
1539731794392977,0.8239871824216607,-0.213626306553806,1.3122758831159445
1539731794408977,0.8239871824216607,-0.5798428320745188,1.3122758831159445
1539731794424977,0.8850232700083325,-0.7629510948347615,1.1291676203554744
1539731794440978,1.0070954451819034,-0.7629510948347615,1.0070954451819034
1539731794456978,1.0681315327688026,-0.5188067444876197,1.0681315327688026
1539731794472978,1.1902037079423735,-0.09155413138023505,1.1291676203554744
1539731794488978,1.1291676203554744,0.15259021896690683,0.9460593575952316
1539731794504979,1.0681315327688026,0.09155413138023505,0.8239871824216607
1539731794520979,0.8850232700083325,-0.213626306553806,0.6408789196611906
1539731794536979,0.7629510948347615,-0.8239871824216607,0.5188067444876197
1539731794552980,0.6408789196611906,-1.2512397955290453,0.45777065690094787
1539731794568980,0.5188067444876197,-1.1902037079423735,0.45777065690094787
1539731794584980,0.33569848172737693,-0.8850232700083325,0.5188067444876197
1539731794600982,0.213626306553806,-0.7019150072480898,0.45777065690094787
1539731794616983,0.09155413138023505,-0.7019150072480898,0.2746623941404778
1539731794632983,0.09155413138023505,-0.6408789196611906,0.15259021896690683
1539731794648983,0.03051804379333589,-0.7629510948347615,0.03051804379333589
1539731794664983,0.09155413138023505,-0.8850232700083325,-0.15259021896690683
1539731794680984,0.213626306553806,-1.0070954451819034,-0.2746623941404778
1539731794696984,0.45777065690094787,-1.0070954451819034,-0.2746623941404778
1539731794712984,0.5188067444876197,-0.8850232700083325,-0.09155413138023505
1539731794728984,0.6408789196611906,-0.3967345693140487,0.09155413138023505
1539731794744985,0.6408789196611906,-0.15259021896690683,0.3967345693140487
1539731794760985,0.6408789196611906,-0.33569848172737693,0.6408789196611906
1539731794776985,0.8239871824216607,-0.3967345693140487,0.6408789196611906
1539731794792986,0.8850232700083325,-0.5188067444876197,0.6408789196611906
1539731794808986,0.9460593575952316,-0.5798428320745188,0.8850232700083325
1539731794824986,1.0070954451819034,-0.45777065690094787,1.0681315327688026
1539731794840986,0.9460593575952316,-0.33569848172737693,1.3122758831159445
1539731794856987,1.0070954451819034,-0.3967345693140487,1.5564202334630863
1539731794872987,1.0070954451819034,-0.2746623941404778,1.6174563210497581
1539731794888987,1.0681315327688026,-0.15259021896690683,1.6174563210497581
1539731794904987,1.1291676203554744,-0.09155413138023505,1.4343480582895154
1539731794920990,1.0070954451819034,-0.15259021896690683,1.3122758831159445
1539731794936990,1.0070954451819034,-0.09155413138023505,1.1291676203554744
1539731794952990,1.0070954451819034,0.03051804379333589,1.1291676203554744
1539731794968990,0.9460593575952316,-0.03051804379333589,1.1291676203554744
1539731794984991,0.8850232700083325,-0.33569848172737693,0.9460593575952316
1539731795000991,0.7629510948347615,-0.5188067444876197,0.8239871824216607
1539731795016991,0.8239871824216607,-0.5798428320745188,0.5798428320745188
1539731795032992,0.7629510948347615,-0.5798428320745188,0.33569848172737693
1539731795048992,0.6408789196611906,-0.6408789196611906,0.09155413138023505
1539731795064992,0.5798428320745188,-0.7019150072480898,-0.15259021896690683
1539731795080992,0.5188067444876197,-0.7629510948347615,-0.213626306553806
1539731795096993,0.3967345693140487,-0.7629510948347615,-0.2746623941404778
1539731795112993,0.3967345693140487,-0.8239871824216607,-0.213626306553806
1539731795128993,0.3967345693140487,-0.9460593575952316,-0.15259021896690683
1539731795144993,0.3967345693140487,-1.0070954451819034,-0.03051804379333589
1539731795160994,0.45777065690094787,-1.0681315327688026,0.09155413138023505
1539731795176994,0.5188067444876197,-1.0070954451819034,0.2746623941404778
1539731795192994,0.45777065690094787,-0.9460593575952316,0.45777065690094787
1539731795208994,0.7019150072480898,-0.7629510948347615,0.7019150072480898
1539731795224995,0.7629510948347615,-0.5798428320745188,0.8239871824216607
1539731795240997,0.7629510948347615,-0.5798428320745188,1.0681315327688026
1539731795256997,0.8850232700083325,-0.5188067444876197,1.1902037079423735
1539731795272997,1.0070954451819034,-0.3967345693140487,1.2512397955290453
1539731795288998,1.0681315327688026,-0.45777065690094787,1.3733119707026162
1539731795304998,1.1291676203554744,-0.6408789196611906,1.4343480582895154
1539731795320998,1.2512397955290453,-0.8239871824216607,1.3733119707026162
1539731795336999,1.3122758831159445,-0.8850232700083325,1.3733119707026162
1539731795352999,1.3733119707026162,-0.7629510948347615,1.4343480582895154
1539731795368999,1.2512397955290453,-0.45777065690094787,1.3122758831159445
1539731795384999,1.0070954451819034,-0.3967345693140487,1.1291676203554744
1539731795401000,0.7019150072480898,-0.5798428320745188,0.7629510948347615
1539731795417000,0.7019150072480898,-0.6408789196611906,0.3967345693140487
1539731795433000,0.6408789196611906,-0.6408789196611906,0.03051804379333589
1539731795449000,0.6408789196611906,-0.45777065690094787,-0.15259021896690683
1539731795465001,0.45777065690094787,-0.3967345693140487,-0.2746623941404778
1539731795481001,0.33569848172737693,-0.3967345693140487,-0.33569848172737693
1539731795497001,0.33569848172737693,-0.45777065690094787,-0.2746623941404778
1539731795513002,0.3967345693140487,-0.5188067444876197,-0.15259021896690683
1539731795529002,0.3967345693140487,-0.6408789196611906,-0.03051804379333589
1539731795545002,0.5188067444876197,-0.7629510948347615,0.15259021896690683
1539731795561004,0.5798428320745188,-0.8850232700083325,0.33569848172737693
1539731795577005,0.7019150072480898,-0.8850232700083325,0.7019150072480898
1539731795593005,0.7019150072480898,-0.7629510948347615,1.0681315327688026
1539731795609005,0.5798428320745188,-0.6408789196611906,1.3733119707026162
1539731795625005,0.6408789196611906,-0.6408789196611906,1.4953841458761872
1539731795641006,0.7019150072480898,-0.7629510948347615,1.4343480582895154
1539731795657006,0.8239871824216607,-0.7629510948347615,1.3733119707026162
1539731795673006,1.0070954451819034,-0.6408789196611906,1.3122758831159445
1539731795689006,1.0070954451819034,-0.5188067444876197,1.1291676203554744
1539731795705007,0.9460593575952316,-0.45777065690094787,0.9460593575952316
1539731795721007,1.0070954451819034,-0.15259021896690683,0.7629510948347615
1539731795737007,1.1902037079423735,0.03051804379333589,0.6408789196611906
1539731795753008,1.1902037079423735,-0.09155413138023505,0.5188067444876197
1539731795769008,1.0681315327688026,-0.33569848172737693,0.45777065690094787
1539731795785008,0.8850232700083325,-0.5798428320745188,0.33569848172737693
1539731795801008,0.7019150072480898,-0.8850232700083325,0.33569848172737693
1539731795817009,0.6408789196611906,-1.2512397955290453,0.33569848172737693
1539731795833009,0.6408789196611906,-1.3122758831159445,0.3967345693140487
1539731795849009,0.6408789196611906,-1.4343480582895154,0.5188067444876197
1539731795865009,0.5188067444876197,-1.3733119707026162,0.5188067444876197
1539731795881012,0.5188067444876197,-0.7629510948347615,0.33569848172737693
1539731795897012,0.5798428320745188,-0.2746623941404778,0.15259021896690683
1539731795913012,0.6408789196611906,-0.03051804379333589,0.03051804379333589
1539731795929012,0.8239871824216607,0.03051804379333589,0.03051804379333589
1539731795945013,0.8850232700083325,-0.03051804379333589,0.03051804379333589
1539731795961013,1.0681315327688026,-0.33569848172737693,0.213626306553806
1539731795977013,1.0681315327688026,-0.6408789196611906,0.3967345693140487
1539731795993013,1.0681315327688026,-0.7019150072480898,0.6408789196611906
1539731796009014,0.8850232700083325,-0.5188067444876197,0.9460593575952316
1539731796025014,0.7019150072480898,-0.5798428320745188,1.1902037079423735
1539731796041014,0.45777065690094787,-0.7019150072480898,1.1902037079423735
1539731796057015,0.3967345693140487,-0.8850232700083325,1.1902037079423735
1539731796073015,0.3967345693140487,-1.0070954451819034,1.1291676203554744
1539731796089015,0.3967345693140487,-0.8239871824216607,1.1291676203554744
1539731796105015,0.45777065690094787,-0.45777065690094787,1.1902037079423735
1539731796121016,0.33569848172737693,-0.09155413138023505,1.0681315327688026
1539731796137016,0.3967345693140487,-0.09155413138023505,0.8239871824216607
1539731796153016,0.45777065690094787,-0.3967345693140487,0.5188067444876197
1539731796169016,0.7019150072480898,-0.6408789196611906,0.33569848172737693
1539731796185017,0.8239871824216607,-0.7629510948347615,0.2746623941404778
1539731796201019,0.9460593575952316,-0.8239871824216607,0.33569848172737693
1539731796217019,0.9460593575952316,-0.6408789196611906,0.3967345693140487
1539731796233019,0.8850232700083325,-0.33569848172737693,0.5798428320745188
1539731796249020,0.8239871824216607,-0.2746623941404778,0.7019150072480898
1539731796265020,0.8239871824216607,-0.2746623941404778,0.7629510948347615
1539731796281020,0.7629510948347615,-0.5188067444876197,0.7019150072480898
1539731796297021,0.7019150072480898,-0.7019150072480898,0.6408789196611906
1539731796313021,0.8239871824216607,-0.7629510948347615,0.5188067444876197
1539731796329021,0.8239871824216607,-0.7019150072480898,0.45777065690094787
1539731796345021,0.8850232700083325,-0.5798428320745188,0.3967345693140487
1539731796361022,0.8850232700083325,-0.45777065690094787,0.33569848172737693
1539731796377022,0.8850232700083325,-0.45777065690094787,0.2746623941404778
1539731796393022,0.8850232700083325,-0.5798428320745188,0.213626306553806
1539731796409022,0.9460593575952316,-0.7629510948347615,0.2746623941404778
1539731796425023,1.0070954451819034,-0.8239871824216607,0.3967345693140487
1539731796441023,0.9460593575952316,-0.7019150072480898,0.5798428320745188
1539731796457023,0.8239871824216607,-0.5188067444876197,0.7629510948347615
1539731796473024,0.7629510948347615,-0.33569848172737693,0.8239871824216607
1539731796489024,0.7019150072480898,-0.213626306553806,0.8850232700083325
1539731796505024,0.5798428320745188,-0.2746623941404778,0.8850232700083325
1539731796521026,0.6408789196611906,-0.45777065690094787,0.8850232700083325
1539731796537027,0.6408789196611906,-0.5798428320745188,0.8239871824216607
1539731796553027,0.7019150072480898,-0.7629510948347615,0.7629510948347615
1539731796569027,0.7629510948347615,-0.7629510948347615,0.8239871824216607
1539731796585027,0.8239871824216607,-0.5188067444876197,0.8239871824216607
1539731796601028,0.7019150072480898,-0.3967345693140487,0.8850232700083325
1539731796617028,0.6408789196611906,-0.3967345693140487,0.8850232700083325
1539731796633028,0.45777065690094787,-0.5798428320745188,0.7629510948347615
1539731796649028,0.33569848172737693,-0.7019150072480898,0.5188067444876197
1539731796665029,0.33569848172737693,-0.7629510948347615,0.3967345693140487
1539731796681029,0.33569848172737693,-0.7019150072480898,0.33569848172737693
1539731796697029,0.2746623941404778,-0.7019150072480898,0.33569848172737693
1539731796713029,0.33569848172737693,-0.5188067444876197,0.3967345693140487
1539731796729030,0.33569848172737693,-0.45777065690094787,0.33569848172737693
1539731796745030,0.45777065690094787,-0.5798428320745188,0.3967345693140487
1539731796761030,0.6408789196611906,-0.7629510948347615,0.33569848172737693
1539731796777031,0.8239871824216607,-0.8850232700083325,0.33569848172737693
1539731796793031,1.0070954451819034,-0.8239871824216607,0.3967345693140487
1539731796809031,1.1291676203554744,-0.6408789196611906,0.5798428320745188
1539731796825031,1.1291676203554744,-0.45777065690094787,0.7629510948347615
1539731796841034,1.1902037079423735,-0.2746623941404778,0.8850232700083325
1539731796857034,1.2512397955290453,-0.2746623941404778,1.0070954451819034
1539731796873034,1.1902037079423735,-0.33569848172737693,1.0070954451819034
1539731796889034,1.2512397955290453,-0.45777065690094787,1.0070954451819034
1539731796905035,1.1902037079423735,-0.6408789196611906,0.8850232700083325
1539731796921035,1.1291676203554744,-0.7019150072480898,0.8239871824216607
1539731796937035,1.0070954451819034,-0.6408789196611906,0.7629510948347615
1539731796953035,0.9460593575952316,-0.5798428320745188,0.7629510948347615
1539731796969036,0.9460593575952316,-0.45777065690094787,0.7019150072480898
1539731796985036,0.8850232700083325,-0.3967345693140487,0.6408789196611906
1539731797001036,0.7019150072480898,-0.45777065690094787,0.5798428320745188
1539731797017037,0.7019150072480898,-0.6408789196611906,0.45777065690094787
1539731797033037,0.5798428320745188,-0.8239871824216607,0.3967345693140487
1539731797049037,0.45777065690094787,-0.8239871824216607,0.3967345693140487
1539731797065037,0.3967345693140487,-0.7629510948347615,0.45777065690094787
1539731797081038,0.3967345693140487,-0.6408789196611906,0.45777065690094787
1539731797097038,0.33569848172737693,-0.6408789196611906,0.45777065690094787
1539731797113038,0.33569848172737693,-0.5798428320745188,0.45777065690094787
1539731797129038,0.33569848172737693,-0.5798428320745188,0.45777065690094787
1539731797145039,0.33569848172737693,-0.7629510948347615,0.5188067444876197
1539731797161041,0.5188067444876197,-0.7629510948347615,0.5188067444876197
1539731797177041,0.6408789196611906,-0.7629510948347615,0.45777065690094787
1539731797193041,0.7019150072480898,-0.8239871824216607,0.5798428320745188
1539731797209042,0.7019150072480898,-0.7629510948347615,0.7019150072480898
1539731797225042,0.7629510948347615,-0.5188067444876197,0.7629510948347615
1539731797241042,0.8239871824216607,-0.3967345693140487,0.8239871824216607
1539731797257043,0.7629510948347615,-0.3967345693140487,0.7019150072480898
1539731797273043,0.7019150072480898,-0.7629510948347615,0.5798428320745188
1539731797289043,0.7019150072480898,-1.0070954451819034,0.5188067444876197
1539731797305043,0.7019150072480898,-1.0070954451819034,0.45777065690094787
1539731797321044,0.7629510948347615,-0.8850232700083325,0.5188067444876197
1539731797337044,0.8239871824216607,-0.6408789196611906,0.5798428320745188
1539731797353044,0.9460593575952316,-0.3967345693140487,0.5188067444876197
1539731797369044,0.8850232700083325,-0.33569848172737693,0.5188067444876197
1539731797385045,0.9460593575952316,-0.3967345693140487,0.5188067444876197
1539731797401045,1.0070954451819034,-0.5188067444876197,0.5798428320745188
1539731797417045,1.0070954451819034,-0.7019150072480898,0.6408789196611906
1539731797433045,1.1291676203554744,-0.7019150072480898,0.8239871824216607
1539731797449046,1.1291676203554744,-0.5798428320745188,0.9460593575952316
1539731797465046,1.0681315327688026,-0.3967345693140487,0.9460593575952316
1539731797481048,1.0070954451819034,-0.33569848172737693,0.9460593575952316
1539731797497048,1.0070954451819034,-0.2746623941404778,0.9460593575952316
1539731797513049,1.0070954451819034,-0.2746623941404778,0.8239871824216607
1539731797529049,0.9460593575952316,-0.45777065690094787,0.8239871824216607
1539731797545049,0.8239871824216607,-0.5188067444876197,0.7019150072480898
1539731797561050,0.7019150072480898,-0.5188067444876197,0.7629510948347615
1539731797577050,0.7019150072480898,-0.5798428320745188,0.7629510948347615
1539731797593050,0.5798428320745188,-0.6408789196611906,0.7629510948347615
1539731797609050,0.5188067444876197,-0.7629510948347615,0.7019150072480898
1539731797625051,0.5188067444876197,-0.8850232700083325,0.6408789196611906
1539731797641051,0.45777065690094787,-0.8850232700083325,0.5188067444876197
1539731797657051,0.3967345693140487,-0.8850232700083325,0.45777065690094787
1539731797673051,0.3967345693140487,-0.8850232700083325,0.45777065690094787
1539731797689052,0.45777065690094787,-0.6408789196611906,0.33569848172737693
1539731797705052,0.5188067444876197,-0.45777065690094787,0.2746623941404778
1539731797721052,0.6408789196611906,-0.45777065690094787,0.2746623941404778
1539731797737053,0.7629510948347615,-0.45777065690094787,0.2746623941404778
1539731797753053,0.8239871824216607,-0.45777065690094787,0.2746623941404778
1539731797769053,0.8239871824216607,-0.5798428320745188,0.2746623941404778
1539731797785053,0.9460593575952316,-0.7019150072480898,0.33569848172737693
1539731797801086,1.0070954451819034,-0.7629510948347615,0.5188067444876197
1539731797817086,1.1902037079423735,-0.7629510948347615,0.7629510948347615
1539731797833087,1.3733119707026162,-0.5188067444876197,0.8239871824216607
1539731797849087,1.3122758831159445,-0.45777065690094787,0.9460593575952316
1539731797865087,1.1291676203554744,-0.33569848172737693,1.0070954451819034
1539731797881087,1.0070954451819034,-0.2746623941404778,1.0681315327688026
1539731797897088,0.8850232700083325,-0.33569848172737693,0.9460593575952316
1539731797913088,0.8239871824216607,-0.6408789196611906,0.8239871824216607
1539731797929088,0.7019150072480898,-0.8850232700083325,0.7019150072480898
1539731797945088,0.6408789196611906,-1.0070954451819034,0.5798428320745188
1539731797961089,0.5798428320745188,-0.9460593575952316,0.5798428320745188
1539731797977089,0.5188067444876197,-0.8239871824216607,0.6408789196611906
1539731797993089,0.3967345693140487,-0.7019150072480898,0.5798428320745188
1539731798009090,0.3967345693140487,-0.7019150072480898,0.5188067444876197
1539731798025090,0.45777065690094787,-0.8239871824216607,0.45777065690094787
1539731798041090,0.5798428320745188,-0.8239871824216607,0.3967345693140487
1539731798057090,0.7019150072480898,-0.6408789196611906,0.45777065690094787
1539731798073091,0.8239871824216607,-0.3967345693140487,0.5188067444876197
1539731798089091,0.7629510948347615,-0.2746623941404778,0.6408789196611906
1539731798105091,0.7629510948347615,-0.2746623941404778,0.6408789196611906
1539731798121093,0.8239871824216607,-0.33569848172737693,0.7019150072480898
1539731798137094,0.8850232700083325,-0.5188067444876197,0.6408789196611906
1539731798153094,0.8850232700083325,-0.7019150072480898,0.6408789196611906
1539731798169094,1.0070954451819034,-0.8239871824216607,0.7629510948347615
1539731798185094,0.9460593575952316,-0.7629510948347615,0.7629510948347615
1539731798201095,0.8850232700083325,-0.5188067444876197,0.8239871824216607
1539731798217095,0.8239871824216607,-0.45777065690094787,0.8850232700083325
1539731798233095,0.8239871824216607,-0.5188067444876197,0.9460593575952316
1539731798249096,0.8239871824216607,-0.5798428320745188,0.8850232700083325
1539731798265096,0.8850232700083325,-0.6408789196611906,0.8239871824216607
1539731798281096,0.8239871824216607,-0.8239871824216607,0.8239871824216607
1539731798297096,0.6408789196611906,-0.8850232700083325,0.7019150072480898
1539731798313097,0.7019150072480898,-0.7019150072480898,0.5798428320745188
1539731798329097,0.7019150072480898,-0.5798428320745188,0.5188067444876197
1539731798345097,0.6408789196611906,-0.5798428320745188,0.45777065690094787
1539731798361097,0.6408789196611906,-0.6408789196611906,0.3967345693140487
1539731798377098,0.5188067444876197,-0.7629510948347615,0.45777065690094787
1539731798393098,0.45777065690094787,-0.6408789196611906,0.3967345693140487
1539731798409098,0.45777065690094787,-0.45777065690094787,0.33569848172737693
1539731798425099,0.5188067444876197,-0.5188067444876197,0.33569848172737693
1539731798441070,0.5798428320745188,-0.7019150072480898,0.3967345693140487
1539731798457070,0.7019150072480898,-0.8850232700083325,0.5188067444876197
1539731798473071,0.8239871824216607,-1.0070954451819034,0.7019150072480898
1539731798489071,0.7629510948347615,-0.7629510948347615,0.8239871824216607
1539731798505071,0.7019150072480898,-0.45777065690094787,0.8850232700083325
1539731798521072,0.5798428320745188,-0.2746623941404778,0.8239871824216607
1539731798537072,0.45777065690094787,-0.45777065690094787,0.6408789196611906
1539731798553072,0.45777065690094787,-0.6408789196611906,0.3967345693140487
1539731798569072,0.5798428320745188,-0.5188067444876197,0.2746623941404778
1539731798585073,0.7019150072480898,0.03051804379333589,0.15259021896690683
1539731798601073,0.6408789196611906,-0.03051804379333589,0.213626306553806
1539731798617073,0.45777065690094787,-0.45777065690094787,0.5188067444876197
1539731798633073,0.5798428320745188,-0.6408789196611906,0.7019150072480898
1539731798649074,0.7019150072480898,-0.8239871824216607,1.0681315327688026
1539731798665074,0.7629510948347615,-0.8850232700083325,1.1902037079423735
1539731798681074,0.7629510948347615,-0.7019150072480898,1.1902037079423735
1539731798697075,0.7019150072480898,-0.9460593575952316,1.1902037079423735
1539731798713075,0.7629510948347615,-1.0070954451819034,1.1291676203554744
1539731798729075,0.8239871824216607,-0.7629510948347615,1.1291676203554744
1539731798745075,0.8239871824216607,-0.5188067444876197,1.1291676203554744
1539731798761078,0.9460593575952316,-0.15259021896690683,0.8850232700083325
1539731798777078,0.9460593575952316,-0.03051804379333589,0.5188067444876197
1539731798793078,1.0070954451819034,-0.09155413138023505,0.213626306553806
1539731798809078,0.9460593575952316,-0.213626306553806,0.03051804379333589
1539731798825079,0.8239871824216607,-0.45777065690094787,-0.03051804379333589
1539731798841079,0.7629510948347615,-0.8239871824216607,-0.03051804379333589
1539731798857079,0.5798428320745188,-1.1902037079423735,-0.03051804379333589
1539731798873079,0.6408789196611906,-1.4953841458761872,0.03051804379333589
1539731798889080,0.7019150072480898,-1.3733119707026162,0.15259021896690683
1539731798905080,0.6408789196611906,-1.1291676203554744,0.45777065690094787
1539731798921080,0.5798428320745188,-0.5798428320745188,0.5188067444876197
1539731798937080,0.5798428320745188,-0.09155413138023505,0.5188067444876197
1539731798953081,0.7019150072480898,0.15259021896690683,0.3967345693140487
1539731798969081,0.8239871824216607,0.03051804379333589,0.3967345693140487
1539731798985081,0.9460593575952316,0.03051804379333589,0.45777065690094787
1539731799001082,0.9460593575952316,-0.03051804379333589,0.5798428320745188
1539731799017082,0.8239871824216607,-0.213626306553806,0.7019150072480898
1539731799033082,0.8239871824216607,-0.45777065690094787,0.8850232700083325
1539731799049082,0.9460593575952316,-0.6408789196611906,1.0681315327688026
1539731799065083,0.9460593575952316,-0.7629510948347615,1.2512397955290453
1539731799081085,1.0070954451819034,-0.8239871824216607,1.3733119707026162
1539731799097085,0.8850232700083325,-0.7629510948347615,1.4343480582895154
1539731799113085,0.7629510948347615,-0.7019150072480898,1.5564202334630863
1539731799129086,0.7019150072480898,-0.33569848172737693,1.5564202334630863
1539731799145086,0.6408789196611906,0.09155413138023505,1.4343480582895154
1539731799161086,0.5798428320745188,0.09155413138023505,1.1291676203554744
1539731799177086,0.45777065690094787,-0.15259021896690683,0.7019150072480898
1539731799193087,0.5798428320745188,-0.5188067444876197,0.33569848172737693
1539731799209087,0.5188067444876197,-0.7019150072480898,0.09155413138023505
1539731799225087,0.45777065690094787,-0.8239871824216607,-0.03051804379333589
1539731799241088,0.33569848172737693,-1.0070954451819034,-0.03051804379333589
1539731799257088,0.213626306553806,-0.8850232700083325,-0.15259021896690683
1539731799273088,0.33569848172737693,-0.7019150072480898,-0.15259021896690683
1539731799289088,0.3967345693140487,-0.8239871824216607,-0.03051804379333589
1539731799305089,0.5188067444876197,-0.8850232700083325,0.15259021896690683
1539731799321089,0.5798428320745188,-0.8239871824216607,0.33569848172737693
1539731799337089,0.7019150072480898,-0.45777065690094787,0.45777065690094787
1539731799353089,0.9460593575952316,-0.15259021896690683,0.5188067444876197
1539731799369090,1.0070954451819034,-0.213626306553806,0.7019150072480898
1539731799385090,1.1291676203554744,-0.45777065690094787,0.7019150072480898
1539731799401092,1.3122758831159445,-0.6408789196611906,0.8239871824216607
1539731799417092,1.3733119707026162,-0.5798428320745188,0.8850232700083325
1539731799433093,1.4343480582895154,-0.5188067444876197,0.9460593575952316
1539731799449093,1.4343480582895154,-0.5798428320745188,1.0070954451819034
1539731799465093,1.3733119707026162,-0.7629510948347615,1.0681315327688026
1539731799481094,1.2512397955290453,-0.7019150072480898,1.1902037079423735
1539731799497094,1.0681315327688026,-0.5188067444876197,1.2512397955290453
1539731799513094,1.0681315327688026,-0.33569848172737693,1.2512397955290453
1539731799529094,0.9460593575952316,-0.3967345693140487,1.1291676203554744
1539731799545095,0.9460593575952316,-0.5188067444876197,0.9460593575952316
1539731799561095,0.8850232700083325,-0.5188067444876197,0.7629510948347615
1539731799577095,0.7629510948347615,-0.5188067444876197,0.6408789196611906
1539731799593095,0.7019150072480898,-0.5798428320745188,0.45777065690094787
1539731799609096,0.7019150072480898,-0.7019150072480898,0.2746623941404778
1539731799625096,0.7019150072480898,-0.7629510948347615,0.213626306553806
1539731799641096,0.5188067444876197,-0.7629510948347615,0.15259021896690683
1539731799657096,0.3967345693140487,-0.7019150072480898,0.15259021896690683
1539731799673097,0.2746623941404778,-0.8239871824216607,0.15259021896690683
1539731799689097,0.3967345693140487,-0.9460593575952316,0.213626306553806
1539731799705097,0.45777065690094787,-0.9460593575952316,0.2746623941404778
1539731799721130,0.5798428320745188,-0.7629510948347615,0.3967345693140487
1539731799737130,0.5798428320745188,-0.5798428320745188,0.5188067444876197
1539731799753131,0.6408789196611906,-0.45777065690094787,0.5798428320745188
1539731799769131,0.7019150072480898,-0.33569848172737693,0.6408789196611906
1539731799785131,0.6408789196611906,-0.45777065690094787,0.5798428320745188
1539731799801131,0.5798428320745188,-0.5798428320745188,0.45777065690094787
1539731799817132,0.5188067444876197,-0.7629510948347615,0.33569848172737693
1539731799833132,0.5188067444876197,-0.8850232700083325,0.2746623941404778
1539731799849132,0.5798428320745188,-0.8239871824216607,0.3967345693140487
1539731799865132,0.5798428320745188,-0.7629510948347615,0.6408789196611906
1539731799881133,0.5188067444876197,-0.6408789196611906,0.7629510948347615
1539731799897133,0.5188067444876197,-0.6408789196611906,0.8850232700083325
1539731799913133,0.5798428320745188,-0.7629510948347615,0.9460593575952316
1539731799929134,0.7629510948347615,-0.8239871824216607,0.9460593575952316
1539731799945134,0.8850232700083325,-0.7019150072480898,1.0681315327688026
1539731799961134,1.0070954451819034,-0.5798428320745188,1.0070954451819034
1539731799977134,1.1291676203554744,-0.45777065690094787,0.9460593575952316
1539731799993135,1.1291676203554744,-0.3967345693140487,0.9460593575952316
1539731800009135,1.1291676203554744,-0.33569848172737693,0.8239871824216607
1539731800025135,1.1902037079423735,-0.45777065690094787,0.7019150072480898
1539731800041137,1.1291676203554744,-0.5188067444876197,0.5188067444876197
1539731800057138,1.0681315327688026,-0.6408789196611906,0.3967345693140487
1539731800073138,1.0070954451819034,-0.7019150072480898,0.3967345693140487
1539731800089138,0.9460593575952316,-0.6408789196611906,0.45777065690094787
1539731800105138,0.8239871824216607,-0.3967345693140487,0.45777065690094787
1539731800121139,0.7019150072480898,-0.2746623941404778,0.33569848172737693
1539731800137139,0.5188067444876197,-0.45777065690094787,0.2746623941404778
1539731800153139,0.5188067444876197,-0.5188067444876197,0.15259021896690683
1539731800169139,0.45777065690094787,-0.5798428320745188,0.15259021896690683
1539731800185140,0.33569848172737693,-0.6408789196611906,0.15259021896690683
1539731800201140,0.2746623941404778,-0.7629510948347615,0.15259021896690683
1539731800217140,0.2746623941404778,-0.8239871824216607,0.33569848172737693
1539731800233141,0.2746623941404778,-0.7019150072480898,0.5798428320745188
1539731800249141,0.2746623941404778,-0.6408789196611906,0.7019150072480898
1539731800265141,0.33569848172737693,-0.7019150072480898,0.8239871824216607
1539731800281141,0.3967345693140487,-0.7629510948347615,0.8850232700083325
1539731800297142,0.45777065690094787,-0.7629510948347615,0.9460593575952316
1539731800313142,0.5798428320745188,-0.6408789196611906,1.0070954451819034
1539731800329142,0.6408789196611906,-0.5188067444876197,1.0070954451819034
1539731800345142,0.7629510948347615,-0.5188067444876197,0.9460593575952316
1539731800361145,0.9460593575952316,-0.5188067444876197,1.0070954451819034
1539731800377145,1.1902037079423735,-0.5798428320745188,0.9460593575952316
1539731800393145,1.3733119707026162,-0.5798428320745188,1.0070954451819034
1539731800409145,1.3122758831159445,-0.5188067444876197,1.0070954451819034
1539731800425146,1.2512397955290453,-0.5188067444876197,0.8850232700083325
1539731800441146,1.1902037079423735,-0.45777065690094787,0.8239871824216607
1539731800457146,1.0070954451819034,-0.45777065690094787,0.7629510948347615
1539731800473147,0.8850232700083325,-0.5188067444876197,0.45777065690094787
1539731800489147,0.7629510948347615,-0.7019150072480898,0.2746623941404778
1539731800505147,0.7629510948347615,-0.8239871824216607,0.09155413138023505
1539731800521147,0.7019150072480898,-0.8239871824216607,0.15259021896690683
1539731800537148,0.5798428320745188,-0.7629510948347615,0.15259021896690683
1539731800553148,0.5188067444876197,-0.7019150072480898,0.15259021896690683
1539731800569148,0.3967345693140487,-0.7019150072480898,0.213626306553806
1539731800585148,0.3967345693140487,-0.8239871824216607,0.2746623941404778
1539731800601149,0.45777065690094787,-0.9460593575952316,0.2746623941404778
1539731800617149,0.5798428320745188,-0.9460593575952316,0.3967345693140487
1539731800633149,0.7019150072480898,-0.7629510948347615,0.5188067444876197
1539731800649150,0.7629510948347615,-0.5798428320745188,0.7629510948347615
1539731800665150,0.7629510948347615,-0.33569848172737693,0.8850232700083325
1539731800681121,0.7629510948347615,-0.213626306553806,1.0681315327688026
1539731800697122,0.7019150072480898,-0.33569848172737693,1.1291676203554744
1539731800713122,0.7019150072480898,-0.5188067444876197,1.0681315327688026
1539731800729122,0.7629510948347615,-0.7019150072480898,1.0681315327688026
1539731800745123,0.8239871824216607,-0.8239871824216607,1.0070954451819034
1539731800761123,0.8239871824216607,-0.7629510948347615,1.0070954451819034
1539731800777123,0.8239871824216607,-0.6408789196611906,1.0070954451819034
1539731800793123,0.8239871824216607,-0.45777065690094787,0.9460593575952316
1539731800809124,0.7629510948347615,-0.3967345693140487,0.8239871824216607
1539731800825124,0.7629510948347615,-0.3967345693140487,0.6408789196611906
1539731800841124,0.8239871824216607,-0.5188067444876197,0.45777065690094787
1539731800857124,-0.2746623941404778,9.124895094224485,-0.15259021896690683
1539731800873125,-3.0212863355459376,-21.087968261234437,-0.5798428320745188
1539731800889125,3.2654306858930795,3.2043945983061803,-2.532997634851654
1539731800905125,2.9602502479590385,-3.0212863355459376,2.227817196917613
1539731800921126,2.04470893415737,1.739528496223329,3.0212863355459376
1539731800937126,1.1291676203554744,8.758678568703772,1.6174563210497581
1539731800953126,-1.8005645838102282,6.195162890058782,0.5798428320745188
1539731800969126,-3.0212863355459376,0.5798428320745188,-1.0070954451819034
1539731800985127,-1.8005645838102282,-1.6784924086366573,-2.5940337224383256
1539731801001129,-1.0070954451819034,-2.7161058976118966,-3.3875028610666504
1539731801017129,-1.5564202334630863,-3.3264667734797513,-3.3875028610666504
1539731801033129,-2.5940337224383256,-2.7161058976118966,-3.3264667734797513
1539731801049130,-3.0212863355459376,-2.532997634851654,-2.4719615472647547
1539731801065130,-2.4719615472647547,-2.8381780727854675,-1.1902037079423735
1539731801081130,-1.6174563210497581,-2.7771419851987957,-0.33569848172737693
1539731801097130,-1.4343480582895154,-2.410925459678083,-0.03051804379333589
1539731801113131,-1.5564202334630863,-1.8005645838102282,-0.03051804379333589
1539731801129131,-1.3122758831159445,-1.1902037079423735,-0.09155413138023505
1539731801145131,-0.8239871824216607,-1.4953841458761872,0.3967345693140487
1539731801161131,-0.213626306553806,-1.6174563210497581,1.0681315327688026
1539731801177132,0.15259021896690683,-0.6408789196611906,1.8005645838102282
1539731801193132,0.5188067444876197,0.3967345693140487,2.5940337224383256
1539731801209132,1.0681315327688026,0.9460593575952316,3.2043945983061803
1539731801225133,1.983672846570471,0.7629510948347615,3.2043945983061803
1539731801241133,2.8992141603723667,-0.09155413138023505,2.7771419851987957
1539731801257133,3.5095750362402214,-1.0070954451819034,2.3498893720911838
1539731801273133,3.6316472114137923,-1.3733119707026162,2.105745021744042
1539731801289134,3.7537193865873633,-1.1291676203554744,2.105745021744042
1539731801305134,3.997863736934505,-0.45777065690094787,2.3498893720911838
1539731801321167,4.180971999694748,0.3967345693140487,2.5940337224383256
1539731801337167,4.242008087281647,1.0070954451819034,2.7161058976118966
1539731801353167,4.119935912108076,1.1902037079423735,2.655069810025225
1539731801369167,3.936827649347606,1.0681315327688026,2.288853284504512
1539731801385168,3.814755474174035,0.7019150072480898,1.8616006713969
1539731801401168,3.7537193865873633,0.15259021896690683,1.4343480582895154
1539731801417168,3.6316472114137923,-0.15259021896690683,1.0070954451819034
1539731801433169,3.3875028610666504,-0.45777065690094787,0.6408789196611906
1539731801449169,2.9602502479590385,-0.5188067444876197,0.3967345693140487
1539731801465169,2.532997634851654,-0.5798428320745188,0.213626306553806
1539731801481169,2.105745021744042,-0.6408789196611906,0.15259021896690683
1539731801497170,1.6784924086366573,-0.5188067444876197,0.03051804379333589
1539731801513170,1.1902037079423735,-0.5188067444876197,-0.213626306553806
1539731801529170,0.5798428320745188,-0.7019150072480898,-0.3967345693140487
1539731801545170,0.03051804379333589,-0.8239871824216607,-0.3967345693140487
1539731801561171,-0.3967345693140487,-0.8239871824216607,-0.33569848172737693
1539731801577171,-0.7629510948347615,-0.7019150072480898,-0.15259021896690683
1539731801593171,-1.0681315327688026,-0.7019150072480898,-0.03051804379333589
1539731801609171,-1.1902037079423735,-0.8239871824216607,0.15259021896690683
1539731801625172,-1.3733119707026162,-1.0681315327688026,0.2746623941404778
1539731801641174,-1.4953841458761872,-1.2512397955290453,0.33569848172737693
1539731801657174,-1.4343480582895154,-1.4953841458761872,0.2746623941404778
1539731801673174,-1.4343480582895154,-1.6174563210497581,0.45777065690094787
1539731801689175,-1.1902037079423735,-1.5564202334630863,0.6408789196611906
1539731801705175,-0.9460593575952316,-1.2512397955290453,0.7629510948347615
1539731801721175,-0.6408789196611906,-0.9460593575952316,0.9460593575952316
1539731801737176,-0.3967345693140487,-0.7019150072480898,1.1291676203554744
1539731801753176,-0.213626306553806,-0.2746623941404778,1.3122758831159445
1539731801769176,-0.03051804379333589,-0.15259021896690683,1.3122758831159445
1539731801785176,0.15259021896690683,-0.2746623941404778,1.1291676203554744
1539731801801177,0.3967345693140487,-0.5188067444876197,0.8850232700083325
1539731801817177,0.7019150072480898,-0.8850232700083325,0.6408789196611906
1539731801833177,1.0681315327688026,-1.0070954451819034,0.5798428320745188
1539731801849177,1.4343480582895154,-0.8239871824216607,0.45777065690094787
1539731801865178,1.6174563210497581,-0.5188067444876197,0.45777065690094787
1539731801881178,1.6784924086366573,-0.3967345693140487,0.5188067444876197
1539731801897178,1.8616006713969,-0.3967345693140487,0.45777065690094787
1539731801913179,2.04470893415737,-0.45777065690094787,0.33569848172737693
1539731801929179,2.227817196917613,-0.45777065690094787,0.2746623941404778
1539731801945179,2.3498893720911838,-0.3967345693140487,0.33569848172737693
1539731801961181,2.410925459678083,-0.2746623941404778,0.33569848172737693
1539731801977182,2.227817196917613,-0.09155413138023505,0.5188067444876197
1539731801993182,1.983672846570471,-0.09155413138023505,0.5798428320745188
1539731802009182,1.8616006713969,-0.15259021896690683,0.6408789196611906
1539731802025182,1.6784924086366573,-0.33569848172737693,0.6408789196611906
1539731802041183,1.4953841458761872,-0.5188067444876197,0.6408789196611906
1539731802057183,1.3122758831159445,-0.7629510948347615,0.6408789196611906
1539731802073183,0.8850232700083325,-0.8850232700083325,0.6408789196611906
1539731802089183,0.5798428320745188,-0.8239871824216607,0.6408789196611906
1539731802105184,0.33569848172737693,-0.7019150072480898,0.8239871824216607
1539731802121184,0.15259021896690683,-0.5188067444876197,0.9460593575952316
1539731802137184,0.09155413138023505,-0.45777065690094787,0.9460593575952316
1539731802153185,-0.09155413138023505,-0.5188067444876197,0.8239871824216607
1539731802169185,-0.213626306553806,-0.6408789196611906,0.7019150072480898
1539731802185185,-0.33569848172737693,-0.8239871824216607,0.7019150072480898
1539731802201185,-0.33569848172737693,-0.8239871824216607,0.6408789196611906
1539731802217186,-0.2746623941404778,-0.8239871824216607,0.5188067444876197
1539731802233186,-0.213626306553806,-0.7629510948347615,0.5188067444876197
1539731802249186,-0.213626306553806,-0.7019150072480898,0.6408789196611906
1539731802265186,-0.03051804379333589,-0.7019150072480898,0.6408789196611906
1539731802281189,0.03051804379333589,-0.7629510948347615,0.5798428320745188
1539731802297189,0.213626306553806,-0.7019150072480898,0.5798428320745188
1539731802313189,0.33569848172737693,-0.6408789196611906,0.5188067444876197
1539731802329189,0.5188067444876197,-0.6408789196611906,0.5188067444876197
1539731802345190,0.7629510948347615,-0.5798428320745188,0.5188067444876197
1539731802361190,0.8239871824216607,-0.5798428320745188,0.5188067444876197
1539731802377190,1.0070954451819034,-0.5188067444876197,0.5798428320745188
1539731802393190,1.2512397955290453,-0.6408789196611906,0.5798428320745188
1539731802409191,1.5564202334630863,-0.6408789196611906,0.5798428320745188
1539731802425191,1.6784924086366573,-0.5798428320745188,0.5798428320745188
1539731802441191,1.739528496223329,-0.45777065690094787,0.6408789196611906
1539731802457192,1.6784924086366573,-0.33569848172737693,0.7019150072480898
1539731802473192,1.5564202334630863,-0.2746623941404778,0.7019150072480898
1539731802489192,1.4343480582895154,-0.33569848172737693,0.7019150072480898
1539731802505192,1.1902037079423735,-0.45777065690094787,0.5798428320745188
1539731802521193,1.1291676203554744,-0.7019150072480898,0.3967345693140487
1539731802537193,1.0681315327688026,-0.8239871824216607,0.3967345693140487
1539731802553193,0.9460593575952316,-0.8239871824216607,0.45777065690094787
1539731802569193,0.7629510948347615,-0.7019150072480898,0.5798428320745188
1539731802585194,0.6408789196611906,-0.6408789196611906,0.6408789196611906
1539731802601196,0.45777065690094787,-0.6408789196611906,0.5798428320745188
1539731802617196,0.33569848172737693,-0.6408789196611906,0.5798428320745188
1539731802633196,0.213626306553806,-0.7629510948347615,0.5798428320745188
1539731802649197,0.2746623941404778,-0.8239871824216607,0.5798428320745188
1539731802665197,0.33569848172737693,-1.0070954451819034,0.6408789196611906
1539731802681197,0.3967345693140487,-0.8850232700083325,0.7629510948347615
1539731802697198,0.3967345693140487,-0.5798428320745188,0.8239871824216607
1539731802713198,0.3967345693140487,-0.3967345693140487,0.8850232700083325
1539731802729198,0.45777065690094787,-0.33569848172737693,0.8850232700083325
