Timestamp (microseconds),Accel X (g),Accel Y (g),Accel Z (g)
1539131188631195,1.0089875638971542,0.006775005722133187,-0.018005645838101714
1539131188647191,1.0075226977950713,0.00579842832074462,-0.01617456321049815
1539131188663188,1.0072785534447242,0.008239871824216038,-0.019104295414663852
1539131188679184,1.007034409094377,0.00982681010147246,-0.018127718013275285
1539131188695181,1.0058136873426413,0.007385366598001042,-0.020691233691920274
1539131188711177,1.0048371099412527,0.005310139620050336,-0.023254749370565264
1539131188727173,1.0089875638971542,0.0017700465400167786,-0.024719615472648115
1539131188743170,1.0098420691233692,-0.002990768291752488,-0.02264438849469741
1539131188759166,1.0100862134737163,-0.0071412222476539,-0.021789883268482413
1539131188775163,1.0102082856488899,-0.003479056992446772,-0.023498893720912406
1539131188791159,1.007888914320592,0.003112840466926059,-0.015075913633936011
1539131188807156,1.0106965743495842,0.013488975356679589,-0.01617456321049815
1539131188823152,1.0103303578240634,0.013855191882200302,-0.01739528496223386
1539131188839149,1.0081330586709392,0.0042114900434881974,-0.015930418860151008
1539131188855145,1.0045929655909056,-0.004821850919356052,-0.01641870756084529
1539131188871142,1.00337224383917,-0.011413748378728883,-0.015320057984283153
1539131188887138,1.0050812542916,-0.011902037079423167,-0.014709697108415298
1539131188903134,1.0069123369192035,-0.006286717021438903,-0.017029068436713146
1539131188919131,1.0120393682764934,0.005920500495918191,-0.015808346684977437
1539131188935127,1.0135042343785763,0.008606088349736751,-0.01239032578011745
1539131188951110,1.0115510795757992,0.0015259021896696368,-0.01239032578011745
1539131188967107,1.0094758525978484,-0.007629510948348184,-0.01873807888914314
1539131188983103,1.0055695429922942,-0.009338521400778177,-0.02252231631952384
1539131188999100,1.0031280994888228,7.934691386282111E-4,-0.02545204852368954
1539131189015096,1.0006866559853513,0.005676356145571049,-0.025696192874036683
1539131189031093,1.0011749446860456,0.0071412222476539,-0.023620965896085977
1539131189047089,1.0048371099412527,0.0026245517662317752,-0.023743038071259548
1539131189063086,1.0105745021744106,0.0022583352407110624,-0.022400244144350268
1539131189079082,1.010452429999237,0.007629510948348184,-0.019470511940184565
1539131189095079,1.0088654917219806,0.014709697108415298,-0.021911955443655984
1539131189111075,1.0105745021744106,0.019836728465705278,-0.023254749370565264
1539131189127071,1.0124055848020141,0.010193026626993174,-0.02288853284504455
1539131189143068,1.0115510795757992,-9.15541313801782E-4,-0.026184481574730967
1539131189159064,1.0150911726558327,-0.004699778744182481,-0.02276646066987098
1539131189175061,1.013015945677882,-0.001159685664148924,-0.0214236667429617
1539131189191057,1.0119172961013199,-9.15541313801782E-4,-0.0214236667429617
1539131189207054,1.0110627908751049,-0.007629510948348184,-0.024841687647821686
1539131189223050,1.0120393682764934,-0.00836194399938961,-0.029602502479590953
1539131189239047,1.008743419546807,-4.272526131074983E-4,-0.0252079041733424
1539131189255043,1.0022735942626078,0.001037613488975353,-0.024719615472648115
1539131189270965,1.0030060273136492,0.0061646448462653325,-0.021057450217440987
1539131189286961,1.0037384603646906,0.009582665751125319,-0.020813305867093845
1539131189302957,1.0037384603646906,0.0018921187151903496,-0.017761501487754572
1539131189318953,1.0060578316929885,-0.001037613488975353,-0.024475471122300974
1539131189334949,1.0054474708171206,-0.0017700465400167786,-0.02386511024643312
1539131189350945,1.0056916151674677,-0.0014038300144960658,-0.022034027618829555
1539131189366941,1.0067902647440299,-0.0022583352407110624,-0.019592584115358136
1539131189382937,1.0082551308461127,0.003112840466926059,-0.024475471122300974
1539131189398933,1.0094758525978484,0.002868696116578917,-0.027283131151293105
1539131189414929,1.0110627908751049,0.0022583352407110624,-0.023620965896085977
1539131189430925,1.0120393682764934,-9.15541313801782E-4,-0.01861600671396957
1539131189446921,1.0109407186999313,-3.0518043793392735E-4,-0.02252231631952384
1539131189462917,1.0084992751964599,-0.0018921187151903496,-0.02410925459678026
1539131189478913,1.0071564812695506,9.15541313801782E-4,-0.024963759822995257
1539131189494909,1.0056916151674677,9.15541313801782E-4,-0.02398718242160669
1539131189510905,1.006179903868162,9.15541313801782E-4,-0.021789883268482413
1539131189526901,1.0102082856488899,0.001159685664148924,-0.022278171969176697
1539131189542897,1.0099641412985427,-0.005188067444876765,-0.019104295414663852
1539131189558893,1.0082551308461127,-0.010315098802166744,-0.019348439765010994
1539131189574889,1.0060578316929885,-0.007263294422827471,-0.021789883268482413
1539131189590606,1.0006866559853513,-0.007019150072480329,-0.02386511024643312
1539131189606601,1.001907377737087,-0.009094377050431035,-0.018127718013275285
1539131189622596,1.0099641412985427,-0.002746623941405346,-0.021179522392614558
1539131189638591,1.0083772030212863,-0.002990768291752488,-0.019592584115358136
1539131189654586,1.0045929655909056,-0.010070954451819603,-0.019470511940184565
1539131189670581,1.006179903868162,-0.008728160524910322,-0.022156099794003126
1539131189686576,1.0075226977950713,-0.0036011291676203427,-0.025818265049210254
1539131189702571,1.0067902647440299,0.003112840466926059,-0.02410925459678026
1539131189718567,1.010452429999237,0.006286717021438903,-0.023498893720912406
1539131189734562,1.0128938735027084,0.0015259021896696368,-0.020447089341573133
1539131189750557,1.011306935225452,-0.006286717021438903,-0.025940337224383825
1539131189766552,1.0128938735027084,-0.00579842832074462,-0.024719615472648115
1539131189782547,1.0117952239261463,0.00323491264209963,-0.024597543297474544
1539131189798542,1.0080109864957656,0.0021362630655374915,-0.020691233691920274
1539131189814537,1.0100862134737163,-0.0015259021896696368,-0.020935378042267416
1539131189830532,1.0088654917219806,-0.008239871824216038,-0.01995880064087885
1539131189846527,1.0072785534447242,-0.012146181429770309,-0.01873807888914314
1539131189862522,1.0072785534447242,-0.009948882276646032,-0.018249790188448856
1539131189878517,1.0052033264667735,-0.006286717021438903,-0.019226367589837423
1539131189894512,1.0043488212405585,-0.007995727473868897,-0.021911955443655984
1539131189910217,1.0045929655909056,-0.011779964904249596,-0.01861600671396957
1539131189926211,1.0047150377660792,-0.011535820553902454,-0.018005645838101714
1539131189942204,1.0038605325398642,-0.012634470130464592,-0.01861600671396957
1539131189958198,1.0054474708171206,-0.010681315327687457,-0.015564202334630295
1539131189974191,1.0064240482185092,-0.0061646448462653325,-0.01739528496223386
1539131189990185,1.0034943160143435,-0.007385366598001042,-0.01605249103532458
1539131190006178,1.0074006256198977,-0.007385366598001042,-0.02020294499122599
1539131190022172,1.006179903868162,-0.007751583123521755,-0.017639429312581
1539131190038166,1.012161440451667,-0.0023804074158846333,-0.015197985809109582
1539131190054159,1.0111848630502784,0.0022583352407110624,-0.01898222323949028
1539131190070153,1.0091096360723277,9.15541313801782E-4,-0.017883573662928143
1539131190086146,1.009597924773022,-0.0021362630655374915,-0.022400244144350268
1539131190102140,1.0094758525978484,-0.0109254596780346,-0.014709697108415298
1539131190118134,1.0092317082475013,-0.005676356145571049,-0.016662851911192433
1539131190134127,1.0076447699702449,0.001037613488975353,-0.016540779736018862
1539131190150121,1.0054474708171206,9.15541313801782E-4,-0.011657892729076025
1539131190166114,1.0076447699702449,-0.0012817578393224949,-0.013000686655985305
1539131190182108,1.0084992751964599,-0.0037232013427939137,-0.01739528496223386
1539131190198102,1.0105745021744106,-0.002868696116578917,-0.01886015106431671
1539131190214095,1.005325398641947,-0.004333562218661768,-0.020935378042267416
1539131190229858,1.0072785534447242,-0.008239871824216038,-0.023498893720912406
1539131190245851,1.0075226977950713,-0.012024109254596738,-0.023743038071259548
1539131190261843,1.0056916151674677,-0.012512397955291021,-0.024719615472648115
1539131190277836,1.0080109864957656,-0.00457770656900891,-0.024841687647821686
1539131190293829,1.007888914320592,-0.0039673456931410556,-0.023498893720912406
1539131190309821,1.0080109864957656,-0.008239871824216038,-0.020813305867093845
1539131190325814,1.009597924773022,-0.008850232700083893,-0.020447089341573133
1539131190341807,1.005325398641947,-0.005554283970397478,-0.017883573662928143
1539131190357799,1.0055695429922942,-0.003112840466926059,-0.015075913633936011
1539131190373792,1.0084992751964599,0.00579842832074462,-0.01861600671396957
1539131190389784,1.0060578316929885,9.15541313801782E-4,-0.016662851911192433
1539131190405777,1.0048371099412527,-0.0060425726710917615,-0.01751735713740743
1539131190421770,1.007888914320592,-0.0071412222476539,-0.02276646066987098
1539131190437762,1.0086213473716334,-0.008728160524910322,-0.02264438849469741
1539131190453755,1.0080109864957656,-0.00970473792629889,-0.021911955443655984
1539131190469748,1.0075226977950713,-0.005554283970397478,-0.020691233691920274
1539131190485740,1.0075226977950713,-0.0022583352407110624,-0.019104295414663852
1539131190501733,1.0080109864957656,-0.0040894178683146265,-0.020935378042267416
1539131190517726,1.0084992751964599,-0.004821850919356052,-0.02008087281605242
1539131190533718,1.0081330586709392,-0.00323491264209963,-0.02288853284504455
1539131190549499,1.0114290074006256,-0.0012817578393224949,-0.01873807888914314
1539131190565491,1.010452429999237,6.713969634546402E-4,-0.01739528496223386
1539131190581483,1.0076447699702449,-0.0015259021896696368,-0.016784924086366004
1539131190597474,1.0075226977950713,-0.003479056992446772,-0.018127718013275285
1539131190613466,1.011306935225452,-0.006652933546959616,-0.02130159456778813
1539131190629458,1.0099641412985427,-0.0060425726710917615,-0.019104295414663852
1539131190645449,1.0076447699702449,-0.0021362630655374915,-0.018371862363622427
1539131190661441,1.0055695429922942,-0.004699778744182481,-0.01995880064087885
1539131190677433,1.0064240482185092,-0.007995727473868897,-0.019592584115358136
1539131190693424,1.0084992751964599,-0.008606088349736751,-0.018371862363622427
1539131190709416,1.0077668421454185,-0.008117799649042468,-0.021667811093308842
1539131190725408,1.0066681925688563,-0.005188067444876765,-0.023620965896085977
1539131190741399,1.0048371099412527,-0.008117799649042468,-0.022278171969176697
1539131190757391,1.0038605325398642,-0.010315098802166744,-0.02410925459678026
1539131190773383,1.0088654917219806,-0.00848401617456318,-0.023743038071259548
1539131190789374,1.007888914320592,-0.006408789196612474,-0.019348439765010994
1539131190805366,1.0066681925688563,-1.831082627603564E-4,-0.017639429312581
1539131190821358,1.0069123369192035,0.0038452735179674846,-0.016906996261539575
1539131190837350,1.0089875638971542,0.0042114900434881974,-0.01886015106431671
1539131190853341,1.0088654917219806,-0.002990768291752488,-0.018127718013275285
1539131190869110,1.0071564812695506,-0.006652933546959616,-0.020935378042267416
1539131190885101,1.0100862134737163,-0.007507438773174613,-0.01886015106431671
1539131190901092,1.0097199969481956,-0.004821850919356052,-0.017029068436713146
1539131190917083,1.0083772030212863,-0.0023804074158846333,-0.016784924086366004
1539131190933075,1.0110627908751049,0.003112840466926059,-0.019226367589837423
1539131190949066,1.0106965743495842,1.831082627603564E-4,-0.016906996261539575
1539131190965057,1.0069123369192035,-0.0017700465400167786,-0.01605249103532458
1539131190981048,1.0056916151674677,-0.005676356145571049,-0.01873807888914314
1539131190997039,1.0100862134737163,-0.0026245517662317752,-0.02130159456778813
1539131191013031,1.0097199969481956,0.0016479743648432077,-0.01617456321049815
1539131191029022,1.0077668421454185,0.005188067444876765,-0.020935378042267416
1539131191045013,1.0075226977950713,0.001037613488975353,-0.018005645838101714
1539131191061004,1.0069123369192035,-0.0014038300144960658,-0.022034027618829555
1539131191076995,1.004470893415732,-0.0071412222476539,-0.02386511024643312
1539131191092987,1.0038605325398642,-0.005676356145571049,-0.024475471122300974
1539131191108978,1.0056916151674677,-0.006530861371786045,-0.025574120698863112
1539131191124969,1.0047150377660792,-0.00836194399938961,-0.023743038071259548
1539131191140960,1.0093537804226749,-0.005065995269703194,-0.025696192874036683
1539131191156952,1.0116731517509727,6.713969634546402E-4,-0.02386511024643312
1539131191172943,1.0097199969481956,0.003112840466926059,-0.026062409399557396
1539131191188751,1.0059357595178149,-0.001037613488975353,-0.023620965896085977
1539131191204741,1.0058136873426413,-0.0017700465400167786,-0.02532997634851597
1539131191220731,1.0097199969481956,-0.0042114900434881974,-0.02801556420233453
1539131191236722,1.0060578316929885,-0.0014038300144960658,-0.024963759822995257
1539131191252712,1.0075226977950713,0.0023804074158846333,-0.020813305867093845
1539131191268702,1.0066681925688563,0.0026245517662317752,-0.021789883268482413
1539131191284692,1.0082551308461127,0.0042114900434881974,-0.024719615472648115
1539131191300683,1.006179903868162,-0.001037613488975353,-0.021911955443655984
1539131191316673,1.0056916151674677,-0.0023804074158846333,-0.02008087281605242
1539131191332663,1.0099641412985427,0.001037613488975353,-0.02154573891813527
1539131191348653,1.0080109864957656,-0.0018921187151903496,-0.02252231631952384
1539131191364644,1.0089875638971542,-0.0039673456931410556,-0.02288853284504455
1539131191380634,1.0083772030212863,-0.007263294422827471,-0.020935378042267416
1539131191396624,1.012161440451667,-0.00579842832074462,-0.022400244144350268
1539131191412614,1.0109407186999313,0.0021362630655374915,-0.02032501716639956
1539131191428605,1.010452429999237,0.008117799649042468,-0.018493934538795997
1539131191444595,1.0080109864957656,0.005432211795223907,-0.016906996261539575
1539131191460585,1.0092317082475013,0.002990768291752488,-0.015686274509803866
1539131191476575,1.008743419546807,0.006897077897306758,-0.019714656290531707
1539131191492566,1.0084992751964599,0.004455634393835339,-0.017761501487754572
1539131191508361,1.0097199969481956,0.0022583352407110624,-0.015686274509803866
1539131191524351,1.0094758525978484,-0.0012817578393224949,-0.019592584115358136
1539131191540340,1.0065461203936827,-0.003479056992446772,-0.019714656290531707
1539131191556329,1.0081330586709392,-0.0021362630655374915,-0.020935378042267416
1539131191572319,1.0080109864957656,-6.713969634546402E-4,-0.01629663538567172
1539131191588308,1.0099641412985427,0.0022583352407110624,-0.014465552758068156
1539131191604297,1.0077668421454185,9.15541313801782E-4,-0.015075913633936011
1539131191620287,1.0083772030212863,0.0020141908903639205,-0.01617456321049815
1539131191636276,1.0045929655909056,0.003356984817273201,-0.019470511940184565
1539131191652265,1.0026398107881285,0.005920500495918191,-0.020569161516746703
1539131191668254,1.0049591821164263,0.007263294422827471,-0.017761501487754572
1539131191684244,1.0055695429922942,0.007751583123521755,-0.01629663538567172
1539131191700233,1.0059357595178149,0.006652933546959616,-0.014709697108415298
1539131191716222,1.0084992751964599,-0.001159685664148924,-0.014221408407721015
1539131191732212,1.0125276569771877,-0.0016479743648432077,-0.017883573662928143
1539131191748201,1.0117952239261463,0.0016479743648432077,-0.015197985809109582
1539131191764190,1.009597924773022,0.005920500495918191,-0.016662851911192433
1539131191780180,1.0075226977950713,0.00848401617456318,-0.013000686655985305
1539131191796169,1.0094758525978484,0.00579842832074462,-0.011657892729076025
1539131191812158,1.006179903868162,0.004821850919356052,-0.01226825360494388
1539131191828003,1.0080109864957656,0.006286717021438903,-0.012024109254596738
1539131191843991,1.0099641412985427,0.007751583123521755,-0.011657892729076025
1539131191859980,1.009597924773022,0.006530861371786045,-0.00836194399938961
1539131191875969,1.0127718013275349,0.01104753185320817,-0.010315098802166744
1539131191891958,1.009597924773022,0.012512397955291021,-0.009216449225604606
1539131191907947,1.0080109864957656,0.011535820553902454,-0.011657892729076025
1539131191923936,1.003616388189517,0.004821850919356052,-0.013244831006332447
1539131191939924,1.00337224383917,-5.493247882810692E-4,-0.014221408407721015
1539131191955913,1.0065461203936827,-0.0026245517662317752,-0.017639429312581
1539131191971902,1.0060578316929885,-0.0014038300144960658,-0.017883573662928143
1539131191987891,1.0066681925688563,0.004821850919356052,-0.014465552758068156
1539131192003880,1.0092317082475013,0.004455634393835339,-0.00970473792629889
1539131192019868,1.007034409094377,0.001037613488975353,-0.014343480582894585
1539131192035857,1.0058136873426413,7.934691386282111E-4,-0.01739528496223386
1539131192051846,1.008743419546807,0.005920500495918191,-0.01751735713740743
1539131192067835,1.0030060273136492,0.0109254596780346,-0.011291676203555312
1539131192083824,1.0065461203936827,0.013366903181506018,-0.011902037079423167
1539131192099813,1.011306935225452,0.010437170977340315,-0.012634470130464592
1539131192115801,1.0071564812695506,0.008728160524910322,-0.014221408407721015
1539131192131790,1.0049591821164263,9.15541313801782E-4,-0.015075913633936011
1539131192147613,1.0088654917219806,-0.006286717021438903,-0.017029068436713146
1539131192163602,1.0063019760433356,-0.010681315327687457,-0.018005645838101714
1539131192179590,1.0080109864957656,-0.013000686655985305,-0.020691233691920274
1539131192195578,1.009597924773022,-0.0040894178683146265,-0.012878614480811734
1539131192211567,1.0039826047150378,0.0060425726710917615,-0.019226367589837423
1539131192227555,1.0105745021744106,0.030823224231326662,-0.0071412222476539
1539131192243543,1.007034409094377,0.01995880064087885,-0.0071412222476539
1539131192259532,1.0084992751964599,0.008117799649042468,-0.013488975356679589
1539131192275520,1.0091096360723277,0.0026245517662317752,-0.01629663538567172
1539131192291508,1.0093537804226749,0.0025024795910582043,-0.014587624933241727
1539131192307497,1.010452429999237,0.012024109254596738,-0.008972304875257464
1539131192323485,1.0108186465247577,0.01861600671396957,-0.007995727473868897
1539131192339473,1.0091096360723277,0.011535820553902454,-0.010070954451819603
1539131192355462,1.007888914320592,-0.002868696116578917,-0.011291676203555312
1539131192371450,1.0043488212405585,-0.009338521400778177,-0.012634470130464592
1539131192387438,1.0058136873426413,-0.0020141908903639205,-0.01495384145876244
1539131192403427,1.0058136873426413,0.0023804074158846333,-0.01226825360494388
1539131192419415,1.0065461203936827,0.00970473792629889,-0.009460593575951748
1539131192435403,1.0071564812695506,0.015442130159456724,-0.010070954451819603
1539131192451392,1.0064240482185092,0.00579842832074462,-0.011779964904249596
1539131192467224,1.0037384603646906,-0.001159685664148924,-0.015808346684977437
1539131192483211,1.0038605325398642,0.0015259021896696368,-0.01751735713740743
1539131192499199,1.0017853055619135,0.008850232700083893,-0.01361104753185316
1539131192515186,1.0039826047150378,0.006775005722133187,-0.012146181429770309
1539131192531173,1.0074006256198977,6.713969634546402E-4,-0.01641870756084529
1539131192547161,1.0072785534447242,0.002746623941405346,-0.01629663538567172
1539131192563148,1.0067902647440299,0.007385366598001042,-0.015930418860151008
1539131192579136,1.0088654917219806,0.007507438773174613,-0.014099336232547444
1539131192595123,1.0091096360723277,0.002746623941405346,-0.014465552758068156
1539131192611110,1.0119172961013199,0.009582665751125319,-0.019714656290531707
1539131192627098,1.0102082856488899,0.009948882276646032,-0.01605249103532458
1539131192643085,1.0109407186999313,0.011657892729076025,-0.014465552758068156
1539131192659073,1.0103303578240634,0.00970473792629889,-0.018249790188448856
1539131192675060,1.0088654917219806,0.004943923094529623,-0.015808346684977437
1539131192691047,1.0108186465247577,0.010681315327687457,-0.016662851911192433
1539131192707035,1.0111848630502784,0.011902037079423167,-0.013244831006332447
1539131192723022,1.011306935225452,0.011413748378728883,-0.015808346684977437
1539131192739009,1.0116731517509727,0.012512397955291021,-0.017761501487754572
1539131192754997,1.010452429999237,0.008117799649042468,-0.018371862363622427
1539131192770984,1.0060578316929885,0.002868696116578917,-0.018493934538795997
1539131192786865,1.0034943160143435,-0.001159685664148924,-0.02130159456778813
1539131192802852,1.0023956664377813,-0.002868696116578917,-0.021667811093308842
1539131192818839,1.0020294499122606,-0.001159685664148924,-0.021911955443655984
1539131192834826,1.0026398107881285,0.003112840466926059,-0.017029068436713146
1539131192850813,1.0045929655909056,-1.831082627603564E-4,-0.018371862363622427
1539131192866799,1.005325398641947,-0.005554283970397478,-0.016784924086366004
1539131192882786,1.0056916151674677,-0.005920500495918191,-0.018005645838101714
1539131192898773,1.0056916151674677,-0.006286717021438903,-0.014465552758068156
1539131192914760,1.0071564812695506,-5.493247882810692E-4,-0.02130159456778813
1539131192930747,1.0088654917219806,0.004455634393835339,-0.02020294499122599
1539131192946734,1.007888914320592,0.009582665751125319,-0.015197985809109582
1539131192962721,1.0109407186999313,0.004821850919356052,-0.012756542305638163
1539131192978708,1.0119172961013199,-0.00323491264209963,-0.017883573662928143
1539131192994695,1.0102082856488899,-0.006286717021438903,-0.020691233691920274
1539131193010682,1.0103303578240634,0.0025024795910582043,-0.02154573891813527
1539131193026669,1.0075226977950713,0.0061646448462653325,-0.019470511940184565
1539131193042656,1.0111848630502784,0.0037232013427939137,-0.017639429312581
1539131193058642,1.0158236057068741,0.0037232013427939137,-0.016662851911192433
1539131193074629,1.0116731517509727,0.0039673456931410556,-0.012878614480811734
1539131193090616,1.0077668421454185,0.005188067444876765,-0.013855191882200302
1539131193106475,1.0064240482185092,0.0039673456931410556,-0.015686274509803866
1539131193122462,1.0082551308461127,9.15541313801782E-4,-0.025574120698863112
1539131193138448,1.0011749446860456,-7.934691386282111E-4,-0.017029068436713146
1539131193154435,1.0034943160143435,-0.0017700465400167786,-0.019348439765010994
1539131193170421,1.0083772030212863,-0.005432211795223907,-0.02532997634851597
1539131193186408,1.0055695429922942,-0.012878614480811734,-0.015075913633936011
1539131193202394,1.0093537804226749,9.15541313801782E-4,-0.023132677195391693
1539131193218381,1.0050812542916,0.0071412222476539,-0.018005645838101714
1539131193234367,1.0043488212405585,0.0022583352407110624,-0.023132677195391693
1539131193250353,1.0063019760433356,-0.010437170977340315,-0.01995880064087885
1539131193266340,1.008743419546807,-0.015197985809109582,-0.02398718242160669
1539131193282326,1.0099641412985427,-0.0109254596780346,-0.022156099794003126
1539131193298313,1.0092317082475013,0.001159685664148924,-0.015442130159456724
1539131193314299,1.0111848630502784,0.004333562218661768,-0.014465552758068156
1539131193330286,1.0106965743495842,0.0039673456931410556,-0.018127718013275285
1539131193346272,1.009597924773022,-0.003112840466926059,-0.015075913633936011
1539131193362259,1.006179903868162,5.493247882810692E-4,-0.016662851911192433
1539131193378245,1.0077668421454185,0.0021362630655374915,-0.018249790188448856
1539131193394231,1.0091096360723277,0.0016479743648432077,-0.017883573662928143
1539131193410218,1.0080109864957656,-0.007995727473868897,-0.019592584115358136
1539131193426117,1.0066681925688563,-0.011535820553902454,-0.021789883268482413
1539131193442103,1.0083772030212863,-0.0109254596780346,-0.020935378042267416
1539131193458089,1.0059357595178149,-0.006775005722133187,-0.022278171969176697
1539131193474076,1.0084992751964599,-0.00323491264209963,-0.02264438849469741
1539131193490062,1.0083772030212863,-0.003112840466926059,-0.025085831998168828
1539131193506049,1.0080109864957656,-0.009094377050431035,-0.024475471122300974
1539131193522035,1.0055695429922942,-0.01239032578011745,-0.02655069810025168
1539131193538022,1.003616388189517,-0.010193026626993174,-0.028259708552681673
1539131193554008,1.0052033264667735,-0.006530861371786045,-0.026184481574730967
1539131193569995,1.0086213473716334,0.005065995269703194,-0.02410925459678026
1539131193585981,1.0102082856488899,0.007873655298695326,-0.020447089341573133
1539131193601967,1.0082551308461127,7.934691386282111E-4,-0.01995880064087885
1539131193617954,1.0075226977950713,-0.0060425726710917615,-0.023743038071259548
1539131193633940,1.008743419546807,-0.0109254596780346,-0.027038986800945963
1539131193649927,1.0066681925688563,-0.013977264057373873,-0.024475471122300974
1539131193665913,1.007888914320592,-0.00970473792629889,-0.02777141985198739
1539131193681900,1.0111848630502784,-0.008239871824216038,-0.027649347676813818
1539131193697886,1.0120393682764934,-0.01104753185320817,-0.01995880064087885
1539131193713873,1.007034409094377,-0.006408789196612474,-0.024475471122300974
1539131193729859,1.0084992751964599,-0.005065995269703194,-0.021789883268482413
1539131193745758,1.0086213473716334,-0.0015259021896696368,-0.022156099794003126
1539131193761744,1.008743419546807,0.0037232013427939137,-0.020935378042267416
1539131193777730,1.0064240482185092,-6.103608758678547E-5,-0.016906996261539575
1539131193793716,1.0106965743495842,-9.15541313801782E-4,-0.019470511940184565
1539131193809702,1.010452429999237,-0.005920500495918191,-0.017761501487754572
1539131193825688,1.009597924773022,-0.004821850919356052,-0.01739528496223386
1539131193841673,1.0084992751964599,5.493247882810692E-4,-0.01873807888914314
1539131193857659,1.0081330586709392,-0.002868696116578917,-0.018493934538795997
1539131193873645,1.0064240482185092,-0.006530861371786045,-0.02020294499122599
1539131193889631,1.0074006256198977,-0.011779964904249596,-0.02264438849469741
1539131193905617,1.0088654917219806,-0.01226825360494388,-0.0214236667429617
1539131193921603,1.008743419546807,-0.00982681010147246,-0.02032501716639956
1539131193937589,1.0097199969481956,-0.009094377050431035,-0.02032501716639956
1539131193953575,1.0093537804226749,-0.010437170977340315,-0.019714656290531707
1539131193969561,1.0091096360723277,-0.010681315327687457,-0.02020294499122599
1539131193985547,1.0060578316929885,-0.008972304875257464,-0.02130159456778813
1539131194001533,1.0065461203936827,-0.0042114900434881974,-0.02288853284504455
1539131194017519,1.0060578316929885,-4.272526131074983E-4,-0.018005645838101714
1539131194033505,1.0045929655909056,0.004821850919356052,-0.01995880064087885
1539131194049491,0.9999542229343099,0.013122758831158876,-0.011535820553902454
1539131194065338,1.0135042343785763,0.006897077897306758,-0.023254749370565264
1539131194081323,1.0119172961013199,-0.004821850919356052,-0.017639429312581
1539131194097309,1.010452429999237,-0.0014038300144960658,-0.019836728465705278
1539131194113294,1.0105745021744106,-0.003479056992446772,-0.019348439765010994
1539131194129280,1.0069123369192035,-0.010193026626993174,-0.01886015106431671
1539131194145265,1.005325398641947,-0.014343480582894585,-0.020569161516746703
1539131194161251,1.0055695429922942,-0.022156099794003126,-0.023132677195391693
1539131194177236,1.0052033264667735,-0.02386511024643312,-0.02288853284504455
1539131194193222,1.0077668421454185,-0.01373311970702673,-0.02264438849469741
1539131194209207,1.0091096360723277,-0.00323491264209963,-0.020813305867093845
1539131194225193,1.0081330586709392,0.0018921187151903496,-0.016540779736018862
1539131194241178,1.005325398641947,-0.0060425726710917615,-0.02032501716639956
1539131194257164,1.0082551308461127,-0.01226825360494388,-0.022400244144350268
1539131194273149,1.0083772030212863,-0.0060425726710917615,-0.022034027618829555
1539131194289135,1.0114290074006256,0.004943923094529623,-0.023010605020218122
1539131194305120,1.0094758525978484,0.001037613488975353,-0.019470511940184565
1539131194321106,1.0088654917219806,-0.005432211795223907,-0.014587624933241727
1539131194337091,1.0099641412985427,-0.010559243152513886,-0.01861600671396957
1539131194353077,1.0108186465247577,-0.00982681010147246,-0.023132677195391693
1539131194369062,1.0091096360723277,-0.0012817578393224949,-0.02154573891813527
1539131194384948,1.0045929655909056,0.005310139620050336,-0.02020294499122599
1539131194400933,1.004470893415732,0.015564202334630295,-0.0214236667429617
1539131194416918,1.0063019760433356,0.01495384145876244,-0.01898222323949028
1539131194432903,1.0086213473716334,0.0071412222476539,-0.016906996261539575
1539131194448888,1.0089875638971542,-1.831082627603564E-4,-0.01739528496223386
1539131194464873,1.0097199969481956,-0.004943923094529623,-0.019226367589837423
1539131194480858,1.0119172961013199,-0.004821850919356052,-0.01629663538567172
1539131194496843,1.0083772030212863,-9.15541313801782E-4,-0.015930418860151008
1539131194512828,1.0071564812695506,0.0020141908903639205,-0.01495384145876244
1539131194528813,1.007888914320592,0.0038452735179674846,-0.019226367589837423
1539131194544798,1.0060578316929885,0.005065995269703194,-0.016906996261539575
1539131194560783,1.0077668421454185,0.004821850919356052,-0.01629663538567172
1539131194576769,1.0103303578240634,0.003356984817273201,-0.017639429312581
1539131194592754,1.0089875638971542,0.004455634393835339,-0.019470511940184565
1539131194608739,1.011306935225452,3.0518043793392735E-4,-0.013855191882200302
1539131194624724,1.0131380178530556,-3.0518043793392735E-4,-0.01641870756084529
1539131194640709,1.0103303578240634,-0.0038452735179674846,-0.015442130159456724
1539131194656694,1.007888914320592,-1.831082627603564E-4,-0.021179522392614558
1539131194672679,1.0056916151674677,0.007995727473868897,-0.01861600671396957
1539131194688664,1.0055695429922942,0.010681315327687457,-0.010315098802166744
1539131194704559,1.0065461203936827,0.007751583123521755,-0.011291676203555312
1539131194720543,1.0071564812695506,-3.0518043793392735E-4,-0.014221408407721015
1539131194736528,1.0074006256198977,-0.0039673456931410556,-0.01629663538567172
1539131194752513,1.0054474708171206,-0.002868696116578917,-0.015564202334630295
1539131194768497,1.0056916151674677,6.103608758678547E-5,-0.017639429312581
1539131194784482,1.0034943160143435,-0.0017700465400167786,-0.01629663538567172
1539131194800466,1.0026398107881285,-0.006775005722133187,-0.015686274509803866
1539131194816451,1.0043488212405585,-0.005920500495918191,-0.01886015106431671
1539131194832435,1.0020294499122606,-0.0022583352407110624,-0.015808346684977437
1539131194848420,1.002761882963302,4.272526131074983E-4,-0.008850232700083893
1539131194864404,1.0031280994888228,-0.003479056992446772,-0.011413748378728883
1539131194880389,1.0066681925688563,-0.011657892729076025,-0.015442130159456724
1539131194896373,1.007888914320592,-0.005920500495918191,-0.017639429312581
1539131194912358,1.0081330586709392,0.008850232700083893,-0.015808346684977437
1539131194928342,1.0064240482185092,0.016906996261539575,-0.012512397955291021
1539131194944327,1.0124055848020141,0.016906996261539575,-0.015442130159456724
1539131194960312,1.0117952239261463,0.015686274509803866,-0.014221408407721015
1539131194976296,1.0158236057068741,0.012634470130464592,-0.013977264057373873
1539131194992281,1.0166781109330891,0.013244831006332447,-0.014709697108415298
1539131195008265,1.0188754100862134,0.019226367589837423,-0.015197985809109582
1539131195024200,1.0149691004806591,0.016906996261539575,-0.007873655298695326
1539131195040184,1.0103303578240634,0.010559243152513886,-0.008239871824216038
1539131195056168,1.0048371099412527,0.001037613488975353,-0.013366903181506018
1539131195072152,1.0012970168612192,-0.012024109254596738,-0.022034027618829555
1539131195088136,1.0045929655909056,-0.00848401617456318,-0.028747997253375956
1539131195104120,1.0069123369192035,-0.0017700465400167786,-0.021667811093308842
1539131195120104,1.0071564812695506,0.007263294422827471,-0.01226825360494388
1539131195136088,1.0067902647440299,0.009460593575951748,-0.01104753185320817
1539131195152073,1.0039826047150378,0.011291676203555312,-0.01751735713740743
1539131195168057,1.0059357595178149,0.014099336232547444,-0.01995880064087885
1539131195184041,1.001052872510872,0.01605249103532458,-0.0214236667429617
1539131195200025,1.000808728160525,0.012756542305638163,-0.02130159456778813
1539131195216009,1.0022735942626078,0.00848401617456318,-0.019836728465705278
1539131195231993,1.0059357595178149,0.00579842832074462,-0.023620965896085977
1539131195247977,1.0111848630502784,1.831082627603564E-4,-0.021789883268482413
1539131195263961,1.0136263065537499,0.0040894178683146265,-0.018005645838101714
1539131195279945,1.0146028839551384,0.009582665751125319,-0.011413748378728883
1539131195295929,1.007034409094377,0.00848401617456318,-0.010803387502861028
1539131195311913,1.0072785534447242,0.008606088349736751,-0.01361104753185316
1539131195327897,1.0052033264667735,0.0060425726710917615,-0.012756542305638163
1539131195343811,1.0076447699702449,0.011779964904249596,-0.019104295414663852
1539131195359795,1.0089875638971542,0.015320057984283153,-0.014099336232547444
1539131195375779,1.0089875638971542,0.014343480582894585,-0.008606088349736751
1539131195391763,1.0115510795757992,0.007263294422827471,-0.015564202334630295
1539131195407747,1.0049591821164263,-0.0014038300144960658,-0.017273212787060288
1539131195423731,1.0058136873426413,-3.0518043793392735E-4,-0.017029068436713146
1539131195439715,1.006179903868162,0.0040894178683146265,-0.014465552758068156
1539131195455699,1.0074006256198977,0.008850232700083893,-0.014343480582894585
1539131195471683,1.0081330586709392,0.009460593575951748,-0.010681315327687457
1539131195487667,1.0094758525978484,0.004821850919356052,-0.010315098802166744
1539131195503651,1.0093537804226749,-0.0018921187151903496,-0.013244831006332447
1539131195519635,1.0076447699702449,-0.007263294422827471,-0.015930418860151008
1539131195535619,1.0077668421454185,-0.0021362630655374915,-0.019592584115358136
1539131195551603,1.0069123369192035,0.005065995269703194,-0.02423132677195383
1539131195567587,1.0034943160143435,0.008606088349736751,-0.021667811093308842
1539131195583572,1.0069123369192035,0.012146181429770309,-0.026184481574730967
1539131195599556,1.0074006256198977,0.00982681010147246,-0.024841687647821686
1539131195615540,1.006179903868162,0.01239032578011745,-0.019714656290531707
1539131195631524,1.0103303578240634,0.01861600671396957,-0.018005645838101714
1539131195647508,1.0103303578240634,0.020447089341573133,-0.016784924086366004
1539131195663421,1.0159456778820477,0.022278171969176697,-0.019592584115358136
1539131195679405,1.0205844205386434,0.01617456321049815,-0.02777141985198739
1539131195695388,1.0178988326848248,0.005920500495918191,-0.02532997634851597
1539131195711372,1.0176546883344777,5.493247882810692E-4,-0.024597543297474544
1539131195727356,1.0196078431372548,-0.004333562218661768,-0.024597543297474544
1539131195743339,1.0165560387579156,-3.0518043793392735E-4,-0.02398718242160669
1539131195759323,1.0210727092393377,0.0018921187151903496,-0.023620965896085977
1539131195775306,1.0183871213855191,-0.00323491264209963,-0.02288853284504455
1539131195791290,1.0063019760433356,-0.01617456321049815,-0.020569161516746703
1539131195807273,1.0045929655909056,-0.023010605020218122,-0.02276646066987098
1539131195823257,1.0032501716639963,-0.019592584115358136,-0.021911955443655984
1539131195839241,1.0043488212405585,-0.0040894178683146265,-0.023376821545738835
1539131195855224,0.9958037689784085,0.0042114900434881974,-0.016784924086366004
1539131195871208,0.9882352941176471,0.006408789196612474,-0.009948882276646032
1539131195887191,0.9848172732127871,0.004943923094529623,-0.01361104753185316
1539131195903175,0.9881132219424735,0.003479056992446772,-0.016906996261539575
1539131195919159,0.9915312428473335,-0.002746623941405346,-0.014465552758068156
1539131195935142,0.9973907072556649,-0.013366903181506018,-0.006897077897306758
1539131195951126,0.9997100785839628,-0.018127718013275285,0.001037613488975353
1539131195967109,1.0071564812695506,-0.03399710078583951,0.007995727473868897
1539131195983062,1.0244907301441977,-0.04571602960250232,0.01495384145876244
1539131195999046,1.0490272373540854,-0.04632639047837017,0.027527275501640247
1539131196015030,1.0439002059967954,-0.05011062790875087,0.07342641336690292
1539131196031013,1.0824750133516439,-0.0462043183031966,0.09271381704432713
1539131196046997,1.0944380865186538,-0.049134050507362304,0.13934538796063212
1539131196062980,1.1144579232471195,-0.06964217593652267,0.20477607385366614
1539131196078964,1.1243457694361787,-0.08197146562905333,0.2616617074845502
1539131196094947,1.128496223392081,-0.09649805447470827,0.3024338139925229
1539131196110931,1.1236133363851373,-0.10846112764171822,0.3342946517128249
1539131196126915,1.1176317998016323,-0.12738231479362172,0.350774395361257
1539131196142898,1.1072556649118788,-0.16437018387121372,0.3556572823681998
1539131196158882,1.1112840466926066,-0.17669947356374438,0.3317311360341799
1539131196174865,1.110307469291218,-0.18695353627832434,0.2953536278324558
1539131196190849,1.1107957579919123,-0.19305714503700333,0.24286259250782027
1539131196206833,1.0959029526207367,-0.17511253528648796,0.18084992751964624
1539131196222816,1.077592126344701,-0.1476462958724345,0.11602960250247918
1539131196238800,1.0702677958342868,-0.1018692301823454,0.046692607003890885
1539131196254783,1.035233081559472,-0.0613412680247194,-0.03326466773479808
1539131196270767,1.0108186465247577,-0.01361104753185316,-0.11224536507209892
1539131196286750,0.9839627679865721,0.03167772945754166,-0.19623102159151617
1539131196302673,0.9411154345006487,0.06268406195162868,-0.2544594491493095
1539131196318657,0.9274433508812088,0.10101472495612995,-0.29889372091248934
1539131196334640,0.8877698939497982,0.12408636606393486,-0.3299000534065768
1539131196350624,0.8645761806668188,0.1575341420614942,-0.3538261997405967
1539131196366607,0.8560311284046689,0.17938506141756339,-0.35700007629510955
1539131196382591,0.8550545510032803,0.19635309376668975,-0.34894331273365387
1539131196398574,0.8627450980392153,0.20184634164950044,-0.33185320820935393
1539131196414558,0.8913099870298318,0.19073777370870548,-0.30475318532082074
1539131196430542,0.9090104524299996,0.169253070878157,-0.3041428244449529
1539131196446525,0.9622339208056765,0.18109407186999338,-0.3429617761501489
1539131196462509,1.0504921034561683,0.22333104448004892,-0.4530708781567103
1539131196478492,1.2101625085832,0.3477225909819177,-0.6090791180285344
1539131196494476,1.3349202716105895,0.4597848477912567,-0.7903562981612877
1539131196510460,1.4461280231937135,0.37067215991454905,-0.7409170672159915
1539131196526443,1.5269398031586174,0.042786297398336615,-0.4071717402914472
1539131196542427,1.3094071869993131,-3.9998779278248264,4.0
1539131196558410,1.2005188067444879,-0.42243076218814357,0.6083466849774926
1539131196574394,1.3826504921034566,0.07061875333791079,-0.27570000762951086
1539131196590377,1.075638971541924,-0.16791027695124727,-0.07257190814068837
1539131196606361,0.9826199740596628,0.14288548104066567,-0.16339360646982515
1539131196622284,0.966628519111925,-0.036194399938963784,0.04522774090180803
1539131196638267,0.933913176165408,-0.011291676203555312,0.046814679179064456
1539131196654250,0.9394064240482187,-0.036316472114137355,0.005310139620050336
1539131196670233,0.9677271686884872,-0.01886015106431671,-0.05242999923704872
1539131196686216,0.9818875410086214,0.011413748378728883,-0.09954985885404755
1539131196702199,0.98115510795758,0.033630884260318794,-0.12298771648737317
1539131196718182,0.96748302433814,0.05218585488670158,-0.11969176775768675
1539131196734165,0.9682154573891815,0.052063782711528006,-0.0858777752346076
1539131196750148,0.97773708705272,0.04083314259555948,-0.05535973144121442
1539131196766132,0.982009613183795,0.03216601815823594,-0.02789349202716096
1539131196782115,0.9793240253299764,0.021911955443655984,-0.008728160524910322
1539131196798098,0.9818875410086214,0.00457770656900891,0.013000686655985305
1539131196814081,0.987136644541085,-0.014221408407721015,0.029602502479590953
1539131196830064,0.9933623254749371,-0.0424200808728159,0.05035477225909801
1539131196846047,0.9978789959563592,-0.06060883497367797,0.0634164950026701
1539131196862030,1.005325398641947,-0.0657358663309684,0.06475928892957938
1539131196878013,1.0031280994888228,-0.07464713511863907,0.06463721675440581
1539131196893996,1.0049591821164263,-0.0762340733958955,0.06976424811169579
1539131196909979,1.00166323338674,-0.08429083695735118,0.07550164034485363
1539131196925963,1.0009308003356985,-0.08599984740978117,0.07122911421377864
1539131196941894,0.9984893568322271,-0.08465705348287189,0.06927595941100151
1539131196957877,0.9961699855039292,-0.08575570305943403,0.06451514457923224
1539131196973860,0.9967803463797971,-0.08245975432974761,0.053284504463263715
1539131196989843,0.9999542229343099,-0.08429083695735118,0.050598916609445155
1539131197005827,1.0023956664377813,-0.07550164034485407,0.04205386434729519
1539131197021810,0.9932402532997635,-0.06268406195162912,0.02679484245059882
1539131197037793,0.9868925001907378,-0.050720988784618726,0.011779964904249596
1539131197053776,0.9843289845120928,-0.050476844434271584,0.005554283970397478
1539131197069759,0.9916533150225071,-0.04461738002594018,0.004943923094529623
1539131197085742,0.98970016021973,-0.04083314259555948,-3.0518043793392735E-4
1539131197101725,0.985427634088655,-0.03216601815823594,0.004699778744182481
1539131197117708,0.9870145723659114,-0.031311512932020946,0.01361104753185316
1539131197133691,0.9962920576791028,-0.03704890516517878,0.03167772945754166
1539131197149675,1.0103303578240634,-0.038879987792782345,0.04644846265354374
1539131197165658,1.0080109864957656,-0.041565575646600905,0.05426108186465228
1539131197181641,1.006179903868162,-0.03692683299000521,0.05951018539711583
1539131197197624,1.0067902647440299,-0.03070115205615309,0.059876401922636546
1539131197213607,1.0137483787289234,-0.027038986800945963,0.06646829938200938
1539131197229590,1.0139925230792706,-0.026184481574730967,0.06488136110475295
1539131197245573,1.0144808117799649,-0.021057450217440987,0.06012054627298369
1539131197261505,1.0244907301441977,-0.012024109254596738,0.04840161745632088
1539131197277487,1.024979018844892,-0.021789883268482413,0.04180971999694805
1539131197293470,1.0230258640421148,-0.025696192874036683,0.038879987792782345
1539131197309453,1.0142366674296177,-0.03216601815823594,0.03057907988097952
1539131197325435,1.0065461203936827,-0.029480430304417382,0.01898222323949028
1539131197341418,1.0047150377660792,-0.03045700770580595,0.011657892729076025
1539131197357401,1.0030060273136492,-0.03411917296101308,0.009094377050431035
1539131197373383,1.0069123369192035,-0.042786297398336615,0.00323491264209963
1539131197389366,1.0143587396047913,-0.08038452735179691,0.0386358434424352
1539131197405348,1.0185091935606927,-0.09869535362783255,0.08538948653391287
1539131197421331,1.014724956130312,-0.07220569161516766,0.07501335164415934
1539131197437314,1.0194857709620813,-0.03045700770580595,0.02642862592507811
1539131197453296,1.0244907301441977,-0.006652933546959616,-0.01739528496223386
1539131197469279,1.0196078431372548,0.006775005722133187,-0.03814755474174092
1539131197485262,1.0268101014724955,0.01605249103532458,-0.04095521477073305
1539131197501244,1.0186312657358663,0.01739528496223386,-0.016540779736018862
1539131197517227,1.0157015335317006,-0.0042114900434881974,0.019470511940184565
1539131197533209,1.0171663996337834,-0.02545204852368954,0.05865568017090084
1539131197549192,1.0094758525978484,-0.031067368581673804,0.042908369573510186
1539131197565175,1.0091096360723277,-0.02252231631952384,0.002990768291752488
1539131197581115,1.0089875638971542,-0.025085831998168828,-0.010315098802166744
1539131197597098,1.0084992751964599,-0.04351873044937804,0.0015259021896696368
1539131197613081,1.0012970168612192,-0.04986648355840373,0.0214236667429617
1539131197629063,1.0020294499122606,-0.03790341039139378,0.02545204852368954
1539131197645046,0.9932402532997635,-0.017273212787060288,0.013122758831158876
1539131197661028,1.0031280994888228,-0.003479056992446772,0.004699778744182481
1539131197677011,1.002517738612955,-0.0017700465400167786,0.0021362630655374915
1539131197692994,1.0077668421454185,-0.013366903181506018,0.014221408407721015
1539131197708976,1.0066681925688563,-0.01751735713740743,0.01873807888914314
1539131197724959,1.0038605325398642,-0.021911955443655984,0.012756542305638163
1539131197740942,1.0034943160143435,-0.028381780727855244,0.0109254596780346
1539131197756924,1.000198367284657,-0.03558403906309593,0.011535820553902454
1539131197772907,0.9995880064087892,-0.03179980163271523,0.014465552758068156
1539131197788890,1.0043488212405585,-0.01751735713740743,0.005310139620050336
1539131197804872,1.00166323338674,-0.008239871824216038,-0.0018921187151903496
1539131197820855,1.0026398107881285,-0.009216449225604606,-1.831082627603564E-4
1539131197836837,1.0081330586709392,-0.015686274509803866,-0.0016479743648432077
1539131197852820,1.0141145952544441,-0.01861600671396957,-0.008850232700083893
1539131197868803,1.0152132448310063,-0.023010605020218122,-0.0038452735179674846
1539131197884785,1.0159456778820477,-0.030090791180285237,0.004821850919356052
1539131197900756,1.0165560387579156,-0.029480430304417382,0.006652933546959616
1539131197916739,1.0153353170061798,-0.02911421377889667,0.007385366598001042
1539131197932722,1.0153353170061798,-0.02679484245059882,0.0017700465400167786
1539131197948704,1.0020294499122606,-0.023620965896085977,-0.007019150072480329
1539131197964687,0.9975127794308385,-0.025085831998168828,-0.005432211795223907
1539131197980670,0.9959258411535821,-0.02020294499122599,-0.007751583123521755
1539131197996652,1.0006866559853513,-0.019714656290531707,-0.009216449225604606
1539131198012635,1.0020294499122606,-0.0252079041733424,0.0021362630655374915
1539131198028617,1.0012970168612192,-0.02642862592507811,0.004455634393835339
1539131198044600,1.0091096360723277,-0.024475471122300974,0.008850232700083893
1539131198060583,1.019851987487602,-0.020935378042267416,0.005676356145571049
1539131198076565,1.0186312657358663,-0.020569161516746703,0.009216449225604606
1539131198092548,1.0180209048599984,-0.0214236667429617,0.024353398947127403
1539131198108531,1.0161898222323948,-0.020447089341573133,0.02008087281605242
1539131198124513,1.0083772030212863,-0.02911421377889667,0.013977264057373873
1539131198140496,1.000198367284657,-0.037781338216220206,0.0061646448462653325
1539131198156479,0.9958037689784085,-0.036316472114137355,-0.006775005722133187
1539131198172461,0.9899443045700771,-0.019836728465705278,-0.012756542305638163
1539131198188444,0.99140917067216,-0.010559243152513886,-0.0040894178683146265
1539131198204426,1.0015411612115663,-0.008850232700083893,-0.00457770656900891
1539131198220367,1.0080109864957656,-0.020447089341573133,0.0023804074158846333
1539131198236349,1.015579461356527,-0.029480430304417382,0.014099336232547444
1539131198252331,1.0208285648889905,-0.03070115205615309,0.017639429312581
1539131198268314,1.0211947814145113,-0.029480430304417382,0.019836728465705278
1539131198284296,1.0197299153124284,-0.028137636377508102,0.02032501716639956
1539131198300278,1.0142366674296177,-0.027405203326466676,0.024597543297474544
1539131198316260,1.0050812542916,-0.03302052338445094,0.024475471122300974
1539131198332242,1.001052872510872,-0.03802548256656735,0.021667811093308842
1539131198348224,0.9981231403067063,-0.03216601815823594,0.01495384145876244
1539131198364206,0.9906767376211185,-0.014465552758068156,0.011902037079423167
1539131198380189,0.9812771801327536,-0.006530861371786045,0.007263294422827471
1539131198396171,0.9920195315480278,-0.01226825360494388,0.006897077897306758
1539131198412153,1.0171663996337834,-0.02032501716639956,0.0061646448462653325
1539131198428135,1.0222934309910734,-0.024353398947127403,0.014221408407721015
1539131198444117,1.0265659571221484,-0.028625925078202386,0.019348439765010994
1539131198460099,1.0347447928587776,-0.03607232776379021,0.02789349202716096
1539131198476081,1.0327916380560005,-0.04376287479972518,0.043030441748683756
1539131198492064,1.0415808346684976,-0.03692683299000521,0.04486152437628732
1539131198508046,1.0293736171511405,-0.028625925078202386,0.03936827649347663
1539131198524028,1.010452429999237,-0.014587624933241727,0.03472953383688093
1539131198539978,0.9910429541466392,-0.00323491264209963,0.02154573891813527
1539131198555960,0.9727321278706036,-0.0039673456931410556,0.014099336232547444
1539131198571942,0.9569848172732129,-0.006408789196612474,0.0023804074158846333
1539131198587924,0.947585259784848,-0.02386511024643312,-0.0015259021896696368
1539131198603906,0.9556420233463037,-0.05145342183566015,0.003112840466926059
1539131198619888,0.9792019531548029,-0.05902189669642155,0.0042114900434881974
1539131198635871,1.0021515220874342,-0.051941710536354435,0.02020294499122599
1539131198651853,1.0193636987869077,-0.03729304951552592,0.02911421377889667
1539131198667835,1.0307164110780498,-0.031067368581673804,0.039124132143129486
1539131198683817,1.036087586785687,-0.024475471122300974,0.037781338216220206
1539131198699799,1.0291294728007934,-0.020569161516746703,0.02386511024643312
1539131198715781,1.0157015335317006,-0.024597543297474544,0.01898222323949028
1539131198731763,1.0119172961013199,-0.026306553749904538,0.010803387502861028
1539131198747746,1.010452429999237,-0.025085831998168828,0.001037613488975353
1539131198763728,1.001907377737087,-0.032532234683756656,0.005310139620050336
1539131198779710,0.9960479133287556,-0.03265430685893023,0.005554283970397478
1539131198795692,0.9939726863508049,-0.031311512932020946,0.012756542305638163
1539131198811674,1.0017853055619135,-0.024841687647821686,0.021789883268482413
1539131198827656,1.0059357595178149,-0.015442130159456724,0.019104295414663852
1539131198843639,1.0066681925688563,-0.01605249103532458,0.025940337224383825
1539131198859588,1.0049591821164263,-0.017883573662928143,0.02154573891813527
1539131198875570,1.0054474708171206,-0.027283131151293105,0.027283131151293105
1539131198891553,1.0037384603646906,-0.03265430685893023,0.025574120698863112
1539131198907535,1.000198367284657,-0.036194399938963784,0.02911421377889667
1539131198923517,1.0017853055619135,-0.027649347676813818,0.028381780727855244
1539131198939499,1.0022735942626078,-0.02642862592507811,0.01605249103532458
1539131198955481,0.9971465629053178,-0.03973449301899734,0.015564202334630295
1539131198971463,0.9960479133287556,-0.04864576180666802,0.012024109254596738
1539131198987445,1.0080109864957656,-0.04852368963149445,0.011413748378728883
1539131199003428,1.0088654917219806,-0.05279621576256943,0.010803387502861028
1539131199019410,1.0133821622034027,-0.047913328755626594,0.005920500495918191
1539131199035392,1.0072785534447242,-0.044251163500419466,0.0061646448462653325
1539131199051374,1.0080109864957656,-0.03582818341344307,0.0071412222476539
1539131199067356,1.009597924773022,-0.028625925078202386,0.005065995269703194
1539131199083338,1.0086213473716334,-0.030212863355458808,0.002868696116578917
1539131199099321,1.0091096360723277,-0.03436331731136022,0.0036011291676203427
1539131199115303,1.0102082856488899,-0.03741512169069949,-9.15541313801782E-4
1539131199131285,1.0076447699702449,-0.03997863736934448,-0.0017700465400167786
1539131199147267,1.0093537804226749,-0.04071107042038591,0.0021362630655374915
1539131199163249,1.0094758525978484,-0.03167772945754166,0.0012817578393224949
1539131199179199,1.0109407186999313,-0.02532997634851597,0.004821850919356052
1539131199195181,1.0128938735027084,-0.027038986800945963,0.0026245517662317752
1539131199211163,1.0097199969481956,-0.023620965896085977,-6.103608758678547E-5
1539131199227145,1.0058136873426413,-0.024841687647821686,6.713969634546402E-4
1539131199243127,1.009597924773022,-0.03289845120927737,-0.005554283970397478
1539131199259110,1.0041046768902113,-0.04315251392385733,-0.012512397955291021
1539131199275092,1.0006866559853513,-0.04779125658045302,-0.013122758831158876
1539131199291074,0.9972686350804914,-0.04486152437628732,-0.012878614480811734
1539131199307056,0.9964141298542764,-0.035217822537575216,-0.011169604028381741
1539131199323038,1.001907377737087,-0.023498893720912406,-0.005676356145571049
1539131199339020,1.005325398641947,-0.015197985809109582,-0.0037232013427939137
1539131199355003,1.0088654917219806,0.0012817578393224949,-0.0012817578393224949
1539131199370985,1.007034409094377,-0.003112840466926059,0.002868696116578917
1539131199386967,1.0103303578240634,-0.04449530785076661,0.006408789196612474
1539131199402949,1.0154573891813534,-0.07696650644693692,0.006286717021438903
1539131199418931,1.018142977035172,-0.0800183108262762,-0.0026245517662317752
1539131199434913,1.018997482261387,-0.06439307240405912,-0.0026245517662317752
1539131199450895,1.0136263065537499,-0.04693675135423803,0.002990768291752488
1539131199466878,1.0049591821164263,-0.03839169909208806,0.0037232013427939137
1539131199482860,0.9992217898832685,-0.05389486533913157,0.0012817578393224949
1539131199498809,1.0026398107881285,-0.07000839246204338,0.0020141908903639205
1539131199514791,1.004226749065385,-0.062439917601281536,0.0039673456931410556
1539131199530773,1.0028839551384756,-0.051819638361180864,0.01495384145876244
1539131199546754,1.002761882963302,-0.04071107042038591,0.020813305867093845
1539131199562736,0.9994659342336156,-0.03411917296101308,0.02398718242160669
1539131199578718,1.000808728160525,-0.03741512169069949,0.01995880064087885
1539131199594699,0.9966582742046235,-0.04364080262455161,0.01373311970702673
1539131199610681,0.9940947585259785,-0.04351873044937804,0.017639429312581
1539131199626663,0.9931181811245899,-0.037781338216220206,0.018493934538795997
1539131199642645,0.9929961089494164,-0.033752956435492365,0.016784924086366004
1539131199658626,1.0015411612115663,-0.03704890516517878,0.00970473792629889
1539131199674608,1.002761882963302,-0.03961242084382377,0.01373311970702673
1539131199690590,1.0045929655909056,-0.03839169909208806,0.01898222323949028
1539131199706571,1.013015945677882,-0.03326466773479808,0.01751735713740743
1539131199722553,1.0124055848020141,-0.02923628595407024,0.016540779736018862
1539131199738535,1.0066681925688563,-0.03167772945754166,0.022156099794003126
1539131199754516,1.0066681925688563,-0.028747997253375956,0.019836728465705278
1539131199770498,1.0097199969481956,-0.028503852903028815,0.010437170977340315
1539131199786480,1.0127718013275349,-0.028137636377508102,0.009582665751125319
1539131199802461,1.0115510795757992,-0.02679484245059882,0.0038452735179674846
1539131199818420,1.0143587396047913,-0.031067368581673804,0.011535820553902454
1539131199834402,1.0142366674296177,-0.03472953383688093,0.012512397955291021
1539131199850383,1.0146028839551384,-0.031189440756847375,0.008239871824216038
1539131199866365,1.0157015335317006,-0.02789349202716096,0.010315098802166744
1539131199882347,1.014724956130312,-0.020691233691920274,0.010437170977340315
1539131199898328,1.0102082856488899,-0.020447089341573133,0.012024109254596738
1539131199914310,1.0064240482185092,-0.026306553749904538,0.009948882276646032
1539131199930292,1.0020294499122606,-0.03057907988097952,0.007263294422827471
1539131199946273,0.9997100785839628,-0.03326466773479808,0.009216449225604606
1539131199962255,0.9987335011825742,-0.032288090333409514,0.008972304875257464
1539131199978237,0.9993438620584421,-0.032288090333409514,0.008972304875257464
1539131199994218,0.9976348516060121,-0.029724574654764524,0.01104753185320817
1539131200010200,0.9950713359273671,-0.028747997253375956,0.015320057984283153
1539131200026182,0.9988555733577478,-0.03179980163271523,0.015808346684977437
1539131200042163,1.0122835126268406,-0.031067368581673804,0.007629510948348184
1539131200058145,1.0180209048599984,-0.027527275501640247,0.012146181429770309
1539131200074127,1.0169222552834363,-0.017273212787060288,0.02032501716639956
1539131200090108,1.015579461356527,-0.00848401617456318,0.01861600671396957
1539131200106090,0.9989776455329213,-0.02911421377889667,0.023620965896085977
1539131200122072,0.9939726863508049,-0.05426108186465228,0.011902037079423167
1539131200138031,0.9955596246280614,-0.06353856717784412,0.001159685664148924
1539131200154012,0.9995880064087892,-0.05267414358739586,-0.008606088349736751
1539131200169994,1.008743419546807,-0.03668268863965807,-0.00836194399938961
1539131200185976,1.0115510795757992,-0.00970473792629889,9.15541313801782E-4
1539131200201957,1.0188754100862134,0.007263294422827471,-0.0025024795910582043
1539131200217939,1.016433966582742,0.004455634393835339,-0.0014038300144960658
1539131200233921,1.021560997940032,-0.009094377050431035,-0.0014038300144960658
1539131200249902,1.0149691004806591,-0.012878614480811734,-6.103608758678547E-5
1539131200265884,1.013015945677882,-0.016662851911192433,0.0022583352407110624
1539131200281866,1.0066681925688563,-0.020569161516746703,0.0038452735179674846
1539131200297847,1.0050812542916,-0.019348439765010994,3.0518043793392735E-4
1539131200313829,1.0037384603646906,-0.014221408407721015,0.0039673456931410556
1539131200329811,1.003616388189517,-0.017151140611886717,0.010193026626993174
1539131200345792,1.0094758525978484,-0.019836728465705278,0.014709697108415298
1539131200361774,1.0098420691233692,-0.019592584115358136,0.004699778744182481
1539131200377756,1.0050812542916,-0.011291676203555312,-0.012512397955291021
1539131200393737,1.0030060273136492,0.007751583123521755,-0.024597543297474544
1539131200409719,0.9938506141756314,0.01104753185320817,-0.02008087281605242
1539131200425701,0.9976348516060121,-0.006652933546959616,-0.008239871824216038
1539131200441682,1.0030060273136492,-0.023376821545738835,-0.005676356145571049
1539131200457641,1.0065461203936827,-0.028503852903028815,-0.013000686655985305
1539131200473623,1.0122835126268406,-0.024353398947127403,-0.007263294422827471
1539131200489605,1.0176546883344777,-0.00970473792629889,0.007629510948348184
1539131200505586,1.0170443274586098,0.004821850919356052,0.006408789196612474
1539131200521568,1.0093537804226749,-0.0023804074158846333,0.00323491264209963
1539131200537550,1.0014190890363928,-0.018005645838101714,-0.0042114900434881974
1539131200553531,0.9988555733577478,-0.019714656290531707,-0.012878614480811734
1539131200569513,1.0039826047150378,-0.010315098802166744,-0.012024109254596738
1539131200585495,1.0076447699702449,-0.0018921187151903496,-0.012756542305638163
1539131200601476,1.0039826047150378,-0.0016479743648432077,-0.0020141908903639205
1539131200617458,1.0065461203936827,-0.009094377050431035,0.009216449225604606
1539131200633440,1.0114290074006256,-9.15541313801782E-4,-9.15541313801782E-4
1539131200649421,1.0060578316929885,-0.00970473792629889,-0.0014038300144960658
1539131200665403,1.0052033264667735,-0.019592584115358136,0.010315098802166744
1539131200681385,1.0048371099412527,-0.007019150072480329,0.0023804074158846333
1539131200697366,1.002761882963302,0.006408789196612474,-0.0018921187151903496
1539131200713348,1.0005645838101778,-0.004821850919356052,0.015075913633936011
1539131200729330,1.0055695429922942,-0.01239032578011745,0.015564202334630295
1539131200745311,1.008743419546807,-0.0109254596780346,0.005676356145571049
1539131200761293,1.0028839551384756,-0.019470511940184565,0.012756542305638163
1539131200777252,1.0022735942626078,-0.021789883268482413,0.019836728465705278
1539131200793233,1.0043488212405585,-0.007873655298695326,0.012756542305638163
1539131200809215,1.003616388189517,-0.004333562218661768,0.017883573662928143
1539131200825197,1.004226749065385,-0.01239032578011745,0.02154573891813527
1539131200841179,1.0071564812695506,-0.018005645838101714,0.021911955443655984
1539131200857160,1.010452429999237,-0.01873807888914314,0.018371862363622427
1539131200873142,1.0091096360723277,-0.023743038071259548,0.01886015106431671
1539131200889124,1.0092317082475013,-0.024841687647821686,0.019592584115358136
1539131200905105,1.0066681925688563,-0.02008087281605242,0.021179522392614558
1539131200921087,1.0091096360723277,-0.011291676203555312,0.023376821545738835
1539131200937069,1.0047150377660792,-0.006775005722133187,0.026062409399557396
1539131200953050,1.0067902647440299,-0.0060425726710917615,0.023376821545738835
1539131200969032,1.0076447699702449,-0.009948882276646032,0.025940337224383825
1539131200985014,1.0160677500572213,-0.019348439765010994,0.027161058976119534
1539131201000995,1.026932173647669,-0.018371862363622427,0.03155565728236809
1539131201016977,1.0364538033112076,-0.0071412222476539,0.03326466773479808
1539131201032959,1.0325474937056534,0.002990768291752488,0.03826962691691449
1539131201048940,1.0144808117799649,0.004333562218661768,0.03179980163271523
1539131201064922,0.9992217898832685,-4.272526131074983E-4,0.01861600671396957
1539131201080904,0.9911650263218128,-0.011902037079423167,0.004699778744182481
1539131201096862,0.9873807888914321,-0.020691233691920274,-0.0018921187151903496
1539131201112844,0.9857938506141757,-0.0252079041733424,5.493247882810692E-4
1539131201128825,0.9873807888914321,-0.029968719005111666,0.003479056992446772
1539131201144806,0.9912870984969864,-0.032410162508583085,0.010437170977340315
1539131201160787,0.9950713359273671,-0.03143358510719452,0.017883573662928143
1539131201176768,0.9981231403067063,-0.026184481574730967,0.021789883268482413
1539131201192750,0.9998321507591363,-0.020691233691920274,0.023254749370565264
1539131201208731,0.9925078202487221,-0.0214236667429617,0.016906996261539575
1539131201224712,0.9944609750514992,-0.026184481574730967,0.011779964904249596
1539131201240693,0.9953154802777142,-0.027405203326466676,0.012024109254596738
1539131201256674,0.9986114290074006,-0.02777141985198739,0.015930418860151008
1539131201272656,1.0080109864957656,-0.02264438849469741,0.024963759822995257
1539131201288637,1.0128938735027084,-0.020569161516746703,0.031311512932020946
1539131201304618,1.0202182040131227,-0.016784924086366004,0.03155565728236809
1539131201320599,1.021560997940032,-0.011169604028381741,0.029602502479590953
1539131201336580,1.016433966582742,-0.010070954451819603,0.0252079041733424
1539131201352562,1.0117952239261463,-0.013366903181506018,0.028870069428549527
1539131201368543,1.0116731517509727,-0.007507438773174613,0.02679484245059882
1539131201384524,1.0048371099412527,-0.004333562218661768,0.017883573662928143
1539131201400505,0.9976348516060121,-0.011169604028381741,0.015442130159456724
1539131201416504,0.9958037689784085,-0.01873807888914314,0.012878614480811734
1539131201432485,1.001052872510872,-0.02154573891813527,0.007507438773174613
1539131201448466,1.001907377737087,-0.01629663538567172,0.00970473792629889
1539131201464447,1.0015411612115663,-0.014709697108415298,0.013244831006332447
1539131201480428,1.003616388189517,-0.013122758831158876,0.014709697108415298
1539131201496410,1.0047150377660792,-0.014587624933241727,0.010681315327687457
1539131201512391,1.0054474708171206,-0.015442130159456724,0.01739528496223386
1539131201528372,1.0032501716639963,-0.010681315327687457,0.01483176928358887
1539131201544353,1.001907377737087,-0.003356984817273201,0.009338521400778177
1539131201560334,1.0000762951094835,-0.005554283970397478,0.008728160524910322
1539131201576316,1.0004425116350042,-0.006286717021438903,0.016906996261539575
1539131201592297,1.002761882963302,-0.0020141908903639205,0.014099336232547444
1539131201608278,0.9990997177080949,-0.006286717021438903,0.017639429312581
1539131201624259,0.9960479133287556,-0.013366903181506018,0.019592584115358136
1539131201640240,1.0005645838101778,-0.01226825360494388,0.011169604028381741
1539131201656221,1.0039826047150378,-0.011902037079423167,0.010070954451819603
1539131201672203,0.9983672846570535,-0.015808346684977437,0.012634470130464592
1539131201688184,0.9969024185549706,-0.01629663538567172,0.014587624933241727
1539131201704165,1.0000762951094835,-0.017761501487754572,0.00836194399938961
1539131201720146,1.0054474708171206,-0.01751735713740743,0.0016479743648432077
1539131201736114,1.0092317082475013,-0.016906996261539575,0.009338521400778177
1539131201752095,1.0128938735027084,-0.011413748378728883,0.017883573662928143
1539131201768077,1.0153353170061798,-0.007873655298695326,0.014465552758068156
1539131201784058,1.0202182040131227,-0.011779964904249596,0.013488975356679589
1539131201800039,1.0194857709620813,-0.010070954451819603,0.019592584115358136
1539131201816020,1.023514152742809,-0.0020141908903639205,0.016906996261539575
1539131201832001,1.0272983901731898,-0.003112840466926059,0.01995880064087885
1539131201847983,1.0265659571221484,-0.005676356145571049,0.025696192874036683
1539131201863964,1.0287632562752727,-0.005920500495918191,0.026916914625772392
1539131201879945,1.0274204623483634,-0.003356984817273201,0.02777141985198739
1539131201895926,1.0227817196917677,0.0017700465400167786,0.02264438849469741
1539131201911907,1.0159456778820477,0.00579842832074462,0.02032501716639956
1539131201927888,1.0100862134737163,6.103608758678547E-5,0.019714656290531707
1539131201943870,1.0071564812695506,-0.014099336232547444,0.019470511940184565
1539131201959851,1.003616388189517,-0.02276646066987098,0.012634470130464592
1539131201975832,1.0032501716639963,-0.02935835812924381,0.013122758831158876
1539131201991813,1.0065461203936827,-0.02789349202716096,0.01617456321049815
1539131202007794,1.0047150377660792,-0.019226367589837423,0.020935378042267416
1539131202023776,1.0005645838101778,-0.016906996261539575,0.02020294499122599
1539131202039757,0.9945830472266728,-0.018127718013275285,0.020569161516746703
1539131202055725,0.9960479133287556,-0.017761501487754572,0.016784924086366004
1539131202071706,0.9962920576791028,-0.018371862363622427,0.019348439765010994
1539131202087687,0.9981231403067063,-0.019836728465705278,0.02008087281605242
1539131202103668,0.9932402532997635,-0.020813305867093845,0.02130159456778813
1539131202119650,0.9927519645990692,-0.01861600671396957,0.018127718013275285
1539131202135631,0.9939726863508049,-0.013244831006332447,0.015320057984283153
1539131202151612,0.9945830472266728,-0.009338521400778177,0.01739528496223386
1539131202167593,0.9970244907301442,-0.009216449225604606,0.01739528496223386
1539131202183574,0.9966582742046235,-0.015564202334630295,0.01873807888914314
1539131202199555,0.9934843976501107,-0.015442130159456724,0.017151140611886717
1539131202215537,0.99140917067216,-0.007995727473868897,0.021789883268482413
1539131202231518,0.9948271915770199,-1.831082627603564E-4,0.018371862363622427
1539131202247499,1.0063019760433356,-0.0020141908903639205,0.01617456321049815
1539131202263480,1.0142366674296177,-0.014465552758068156,0.02642862592507811
1539131202279461,1.0204623483634698,-0.016906996261539575,0.02789349202716096
1539131202295443,1.027542534523537,-0.013244831006332447,0.024719615472648115
1539131202311424,1.0261997405966277,-0.012512397955291021,0.028503852903028815
1539131202327405,1.0220492866407263,-0.0061646448462653325,0.026184481574730967
1539131202343386,1.0196078431372548,-0.003356984817273201,0.023743038071259548
1539131202359367,1.0148470283054856,-0.0040894178683146265,0.01995880064087885
1539131202375366,1.0106965743495842,-0.0025024795910582043,0.017639429312581
1539131202391347,1.0064240482185092,-0.0061646448462653325,0.020447089341573133
1539131202407328,1.0043488212405585,-0.0109254596780346,0.017883573662928143
1539131202423309,1.0092317082475013,-0.007385366598001042,0.013977264057373873
1539131202439291,1.0034943160143435,-0.010803387502861028,0.018127718013275285
1539131202455272,0.9978789959563592,-0.02276646066987098,0.024475471122300974
1539131202471253,0.9972686350804914,-0.019714656290531707,0.024597543297474544
1539131202487234,1.0106965743495842,-0.01373311970702673,0.018127718013275285
1539131202503215,1.006179903868162,-0.010681315327687457,0.02667277027542525
1539131202519197,1.0098420691233692,1.831082627603564E-4,0.028870069428549527
1539131202535178,0.9973907072556649,-0.007385366598001042,0.02667277027542525
1539131202551159,0.9958037689784085,-0.020691233691920274,0.02410925459678026
1539131202567140,0.9948271915770199,-0.02655069810025168,0.019104295414663852
1539131202583121,0.9988555733577478,-0.026306553749904538,0.018493934538795997
1539131202599103,1.0000762951094835,-0.021667811093308842,0.02398718242160669
1539131202615084,1.0006866559853513,-0.02008087281605242,0.03045700770580595
1539131202631065,1.0032501716639963,-0.02032501716639956,0.023254749370565264
1539131202647046,0.9982452124818799,-0.023376821545738835,0.025940337224383825
1539131202663027,1.0004425116350042,-0.022278171969176697,0.02545204852368954
1539131202679009,1.0054474708171206,-0.017883573662928143,0.02276646066987098
1539131202694976,1.0116731517509727,-0.011902037079423167,0.02777141985198739
1539131202710958,1.0103303578240634,-0.010681315327687457,0.031067368581673804
1539131202726939,1.0077668421454185,-0.017151140611886717,0.030823224231326662
1539131202742920,1.007888914320592,-0.017761501487754572,0.024719615472648115
1539131202758901,1.0067902647440299,-0.023132677195391693,0.02642862592507811
1539131202774882,1.0082551308461127,-0.01641870756084529,0.02679484245059882
1539131202790864,1.0048371099412527,-0.00970473792629889,0.020813305867093845
1539131202806845,1.004470893415732,-0.007385366598001042,0.019714656290531707
1539131202822826,1.0015411612115663,-0.013244831006332447,0.020813305867093845
1539131202838807,1.004226749065385,-0.016540779736018862,0.02032501716639956
1539131202854788,1.0082551308461127,-0.016906996261539575,0.01617456321049815
1539131202870770,1.0055695429922942,-0.013122758831158876,0.016662851911192433
1539131202886751,1.0054474708171206,-0.010070954451819603,0.017273212787060288
1539131202902732,1.0054474708171206,-0.009582665751125319,0.022034027618829555
1539131202918713,1.0088654917219806,-0.011779964904249596,0.01605249103532458
1539131202934694,1.0047150377660792,-0.013488975356679589,0.017273212787060288
1539131202950676,1.0088654917219806,-0.012146181429770309,0.015930418860151008
1539131202966657,1.0067902647440299,-0.014221408407721015,0.015564202334630295
1539131202982638,1.0100862134737163,-0.022400244144350268,0.012146181429770309
1539131202998619,1.0077668421454185,-0.03070115205615309,0.013366903181506018
1539131203014587,1.0092317082475013,-0.032532234683756656,0.015320057984283153
1539131203030568,1.0084992751964599,-0.02545204852368954,0.019714656290531707
1539131203046549,1.008743419546807,-0.01739528496223386,0.01898222323949028
1539131203062531,1.0080109864957656,-0.011291676203555312,0.020691233691920274
1539131203078512,1.0065461203936827,-0.01104753185320817,0.01873807888914314
1539131203094493,1.0056916151674677,-0.013244831006332447,0.022156099794003126
1539131203110474,1.007888914320592,-0.019226367589837423,0.021789883268482413
1539131203126455,1.002517738612955,-0.026916914625772392,0.019470511940184565
1539131203142437,1.0030060273136492,-0.028870069428549527,0.016540779736018862
1539131203158418,1.000808728160525,-0.024353398947127403,0.012634470130464592
1539131203174399,0.9998321507591363,-0.024963759822995257,0.011535820553902454
1539131203190380,1.0034943160143435,-0.024963759822995257,0.014587624933241727
1539131203206361,1.0091096360723277,-0.029968719005111666,0.01483176928358887
1539131203222343,1.0082551308461127,-0.034973678187228074,0.02020294499122599
1539131203238324,1.0058136873426413,-0.03704890516517878,0.018493934538795997
1539131203254305,1.0072785534447242,-0.033752956435492365,0.015930418860151008
1539131203270286,1.008743419546807,-0.028625925078202386,0.019104295414663852
1539131203286267,1.011306935225452,-0.023254749370565264,0.018249790188448856
1539131203302249,1.0100862134737163,-0.020447089341573133,0.018249790188448856
1539131203318230,1.0075226977950713,-0.023254749370565264,0.02154573891813527
1539131203334167,1.0047150377660792,-0.028381780727855244,0.02008087281605242
1539131203350148,1.0041046768902113,-0.027649347676813818,0.02154573891813527
1539131203366130,1.0066681925688563,-0.024353398947127403,0.0214236667429617
1539131203382111,1.0074006256198977,-0.023010605020218122,0.022034027618829555
1539131203398092,1.0058136873426413,-0.026916914625772392,0.022034027618829555
1539131203414073,1.0047150377660792,-0.030823224231326662,0.02130159456778813
1539131203430054,1.0048371099412527,-0.0357061112382695,0.019470511940184565
1539131203446035,1.0074006256198977,-0.03558403906309593,0.02252231631952384
1539131203462017,1.004226749065385,-0.035217822537575216,0.023254749370565264
1539131203477998,1.005325398641947,-0.03814755474174092,0.022156099794003126
1539131203493979,1.0038605325398642,-0.040222781719691625,0.02423132677195383
1539131203509960,1.0050812542916,-0.040222781719691625,0.026062409399557396
1539131203525941,1.0039826047150378,-0.03741512169069949,0.022278171969176697
1539131203541923,1.003616388189517,-0.03472953383688093,0.02288853284504455
1539131203557904,1.0020294499122606,-0.03204394598306237,0.021179522392614558
1539131203573885,1.0037384603646906,-0.03289845120927737,0.021667811093308842
1539131203589866,1.0063019760433356,-0.03668268863965807,0.02288853284504455
1539131203605847,1.0077668421454185,-0.04254215304798947,0.020813305867093845
1539131203621829,1.0060578316929885,-0.045349813076981604,0.019104295414663852
1539131203637810,1.0056916151674677,-0.04388494697489875,0.019836728465705278
1539131203653778,1.0054474708171206,-0.038879987792782345,0.018493934538795997
1539131203669758,1.0038605325398642,-0.03668268863965807,0.023132677195391693
1539131203685739,1.0048371099412527,-0.0327763790341038,0.023376821545738835
1539131203701720,1.0043488212405585,-0.03143358510719452,0.02130159456778813
1539131203717701,1.0060578316929885,-0.030823224231326662,0.02423132677195383
1539131203733681,1.007888914320592,-0.030212863355458808,0.02679484245059882
1539131203749662,1.0149691004806591,-0.031067368581673804,0.024963759822995257
1539131203765643,1.0126497291523613,-0.03558403906309593,0.022034027618829555
1539131203781623,1.0092317082475013,-0.040222781719691625,0.023254749370565264
1539131203797604,1.0060578316929885,-0.03985656519417091,0.01886015106431671
1539131203813585,1.0048371099412527,-0.03668268863965807,0.02264438849469741
1539131203829566,1.0048371099412527,-0.0319218738078888,0.016540779736018862
1539131203845546,1.0017853055619135,-0.03424124513618665,0.023132677195391693
1539131203861527,1.0059357595178149,-0.034973678187228074,0.021911955443655984
1539131203877508,1.005325398641947,-0.032410162508583085,0.02130159456778813
1539131203893489,1.0045929655909056,-0.03045700770580595,0.024353398947127403
1539131203909469,1.0034943160143435,-0.03302052338445094,0.02130159456778813
1539131203925450,1.0015411612115663,-0.03033493553063238,0.01751735713740743
1539131203941431,0.9964141298542764,-0.03179980163271523,0.023743038071259548
1539131203957411,1.003616388189517,-0.029846646829938095,0.024841687647821686
1539131203973388,1.0043488212405585,-0.03070115205615309,0.024597543297474544
1539131203989369,1.0050812542916,-0.0327763790341038,0.024597543297474544
1539131204005350,1.0083772030212863,-0.027405203326466676,0.02545204852368954
1539131204021330,1.0064240482185092,-0.025818265049210254,0.023376821545738835
1539131204037311,1.0055695429922942,-0.027405203326466676,0.02532997634851597
1539131204053292,1.005325398641947,-0.03033493553063238,0.020691233691920274
1539131204069273,1.001907377737087,-0.03411917296101308,0.018249790188448856
1539131204085253,1.0037384603646906,-0.03472953383688093,0.016784924086366004
1539131204101234,1.00166323338674,-0.03179980163271523,0.01495384145876244
1539131204117215,1.0030060273136492,-0.02911421377889667,0.014343480582894585
1539131204133196,1.00337224383917,-0.02777141985198739,0.01641870756084529
1539131204149176,1.0021515220874342,-0.031189440756847375,0.017273212787060288
1539131204165157,1.0048371099412527,-0.033875028610665936,0.016662851911192433
1539131204181138,1.0094758525978484,-0.03033493553063238,0.011902037079423167
1539131204197118,1.003616388189517,-0.03729304951552592,0.015442130159456724
1539131204213099,1.0075226977950713,-0.036194399938963784,0.016662851911192433
1539131204229080,1.0074006256198977,-0.029846646829938095,0.017151140611886717
1539131204245061,1.0077668421454185,-0.03057907988097952,0.02288853284504455
1539131204261041,1.0115510795757992,-0.02020294499122599,0.013000686655985305
1539131204277022,1.0105745021744106,-0.015564202334630295,0.014587624933241727
1539131204292999,1.0094758525978484,-0.02264438849469741,0.026062409399557396
1539131204308980,1.0116731517509727,-0.018005645838101714,0.016784924086366004
1539131204324960,1.0102082856488899,-0.020813305867093845,0.016540779736018862
1539131204340941,1.0039826047150378,-0.025574120698863112,0.017639429312581
1539131204356922,1.0071564812695506,-0.022034027618829555,0.011413748378728883
1539131204372902,1.0054474708171206,-0.019470511940184565,0.00982681010147246
1539131204388883,1.0075226977950713,-0.021911955443655984,0.010437170977340315
1539131204404864,1.0082551308461127,-0.02276646066987098,0.012512397955291021
1539131204420845,1.007888914320592,-0.023132677195391693,0.017151140611886717
1539131204436825,1.00337224383917,-0.02423132677195383,0.01641870756084529
1539131204452806,1.0034943160143435,-0.023620965896085977,0.012878614480811734
1539131204468787,1.0026398107881285,-0.027405203326466676,0.015808346684977437
1539131204484768,1.0021515220874342,-0.02789349202716096,0.016662851911192433
1539131204500748,1.0021515220874342,-0.03045700770580595,0.016540779736018862
1539131204516729,1.0011749446860456,-0.03314259555962451,0.015075913633936011
1539131204532710,0.9990997177080949,-0.036194399938963784,0.017151140611886717
1539131204548690,0.9990997177080949,-0.03692683299000521,0.017639429312581
1539131204564671,1.0017853055619135,-0.03582818341344307,0.017273212787060288
1539131204580652,1.0023956664377813,-0.031067368581673804,0.016784924086366004
1539131204596633,1.004226749065385,-0.031067368581673804,0.020691233691920274
1539131204612640,1.0052033264667735,-0.031067368581673804,0.023498893720912406
1539131204628621,1.0084992751964599,-0.02789349202716096,0.023620965896085977
1539131204644601,1.0102082856488899,-0.02386511024643312,0.02288853284504455
1539131204660582,1.0108186465247577,-0.023620965896085977,0.024597543297474544
1539131204676563,1.0102082856488899,-0.02545204852368954,0.025085831998168828
1539131204692544,1.0108186465247577,-0.02911421377889667,0.023132677195391693
1539131204708524,1.0092317082475013,-0.03411917296101308,0.01739528496223386
1539131204724505,1.004470893415732,-0.03033493553063238,0.020569161516746703
1539131204740486,1.0037384603646906,-0.023376821545738835,0.013488975356679589
1539131204756466,1.0004425116350042,-0.027649347676813818,0.020569161516746703
1539131204772447,1.0028839551384756,-0.025818265049210254,0.022278171969176697
1539131204788428,1.0043488212405585,-0.028381780727855244,0.017273212787060288
1539131204804409,1.0026398107881285,-0.03802548256656735,0.01898222323949028
1539131204820389,1.0084992751964599,-0.029480430304417382,0.012756542305638163
1539131204836370,1.0076447699702449,-0.03155565728236809,0.015930418860151008
1539131204852351,1.0050812542916,-0.03546196688792236,0.020935378042267416
1539131204868332,1.0065461203936827,-0.028381780727855244,0.01226825360494388
1539131204884312,1.0054474708171206,-0.03155565728236809,0.017761501487754572
1539131204900293,1.005325398641947,-0.02410925459678026,0.01995880064087885
1539131204916274,1.0069123369192035,-0.015442130159456724,0.019836728465705278
1539131204932251,1.0056916151674677,-0.018371862363622427,0.026916914625772392
1539131204948231,1.0084992751964599,-0.02386511024643312,0.021667811093308842
1539131204964212,1.0049591821164263,-0.02911421377889667,0.025085831998168828
1539131204980193,1.006179903868162,-0.0289921416037231,0.02642862592507811
1539131204996173,1.0071564812695506,-0.02667277027542525,0.024841687647821686
1539131205012154,1.0043488212405585,-0.028625925078202386,0.021667811093308842
1539131205028135,1.0049591821164263,-0.033630884260318794,0.01861600671396957
1539131205044116,1.0041046768902113,-0.03472953383688093,0.01873807888914314
1539131205060096,1.0034943160143435,-0.03472953383688093,0.019836728465705278
1539131205076077,1.0048371099412527,-0.031311512932020946,0.02020294499122599
1539131205092058,1.0037384603646906,-0.025818265049210254,0.01739528496223386
1539131205108039,1.0049591821164263,-0.027405203326466676,0.017151140611886717
1539131205124019,1.0020294499122606,-0.028381780727855244,0.02276646066987098
1539131205140000,1.0006866559853513,-0.03070115205615309,0.03070115205615309
1539131205155981,0.9868925001907378,-0.051941710536354435,0.038757915617608774
1539131205171961,1.0108186465247577,-0.054627298390172996,0.02801556420233453
1539131205187942,1.0071564812695506,-0.04986648355840373,0.007751583123521755
1539131205203923,1.0398718242160676,-0.01641870756084529,-0.014221408407721015
1539131205219904,1.0030060273136492,0.0026245517662317752,0.02032501716639956
1539131205235884,1.0083772030212863,0.005920500495918191,0.021057450217440987
1539131205251861,1.0117952239261463,-0.012146181429770309,0.006286717021438903
1539131205267842,1.0059357595178149,-0.03314259555962451,0.014587624933241727
1539131205283823,1.006179903868162,-0.033875028610665936,0.011779964904249596
1539131205299803,1.0004425116350042,-0.026062409399557396,0.015442130159456724
1539131205315784,1.0021515220874342,-0.02020294499122599,0.015197985809109582
1539131205331765,1.0030060273136492,-0.02398718242160669,0.00848401617456318
1539131205347746,1.0026398107881285,-0.03546196688792236,0.004821850919356052
1539131205363726,1.003616388189517,-0.03558403906309593,0.015197985809109582
1539131205379707,1.0059357595178149,-0.020935378042267416,0.024719615472648115
1539131205395688,0.9997100785839628,-0.020935378042267416,0.03558403906309593
1539131205411668,1.0060578316929885,-0.028747997253375956,0.02801556420233453
1539131205427649,1.0098420691233692,-0.036316472114137355,0.013366903181506018
1539131205443630,1.0075226977950713,-0.03680476081483164,0.008850232700083893
1539131205459611,1.0054474708171206,-0.030823224231326662,0.00982681010147246
1539131205475591,1.0065461203936827,-0.027527275501640247,0.0109254596780346
1539131205491572,1.007888914320592,-0.028870069428549527,0.013122758831158876
1539131205507553,1.0092317082475013,-0.026306553749904538,0.01495384145876244
1539131205523533,1.0074006256198977,-0.02130159456778813,0.010681315327687457
1539131205539514,1.0064240482185092,-0.01873807888914314,0.011291676203555312
1539131205555495,1.0034943160143435,-0.018249790188448856,0.008117799649042468
1539131205571472,1.001052872510872,-0.022156099794003126,0.009094377050431035
1539131205587453,0.9976348516060121,-0.03143358510719452,0.005188067444876765
1539131205603433,1.0030060273136492,-0.03558403906309593,6.103608758678547E-5
1539131205619414,1.006179903868162,-0.039124132143129486,0.0037232013427939137
1539131205635395,1.0082551308461127,-0.03973449301899734,0.0061646448462653325
1539131205651375,1.0094758525978484,-0.035217822537575216,0.001037613488975353
1539131205667356,1.0088654917219806,-0.03692683299000521,0.006530861371786045
1539131205683337,1.0075226977950713,-0.03961242084382377,0.006530861371786045
1539131205699318,1.0064240482185092,-0.04449530785076661,0.007385366598001042
1539131205715298,1.0045929655909056,-0.05999847409781012,0.01617456321049815
1539131205731279,1.009597924773022,-0.06842145418478696,0.024719615472648115
1539131205747260,1.0157015335317006,-0.05780117494468584,0.02789349202716096
1539131205763240,1.0268101014724955,-0.04217593652246876,0.04376287479972518
1539131205779221,1.0098420691233692,-0.04754711223010588,0.08599984740978073
1539131205795202,1.0368200198367283,-0.06878767071030767,0.14715800717174066
1539131205811183,1.0443884946974897,-0.06720073243305125,0.24286259250782027
1539131205827163,1.0862592507820246,-0.14019989318684667,0.3571221484702827
1539131205843144,1.1161669336995494,-0.21661707484550252,0.4422064545662625
1539131205859125,1.1316700999465938,-0.2507972838941024,0.48200198367284663
1539131205875105,1.1400930800335702,-0.2898603799496451,0.5037308308537423
1539131205891082,1.1585259784847795,-0.3185473411154347,0.504951552605478
1539131205907063,1.1735408560311287,-0.3319752803845275,0.48578622110322733
1539131205923044,1.160357061112383,-0.3571221484702831,0.46466773479819956
1539131205939025,1.170611123826963,-0.3567559319447624,0.421576256961929
1539131205955005,1.2284733348592356,-0.29462119478141435,0.3308766308079649
1539131205970986,1.2149233234149692,-0.24054322117952243,0.2549477378500038
1539131205986967,1.1967345693141072,-0.1753566796368351,0.18402380407415908
1539131206002947,1.1692683299000537,-0.10113679713130397,0.11505302510109061
1539131206018928,1.1223926146334016,-0.03411917296101308,0.03607232776379021
1539131206034909,1.0608682383459218,0.017883573662928143,-0.03961242084382377
1539131206050890,1.0330357824063476,0.08734264133669001,-0.13409628442816812
1539131206066870,0.9580834668497751,0.1264057373922336,-0.1981841763942933
1539131206082851,0.9092545967803467,0.15106431677729493,-0.24982070649271382
1539131206098832,0.8721446555275802,0.16705577172503272,-0.2859540703440908
1539131206114812,0.853711757076371,0.17840848401617482,-0.3219653620202947
1539131206130793,0.8288090333409626,0.19378957808804476,-0.3445487144274053
1539131206146774,0.8131837949187455,0.19305714503700333,-0.35834287022201883
1539131206162755,0.8257572289616233,0.1893949797817962,-0.35101853971160457
1539131206178735,0.8599374380102232,0.16913099870298343,-0.3286793316548411
1539131206194716,0.882154573891814,0.14373998626688067,-0.3087815671015486
1539131206210662,0.9269550621805145,0.12957961394674644,-0.30951400015259
1539131206226643,0.975173571374075,0.09710841535057568,-0.33344014648661036
1539131206242624,1.0691691462577246,0.08746471351186358,-0.3841000991836423
1539131206258605,1.1934386205844207,0.09442282749675712,-0.4859082932784009
1539131206274585,1.3075761043717096,0.16400396734569345,-0.5885709925993745
1539131206290566,1.4628519111924927,0.18927290760662263,-0.6500953688868543
1539131206306547,1.5645380331120773,0.09637598229953426,-0.46759746700236526
1539131206322528,1.7120012207217519,-0.06256198977645555,-0.17889677271686866
1539131206338508,3.230212863355459,-3.9998779278248264,4.0
1539131206354489,0.46308079652094314,-1.2151674677653164,1.9345387960631726
1539131206370470,1.6299687190051122,0.18255893797207623,-0.18475623712520006
1539131206386450,1.3251544975967038,-0.1464255741206988,0.06463721675440581
1539131206402431,1.0396276798657205,0.06964217593652222,-0.017761501487754572
1539131206418412,0.9577172503242544,0.18756389715419264,-0.046814679179064456
1539131206434393,0.935622186617838,0.06475928892957938,0.05218585488670158
1539131206450373,0.9209735255970095,0.04058899824521234,0.04449530785076661
1539131206466354,0.9470969710841537,-0.010315098802166744,0.01739528496223386
1539131206482335,0.9486839093614101,-0.04461738002594018,-0.004943923094529623
1539131206498315,0.9466086823834594,-0.04888990615701516,-0.046814679179064456
1539131206514296,0.9539330128938737,-0.04888990615701516,-0.07733272297245763
1539131206530273,0.9555199511711301,-0.04180971999694805,-0.09283588921950114
1539131206546254,0.9522240024414437,-0.03826962691691449,-0.09332417792019543
1539131206562235,0.9567406729228658,-0.040344853894865196,-0.07635614557106907
1539131206578215,0.9595483329518579,-0.028137636377508102,-0.0669565880827041
1539131206594196,0.9628442816815443,-0.01361104753185316,-0.0567025253681237
1539131206610177,0.9643091477836272,-0.02276646066987098,-0.03302052338445094
1539131206626157,0.9702906843671322,-0.028259708552681673,-0.0109254596780346
1539131206642138,0.9721217669947357,-0.044129091325245895,0.017151140611886717
1539131206658119,0.9759060044251164,-0.06524757763027411,0.046692607003890885
1539131206674100,0.9864042114900435,-0.07733272297245763,0.06866559853513365
1539131206690080,0.9948271915770199,-0.0812390325780119,0.08587777523460716
1539131206706061,0.9994659342336156,-0.08746471351186402,0.1041886015106428
1539131206722042,1.0032501716639963,-0.08856336308842616,0.11908140688181845
1539131206738022,1.0049591821164263,-0.08844129091325259,0.12188906691081058
1539131206754003,1.0004425116350042,-0.08697642481116974,0.12628366521706003
1539131206769984,1.004226749065385,-0.08282597085526833,0.13031204699778787
1539131206785965,1.0056916151674677,-0.08404669260700404,0.13495078965438356
1539131206801945,1.0012970168612192,-0.08258182650492119,0.1334859235523007
1539131206817926,1.0137483787289234,-0.07013046463721695,0.12420843823910843
1539131206833907,1.0091096360723277,-0.05548180361638799,0.11602960250247918
1539131206849914,0.9978789959563592,-0.04644846265354374,0.1050431067368578
1539131206865895,1.001907377737087,-0.031311512932020946,0.0928358892195007
1539131206881876,0.9994659342336156,-0.025085831998168828,0.08087281605249075
1539131206897856,0.9915312428473335,-0.03302052338445094,0.08368047608148288
1539131206913837,0.9943389028763256,-0.033752956435492365,0.08136110475318503
1539131206929818,0.9967803463797971,-0.02935835812924381,0.07367055771725006
1539131206945798,1.0000762951094835,-0.021911955443655984,0.06451514457923224
1539131206961779,0.9989776455329213,-0.020813305867093845,0.05865568017090084
1539131206977760,0.9886015106431678,-0.029846646829938095,0.05145342183566015
1539131206993741,0.9865262836652171,-0.03448538948653379,0.04388494697489875
1539131207009721,1.0000762951094835,-0.04058899824521234,0.04254215304798947
1539131207025702,0.9939726863508049,-0.04058899824521234,0.04339665827420447
1539131207041683,1.0188754100862134,-0.024353398947127403,0.04132143129625376
1539131207057664,1.0293736171511405,-0.009582665751125319,0.030823224231326662
1539131207073644,1.0093537804226749,-0.02679484245059882,0.04962233920805659
1539131207089625,1.0124055848020141,-0.04449530785076661,0.053040360112916574
1539131207105606,1.0127718013275349,-0.03717097734035235,0.044251163500419466
1539131207121586,1.019851987487602,-0.049378194857709445,0.05120927748531301
1539131207137567,1.0236362249179827,-0.05682459754329727,0.05780117494468584
1539131207153548,1.0175326161593041,-0.056946669718470844,0.05145342183566015
1539131207169525,1.0122835126268406,-0.05535973144121442,0.04730296787975874
1539131207185505,1.0169222552834363,-0.05743495841916513,0.043030441748683756
1539131207201486,1.0170443274586098,-0.051941710536354435,0.041565575646600905
1539131207217467,1.0120393682764934,-0.04644846265354374,0.03350881208514522
1539131207233448,1.0209506370641641,-0.03997863736934448,0.029724574654764524
1539131207249428,1.0242465857938505,-0.03289845120927737,0.026184481574730967
1539131207265409,1.0169222552834363,-0.022034027618829555,0.028625925078202386
1539131207281390,1.0084992751964599,-0.008850232700083893,0.03265430685893023
1539131207297371,1.0047150377660792,-0.0036011291676203427,0.033752956435492365
1539131207313351,1.003616388189517,-0.0018921187151903496,0.039124132143129486
1539131207329332,1.0023956664377813,-0.007385366598001042,0.04449530785076661
1539131207345313,1.0092317082475013,-0.01239032578011745,0.039124132143129486
1539131207361293,1.0077668421454185,-0.019226367589837423,0.03826962691691449
1539131207377274,1.0099641412985427,-0.0327763790341038,0.034973678187228074
1539131207393255,1.0072785534447242,-0.041687647821774476,0.028747997253375956
1539131207409236,1.00337224383917,-0.04754711223010588,0.018127718013275285
1539131207425216,1.0045929655909056,-0.05767910276951227,0.015320057984283153
1539131207441197,1.008743419546807,-0.06671244373235696,0.017029068436713146
1539131207457178,1.0093537804226749,-0.06646829938200982,0.014343480582894585
1539131207473158,1.0026398107881285,-0.055970092317082276,0.008850232700083893
1539131207489135,1.0039826047150378,-0.050720988784618726,0.010315098802166744
1539131207505116,0.9983672846570535,-0.0424200808728159,0.02154573891813527
1539131207521097,0.9955596246280614,-0.03460746166170736,0.03326466773479808
1539131207537078,0.9933623254749371,-0.02801556420233453,0.04229800869764233
1539131207553058,1.005325398641947,-0.017639429312581,0.03595025558861664
1539131207569039,1.000198367284657,-0.023620965896085977,0.028747997253375956
1539131207585020,1.0049591821164263,-0.031311512932020946,0.026184481574730967
1539131207601000,1.0075226977950713,-0.03350881208514522,0.017639429312581
1539131207616981,1.00166323338674,-0.03741512169069949,0.008728160524910322
1539131207632962,1.0014190890363928,-0.041443503471427334,0.011657892729076025
1539131207648943,1.003616388189517,-0.03399710078583951,0.01751735713740743
1539131207664923,1.0003204394598306,-0.02935835812924381,0.02642862592507811
1539131207680904,0.9966582742046235,-0.02154573891813527,0.028137636377508102
1539131207696885,1.0005645838101778,-0.017151140611886717,0.029846646829938095
1539131207712865,0.9997100785839628,-0.012756542305638163,0.02410925459678026
1539131207728846,1.0006866559853513,-0.013855191882200302,0.032288090333409514
1539131207744827,1.0032501716639963,-0.01617456321049815,0.03265430685893023
1539131207760808,1.0097199969481956,-0.01995880064087885,0.029724574654764524
1539131207776788,1.0127718013275349,-0.015808346684977437,0.031189440756847375
1539131207792769,1.0131380178530556,-0.006286717021438903,0.027649347676813818
1539131207808746,1.0144808117799649,-0.005188067444876765,0.017273212787060288
1539131207824727,1.0141145952544441,-0.00848401617456318,0.016540779736018862
1539131207840707,1.018997482261387,-0.013488975356679589,0.012634470130464592
1539131207856688,1.0166781109330891,-0.024475471122300974,0.012878614480811734
1539131207872669,1.0208285648889905,-0.027283131151293105,0.02777141985198739
1539131207888650,1.0154573891813534,-0.029846646829938095,0.049500267032883016
1539131207904630,1.0084992751964599,-0.035095750362401645,0.05218585488670158
1539131207920611,1.0056916151674677,-0.033630884260318794,0.042664225223163044
1539131207936592,1.0039826047150378,-0.03399710078583951,0.027649347676813818
1539131207952572,1.0032501716639963,-0.040222781719691625,0.027038986800945963
1539131207968553,0.9978789959563592,-0.05621423666742942,0.033752956435492365
1539131207984534,0.9982452124818799,-0.05548180361638799,0.03704890516517878
1539131208000515,1.0050812542916,-0.03680476081483164,0.02276646066987098
1539131208016495,0.9971465629053178,-0.02923628595407024,0.01751735713740743
1539131208032476,0.9986114290074006,-0.03289845120927737,0.0289921416037231
1539131208048457,0.9960479133287556,-0.03814755474174092,0.049500267032883016
1539131208064437,1.0026398107881285,-0.023254749370565264,0.05230792706187515
1539131208080418,1.0133821622034027,0.007019150072480329,0.033875028610665936
1539131208096399,0.9990997177080949,0.008606088349736751,0.041443503471427334
1539131208112380,0.9927519645990692,-0.01373311970702673,0.05157549401083372
1539131208128357,0.9967803463797971,-0.04742504005493231,0.06317235065232296
1539131208144337,1.0069123369192035,-0.06927595941100195,0.04693675135423803
1539131208160318,1.0169222552834363,-0.07647821774624264,0.04522774090180803
1539131208176299,1.0166781109330891,-0.06475928892957983,0.04364080262455161
1539131208192279,1.003616388189517,-0.06353856717784412,0.057190814068817986
1539131208208260,1.0041046768902113,-0.058289463645380124,0.054505226214999425
1539131208224241,1.0030060273136492,-0.06280613412680269,0.04840161745632088
1539131208240222,0.9998321507591363,-0.08111696040283833,0.045593957427328746
1539131208256202,1.00337224383917,-0.07196154726482051,0.03997863736934448
1539131208272183,1.0022735942626078,-0.05145342183566015,0.04486152437628732
1539131208288164,0.9989776455329213,-0.027649347676813818,0.04864576180666802
1539131208304144,0.9927519645990692,-0.017761501487754572,0.05255207141222229
1539131208320125,0.9882352941176471,-0.02288853284504455,0.04046692607003877
1539131208336106,0.9899443045700771,-0.027527275501640247,0.0365606164644845
1539131208352087,0.9983672846570535,-0.02642862592507811,0.04217593652246876
1539131208368067,1.005325398641947,-0.03851377126726163,0.04608224612802303
1539131208384048,0.9983672846570535,-0.059876401922636546,0.04119935912108019
1539131208400029,1.0059357595178149,-0.06280613412680269,0.040100709544518054
1539131208416010,1.0094758525978484,-0.04986648355840373,0.03924620431830306
1539131208431990,1.007034409094377,-0.05780117494468584,0.05633630884260299
1539131208447967,1.0017853055619135,-0.058289463645380124,0.05365072098878443
1539131208463948,1.0047150377660792,-0.0604867627985044,0.041565575646600905
1539131208479929,1.0081330586709392,-0.05499351491569371,0.031311512932020946
1539131208495909,1.0108186465247577,-0.05389486533913157,0.04229800869764233
1539131208511890,1.0067902647440299,-0.058289463645380124,0.05548180361638799
1539131208527871,1.0064240482185092,-0.05902189669642155,0.05255207141222229
1539131208543851,0.9982452124818799,-0.07110704203860552,0.05523765926604085
1539131208559832,1.0052033264667735,-0.06268406195162912,0.04132143129625376
1539131208575813,1.007034409094377,-0.04852368963149445,0.04058899824521234
1539131208591794,1.0067902647440299,-0.04754711223010588,0.04766918440527945
1539131208607774,1.0080109864957656,-0.04779125658045302,0.04693675135423803
1539131208623755,1.0048371099412527,-0.05511558709086728,0.04766918440527945
1539131208639736,1.0022735942626078,-0.05474937056534657,0.04693675135423803
1539131208655717,1.0014190890363928,-0.04608224612802303,0.04388494697489875
1539131208671697,0.9987335011825742,-0.03411917296101308,0.03973449301899734
1539131208687678,0.9954375524528878,-0.03692683299000521,0.044007019150072324
1539131208703659,0.9976348516060121,-0.037659266041046635,0.03924620431830306
1539131208719639,0.9982452124818799,-0.04046692607003877,0.044129091325245895
1539131208735620,1.0017853055619135,-0.044007019150072324,0.03985656519417091
1539131208751601,1.0103303578240634,-0.041687647821774476,0.04180971999694805
1539131208767578,1.0110627908751049,-0.0508430609597923,0.05096513313496587
1539131208783558,1.0099641412985427,-0.06353856717784412,0.05365072098878443
1539131208799539,1.0102082856488899,-0.06634622720683625,0.04486152437628732
1539131208815520,1.008743419546807,-0.06414892805371197,0.04229800869764233
1539131208831501,1.0011749446860456,-0.07232776379034123,0.048035400930800165
1539131208847481,1.000198367284657,-0.0686655985351341,0.042664225223163044
1539131208863462,0.9987335011825742,-0.06732280460822482,0.0424200808728159
1539131208879443,0.9955596246280614,-0.07135118638895266,0.039002059967955915
1539131208895424,0.9955596246280614,-0.0657358663309684,0.04132143129625376
1539131208911404,0.9980010681315328,-0.058411535820553695,0.04583810177767589
1539131208927385,0.9994659342336156,-0.05487144274052014,0.04779125658045302
1539131208943366,0.9970244907301442,-0.06182955672541368,0.04840161745632088
1539131208959346,0.9960479133287556,-0.06475928892957983,0.04644846265354374
1539131208975327,0.9970244907301442,-0.06598001068131554,0.04766918440527945
1539131208991308,1.0003204394598306,-0.06390478370336483,0.04608224612802303
1539131209007289,0.9988555733577478,-0.062195773250934394,0.049378194857709445
1539131209023269,1.000198367284657,-0.06207370107576082,0.048035400930800165
1539131209039250,0.9992217898832685,-0.06585793850614197,0.04888990615701516
1539131209055231,1.0054474708171206,-0.07135118638895266,0.050720988784618726
1539131209071211,1.0125276569771877,-0.06561379415579482,0.054627298390172996
1539131209087219,1.0133821622034027,-0.06366063935301769,0.05877775234607441
1539131209103200,1.0124055848020141,-0.05889982452124798,0.05877775234607441
1539131209119180,1.0141145952544441,-0.05902189669642155,0.04766918440527945
1539131209135161,1.0077668421454185,-0.06414892805371197,0.04107728694590662
1539131209151142,1.0052033264667735,-0.05938811322194226,0.038879987792782345
1539131209167122,1.0038605325398642,-0.060975051499198685,0.03436331731136022
1539131209183103,0.9982452124818799,-0.06610208285648911,0.042664225223163044
1539131209199084,1.002761882963302,-0.06634622720683625,0.04229800869764233
1539131209215065,1.0034943160143435,-0.06549172198062125,0.04522774090180803
1539131209231045,1.008743419546807,-0.059632257572289404,0.04449530785076661
1539131209247026,1.0015411612115663,-0.07061875333791123,0.04571602960250232
1539131209263007,0.9990997177080949,-0.07513542381933336,0.045471885252155175
1539131209278988,1.0009308003356985,-0.07013046463721695,0.03668268863965807
1539131209294968,0.9951934081025406,-0.07183947508964694,0.04510566872663446
1539131209310949,0.9964141298542764,-0.06622415503166268,0.04766918440527945
1539131209326930,0.9965362020294499,-0.05645838101777656,0.04351873044937804
1539131209342910,0.9949492637521935,-0.06524757763027411,0.05023270008392444
1539131209358891,0.9971465629053178,-0.06756694895857196,0.053162432288090145
1539131209374872,0.9989776455329213,-0.05865568017090084,0.04718089570458517
1539131209390853,0.9937285420004578,-0.06121919584954583,0.04888990615701516
1539131209406799,0.9959258411535821,-0.06170748455024011,0.045593957427328746
1539131209422780,1.0014190890363928,-0.05743495841916513,0.041443503471427334
1539131209438760,1.001052872510872,-0.06353856717784412,0.05108720531013944
1539131209454741,1.000808728160525,-0.06305027847714983,0.049134050507362304
1539131209470722,1.0054474708171206,-0.05865568017090084,0.04571602960250232
1539131209486703,1.0071564812695506,-0.05938811322194226,0.04644846265354374
1539131209502683,1.0080109864957656,-0.05999847409781012,0.049500267032883016
1539131209518664,1.0077668421454185,-0.06158541237506654,0.04986648355840373
1539131209534645,1.0075226977950713,-0.06195162890058725,0.049378194857709445
1539131209550625,1.0039826047150378,-0.059632257572289404,0.04632639047837017
1539131209566606,1.0059357595178149,-0.05877775234607441,0.04486152437628732
1539131209582587,1.002517738612955,-0.062195773250934394,0.04779125658045302
1539131209598568,1.0012970168612192,-0.06890974288548124,0.04962233920805659
1539131209614548,1.0088654917219806,-0.0648813611047534,0.03997863736934448
1539131209630529,1.0043488212405585,-0.06634622720683625,0.045593957427328746
1539131209646510,1.0011749446860456,-0.06817730983443981,0.05096513313496587
1539131209662490,1.0048371099412527,-0.06524757763027411,0.05035477225909801
1539131209678471,1.0045929655909056,-0.06683451590753053,0.044007019150072324
1539131209694452,1.0023956664377813,-0.06585793850614197,0.04461738002594018
1539131209710433,1.0049591821164263,-0.06500343327992697,0.04876783398184159
1539131209726410,1.0023956664377813,-0.06659037155718339,0.050598916609445155
1539131209742390,1.0054474708171206,-0.07098496986343195,0.04986648355840373
1539131209758371,1.0021515220874342,-0.06720073243305125,0.05157549401083372
1539131209774352,0.9951934081025406,-0.062317845426107965,0.05096513313496587
1539131209790332,0.9878690775921264,-0.06561379415579482,0.05548180361638799
1539131209806313,0.98970016021973,-0.06927595941100195,0.055970092317082276
1539131209822294,0.9926298924238957,-0.06744487678339839,0.05267414358739586
1539131209838275,0.9961699855039292,-0.06805523765926624,0.04888990615701516
1539131209854255,0.9988555733577478,-0.06451514457923269,0.05169756618600729
1539131209870236,1.0022735942626078,-0.06256198977645555,0.05169756618600729
1539131209886217,1.0084992751964599,-0.0631723506523234,0.05413900968947871
1539131209902197,1.0077668421454185,-0.06207370107576082,0.057312886243991557
1539131209918178,1.0083772030212863,-0.05535973144121442,0.055848020141908705
1539131209934159,1.006179903868162,-0.05133134966048658,0.05645838101777656
1539131209950140,1.0030060273136492,-0.05096513313496587,0.0567025253681237
1539131209966120,1.0015411612115663,-0.04644846265354374,0.05279621576256943
1539131209982101,1.0000762951094835,-0.04901197833218873,0.06012054627298369
1539131209998082,1.0045929655909056,-0.049134050507362304,0.05365072098878443
1539131210014063,0.9955596246280614,-0.05780117494468584,0.05401693751430514
1539131210030043,0.9990997177080949,-0.061097123674372256,0.05365072098878443
1539131210046020,0.9999542229343099,-0.059754329747462975,0.05242999923704872
1539131210062001,1.000808728160525,-0.062195773250934394,0.05804531929503298
1539131210077982,1.002761882963302,-0.06036469062333083,0.053162432288090145
1539131210093962,0.9945830472266728,-0.06561379415579482,0.05548180361638799
1539131210109943,0.9981231403067063,-0.062439917601281536,0.05145342183566015
1539131210125924,0.9943389028763256,-0.05889982452124798,0.04486152437628732
1539131210141904,0.9934843976501107,-0.059632257572289404,0.05487144274052014
1539131210157885,0.9973907072556649,-0.05242999923704872,0.04901197833218873
1539131210173866,1.0022735942626078,-0.05230792706187515,0.055848020141908705
1539131210189847,1.0028839551384756,-0.055970092317082276,0.060975051499198685
1539131210205827,1.0077668421454185,-0.0567025253681237,0.0680552376592658
1539131210221808,1.0102082856488899,-0.048035400930800165,0.06695658808270366
1539131210237789,1.0017853055619135,-0.04888990615701516,0.06305027847714939
1539131210253769,0.9997100785839628,-0.049500267032883016,0.058533607995727266
1539131210269750,0.9955596246280614,-0.05279621576256943,0.05535973144121442
1539131210285731,1.0020294499122606,-0.05560387579156156,0.058533607995727266
1539131210301712,1.004226749065385,-0.049256122682535874,0.062195773250934394
1539131210317692,1.0003204394598306,-0.04766918440527945,0.06585793850614152
1539131210333673,1.0030060273136492,-0.057068741893644415,0.06182955672541368
1539131210349654,1.0015411612115663,-0.06146334019989297,0.05938811322194226
1539131210365631,0.9982452124818799,-0.05889982452124798,0.05645838101777656
1539131210381611,0.9969024185549706,-0.05877775234607441,0.05889982452124798
1539131210397592,0.9961699855039292,-0.05816739147020655,0.0567025253681237
1539131210413573,0.9977569237811856,-0.06195162890058725,0.061097123674372256
1539131210429554,1.00166323338674,-0.06012054627298369,0.05877775234607441
1539131210445534,1.0023956664377813,-0.056946669718470844,0.05865568017090084
1539131210461515,1.002761882963302,-0.05413900968947871,0.06121919584954583
1539131210477496,1.0000762951094835,-0.05365072098878443,0.059632257572289404
1539131210493476,1.0015411612115663,-0.05267414358739586,0.05621423666742942
1539131210509457,1.00166323338674,-0.053284504463263715,0.05474937056534657
1539131210525438,0.9992217898832685,-0.05902189669642155,0.058289463645380124
1539131210541419,1.0022735942626078,-0.06366063935301769,0.054383154039825854
1539131210557399,1.0048371099412527,-0.06353856717784412,0.0567025253681237
1539131210573380,1.0052033264667735,-0.059876401922636546,0.058533607995727266
1539131210589361,1.0076447699702449,-0.05352864881361086,0.05938811322194226
1539131210605342,1.0048371099412527,-0.05157549401083372,0.060852979324025114
1539131210621322,1.0022735942626078,-0.054627298390172996,0.06012054627298369
1539131210637303,0.9994659342336156,-0.05365072098878443,0.0567025253681237
1539131210653284,1.00337224383917,-0.05120927748531301,0.055970092317082276
1539131210669264,1.0052033264667735,-0.04864576180666802,0.05780117494468584
1539131210685241,1.0009308003356985,-0.05389486533913157,0.061097123674372256
1539131210701222,0.9976348516060121,-0.059754329747462975,0.05609216449225585
1539131210717203,0.9956816968032349,-0.06207370107576082,0.05535973144121442
1539131210733183,0.9972686350804914,-0.05352864881361086,0.05523765926604085
1539131210749164,0.9980010681315328,-0.05023270008392444,0.05951018539711583
1539131210765145,1.002761882963302,-0.05145342183566015,0.06256198977645511
1539131210781126,1.0047150377660792,-0.055970092317082276,0.05780117494468584
1539131210797106,1.0048371099412527,-0.06378271152819126,0.05999847409781012
1539131210813087,1.003616388189517,-0.06060883497367797,0.05645838101777656
1539131210829068,1.002517738612955,-0.05511558709086728,0.05816739147020655
1539131210845049,1.0014190890363928,-0.049256122682535874,0.05889982452124798
1539131210861029,0.9960479133287556,-0.053040360112916574,0.0634164950026701
1539131210877010,0.9984893568322271,-0.0567025253681237,0.059632257572289404
1539131210892991,1.001052872510872,-0.05658045319295013,0.059876401922636546
1539131210908971,1.00337224383917,-0.05218585488670158,0.06146334019989297
1539131210924952,1.0037384603646906,-0.04840161745632088,0.06207370107576082
1539131210940933,1.0005645838101778,-0.053772793163958,0.05804531929503298
1539131210956914,1.001907377737087,-0.05499351491569371,0.05218585488670158
1539131210972894,0.9999542229343099,-0.051941710536354435,0.05096513313496587
1539131210988875,1.0026398107881285,-0.04754711223010588,0.059632257572289404
1539131211004852,1.0047150377660792,-0.04498359655146089,0.06036469062333083
1539131211020833,1.0023956664377813,-0.04583810177767589,0.06146334019989297
1539131211036813,1.0030060273136492,-0.05035477225909801,0.057312886243991557
1539131211052794,1.003616388189517,-0.052918287937743,0.05902189669642155
1539131211068775,1.0054474708171206,-0.05902189669642155,0.06366063935301725
1539131211084756,1.0055695429922942,-0.05474937056534657,0.06024261844815726
1539131211100736,1.000198367284657,-0.044129091325245895,0.05816739147020655
1539131211116717,0.9983672846570535,-0.04071107042038591,0.06402685587853796
1539131211132698,1.0017853055619135,-0.04107728694590662,0.06158541237506654
1539131211148678,1.0034943160143435,-0.04644846265354374,0.06305027847714939
1539131211164659,1.0048371099412527,-0.04888990615701516,0.06695658808270366
1539131211180640,1.0006866559853513,-0.051819638361180864,0.06182955672541368
1539131211196621,0.9978789959563592,-0.05560387579156156,0.05804531929503298
1539131211212601,0.9978789959563592,-0.05365072098878443,0.054627298390172996
1539131211228582,0.9976348516060121,-0.04888990615701516,0.053772793163958
1539131211244563,0.9983672846570535,-0.04986648355840373,0.05902189669642155
1539131211260543,0.9981231403067063,-0.051941710536354435,0.058533607995727266
1539131211276524,0.9981231403067063,-0.05157549401083372,0.062439917601281536
1539131211292505,1.0023956664377813,-0.04095521477073305,0.06073090714885154
1539131211308486,1.0023956664377813,-0.03717097734035235,0.06280613412680225
1539131211324463,1.002761882963302,-0.03595025558861664,0.060975051499198685
1539131211340443,1.000198367284657,-0.04254215304798947,0.05682459754329727
1539131211356424,0.9984893568322271,-0.049256122682535874,0.057312886243991557
1539131211372405,0.9983672846570535,-0.04437323567559304,0.0634164950026701
1539131211388385,1.0022735942626078,-0.04046692607003877,0.06268406195162868
1539131211404366,1.003616388189517,-0.0365606164644845,0.06414892805371153
1539131211420347,1.000808728160525,-0.03546196688792236,0.06317235065232296
1539131211436328,0.9994659342336156,-0.044007019150072324,0.06317235065232296
1539131211452308,1.0011749446860456,-0.046570534828717314,0.06012054627298369
1539131211468289,1.001907377737087,-0.04339665827420447,0.05658045319295013
1539131211484270,1.0039826047150378,-0.03814755474174092,0.060852979324025114
1539131211500250,1.0020294499122606,-0.03204394598306237,0.060975051499198685
1539131211516231,0.9995880064087892,-0.03546196688792236,0.06060883497367797
1539131211532212,0.9992217898832685,-0.04119935912108019,0.05242999923704872
1539131211548193,0.9965362020294499,-0.04583810177767589,0.05279621576256943
1539131211564173,1.0009308003356985,-0.04876783398184159,0.0567025253681237
1539131211580154,1.0023956664377813,-0.04840161745632088,0.05804531929503298
1539131211596135,1.002517738612955,-0.04571602960250232,0.05279621576256943
1539131211612115,1.0000762951094835,-0.045593957427328746,0.0508430609597923
1539131211628096,1.000808728160525,-0.045349813076981604,0.051941710536354435
1539131211644104,1.0020294499122606,-0.046814679179064456,0.04974441138323016
1539131211660084,1.0032501716639963,-0.04876783398184159,0.05157549401083372
1539131211676065,1.003616388189517,-0.050476844434271584,0.05108720531013944
1539131211692046,1.003616388189517,-0.045593957427328746,0.05352864881361086
1539131211708027,1.001907377737087,-0.04339665827420447,0.0575570305943387
1539131211724007,0.9998321507591363,-0.04058899824521234,0.053162432288090145
1539131211739988,1.002761882963302,-0.04119935912108019,0.053772793163958
1539131211755969,1.002517738612955,-0.04254215304798947,0.04986648355840373
1539131211771949,1.002761882963302,-0.04107728694590662,0.053284504463263715
1539131211787930,1.0075226977950713,-0.044007019150072324,0.0575570305943387
1539131211803911,1.007888914320592,-0.049134050507362304,0.061097123674372256
1539131211819892,1.007034409094377,-0.04876783398184159,0.059632257572289404
1539131211835872,1.004226749065385,-0.045471885252155175,0.06353856717784367
1539131211851853,0.9986114290074006,-0.04779125658045302,0.06268406195162868
1539131211867834,0.9982452124818799,-0.04486152437628732,0.058411535820553695
1539131211883814,1.0014190890363928,-0.040100709544518054,0.06170748455024011
1539131211899795,1.0006866559853513,-0.038879987792782345,0.06573586633096795
1539131211915776,0.9994659342336156,-0.03668268863965807,0.06256198977645511
1539131211931757,1.0041046768902113,-0.03790341039139378,0.05877775234607441
1539131211947737,1.00166323338674,-0.04095521477073305,0.057190814068817986
1539131211963714,1.0023956664377813,-0.041687647821774476,0.0567025253681237
1539131211979695,0.9998321507591363,-0.04107728694590662,0.05682459754329727
1539131211995676,1.003616388189517,-0.03717097734035235,0.05474937056534657
1539131212011656,1.0065461203936827,-0.03204394598306237,0.057190814068817986
1539131212027637,1.0075226977950713,-0.029724574654764524,0.057190814068817986
1539131212043618,1.0052033264667735,-0.028503852903028815,0.058533607995727266
1539131212059599,1.0004425116350042,-0.03350881208514522,0.058411535820553695
1539131212075579,0.9976348516060121,-0.03790341039139378,0.057312886243991557
1539131212091560,0.9981231403067063,-0.041565575646600905,0.0567025253681237
1539131212107541,0.9983672846570535,-0.039124132143129486,0.053406576638437286
1539131212123521,0.9973907072556649,-0.03558403906309593,0.05633630884260299
1539131212139502,0.9975127794308385,-0.030212863355458808,0.058411535820553695
1539131212155483,1.000808728160525,-0.030823224231326662,0.06329442282749653
1539131212171464,0.9995880064087892,-0.03802548256656735,0.062317845426107965
1539131212187444,1.004470893415732,-0.040100709544518054,0.05474937056534657
1539131212203425,1.0043488212405585,-0.038879987792782345,0.05792324711985941
1539131212219406,1.0049591821164263,-0.034851606012054503,0.06268406195162868
1539131212235386,1.0031280994888228,-0.03814755474174092,0.0651255054551001
1539131212251367,1.0041046768902113,-0.04339665827420447,0.06402685587853796
1539131212267348,1.0048371099412527,-0.04132143129625376,0.0634164950026701
1539131212283294,1.0047150377660792,-0.033630884260318794,0.07147325856412579
1539131212299275,1.0045929655909056,-0.02801556420233453,0.07037460898756365
1539131212315256,1.001907377737087,-0.029480430304417382,0.06744487678339794
1539131212331236,0.9993438620584421,-0.03338673990997165,0.06646829938200938
1539131212347217,0.9973907072556649,-0.034851606012054503,0.0659800106813151
1539131212363198,0.9981231403067063,-0.036316472114137355,0.06268406195162868
1539131212379179,0.9984893568322271,-0.03790341039139378,0.0651255054551001
1539131212395159,1.000808728160525,-0.03533989471274879,0.061097123674372256
1539131212411140,1.0022735942626078,-0.028625925078202386,0.06073090714885154
1539131212427121,1.0014190890363928,-0.03057907988097952,0.06817730983443937
1539131212443102,0.9977569237811856,-0.02935835812924381,0.06646829938200938
1539131212459082,1.0003204394598306,-0.029846646829938095,0.06414892805371153
1539131212475063,0.9994659342336156,-0.035095750362401645,0.06500343327992653
1539131212491044,1.0021515220874342,-0.033630884260318794,0.06793316548409223
1539131212507024,1.0005645838101778,-0.03399710078583951,0.0663462272068358
1539131212523005,1.0012970168612192,-0.03216601815823594,0.07147325856412579
1539131212538986,1.003616388189517,-0.03179980163271523,0.07049668116273722
1539131212554967,1.0005645838101778,-0.02801556420233453,0.07342641336690292
1539131212570947,1.0005645838101778,-0.021667811093308842,0.06622415503166224
1539131212586928,0.9967803463797971,-0.020935378042267416,0.058289463645380124
1539131212602905,0.9995880064087892,-0.018493934538795997,0.06195162890058725
1539131212618886,1.0067902647440299,-0.018005645838101714,0.06329442282749653
1539131212634866,1.0092317082475013,-0.019104295414663852,0.06683451590753009
1539131212650847,1.0063019760433356,-0.01995880064087885,0.07000839246204293
1539131212666828,1.0039826047150378,-0.017639429312581,0.06439307240405867
1539131212682809,1.0041046768902113,-0.013977264057373873,0.06256198977645511
1539131212698789,1.0084992751964599,-0.012512397955291021,0.06158541237506654
1539131212714770,1.0098420691233692,-0.010193026626993174,0.06390478370336439
1539131212730751,1.0067902647440299,-0.012634470130464592,0.06671244373235652
1539131212746731,1.0030060273136492,-0.017273212787060288,0.07037460898756365
1539131212762712,1.0009308003356985,-0.017151140611886717,0.07086289768825793
1539131212778693,1.002761882963302,-0.013244831006332447,0.06622415503166224
1539131212794674,1.0077668421454185,-0.015442130159456724,0.06927595941100151
1539131212810654,1.0071564812695506,-0.01495384145876244,0.07147325856412579
1539131212826635,1.0067902647440299,-0.017761501487754572,0.07281605249103507
1539131212842616,1.0066681925688563,-0.02642862592507811,0.06976424811169579
1539131212858596,1.0031280994888228,-0.032288090333409514,0.07733272297245719
1539131212874577,0.9993438620584421,-0.023376821545738835,0.07891966124971361
1539131212890558,0.9918974593728542,-0.010193026626993174,0.07965209430075504
1539131212906539,0.9835965514610514,0.0023804074158846333,0.08416876478217716
1539131212922515,0.9807888914320593,-0.0026245517662317752,0.08685435263599572
1539131212938496,0.9798123140306707,-0.027649347676813818,0.08038452735179646
1539131212954477,0.9840848401617457,-0.04888990615701516,0.07208361943999364
1539131212970458,0.9859159227893493,-0.05804531929503298,0.07501335164415934
1539131212986438,0.9904325932707714,-0.05108720531013944,0.08685435263599572
1539131213002419,0.9955596246280614,-0.038757915617608774,0.09674219882505497
1539131213018400,0.9993438620584421,-0.032532234683756656,0.10101472495612995
1539131213034381,0.9986114290074006,-0.032532234683756656,0.0974746318760964
1539131213050361,0.9977569237811856,-0.03057907988097952,0.09759670405126997
1539131213066342,0.9999542229343099,-0.03204394598306237,0.09979400320439424
1539131213082323,1.00166323338674,-0.03143358510719452,0.10223544670786566
1539131213098303,1.000808728160525,-0.027161058976119534,0.10223544670786566
1539131213114284,0.9990997177080949,-0.026062409399557396,0.10528725108720494
1539131213130265,1.004226749065385,-0.021057450217440987,0.10235751888303923
1539131213146246,1.0031280994888228,-0.019714656290531707,0.10174715800717138
1539131213162226,0.9990997177080949,-0.02545204852368954,0.10577553978789922
