Timestamp (microseconds),Gyro X (°/s),Gyro Y (°/s),Gyro Z (°/s)
1539131188631195,1.3733119707026162,1.3733119707026162,-0.6408789196611906
1539131188647191,1.1902037079423735,1.4343480582895154,-0.7629510948347615
1539131188663188,1.3733119707026162,1.4343480582895154,-0.7629510948347615
1539131188679184,1.1902037079423735,1.4343480582895154,-0.6408789196611906
1539131188695181,0.33569848172737693,1.4343480582895154,-0.5798428320745188
1539131188711177,-0.7629510948347615,1.5564202334630863,-0.5188067444876197
1539131188727173,-1.6784924086366573,1.8005645838102282,-0.33569848172737693
1539131188743170,-1.8005645838102282,1.9226367589837992,-0.09155413138023505
1539131188759166,-0.7019150072480898,1.983672846570471,0.03051804379333589
1539131188775163,1.1291676203554744,2.04470893415737,0.15259021896690683
1539131188791159,2.227817196917613,2.105745021744042,0.2746623941404778
1539131188807156,1.8005645838102282,1.8616006713969,0.6408789196611906
1539131188823152,-0.09155413138023505,1.5564202334630863,1.0070954451819034
1539131188839149,-2.532997634851654,1.1291676203554744,1.1291676203554744
1539131188855145,-3.936827649347606,0.8850232700083325,0.8239871824216607
1539131188871142,-3.2654306858930795,0.6408789196611906,0.5798428320745188
1539131188887138,-0.7019150072480898,0.45777065690094787,0.5188067444876197
1539131188903134,2.3498893720911838,0.3967345693140487,0.5188067444876197
1539131188919131,3.2043945983061803,0.2746623941404778,0.5188067444876197
1539131188935127,1.4343480582895154,-0.213626306553806,0.3967345693140487
1539131188951110,-1.0681315327688026,-0.8239871824216607,-0.09155413138023505
1539131188967107,-1.1902037079423735,-1.4343480582895154,-0.33569848172737693
1539131188983103,0.5188067444876197,-1.8005645838102282,-0.3967345693140487
1539131188999100,1.8616006713969,-1.6784924086366573,-0.45777065690094787
1539131189015096,1.8005645838102282,-1.1291676203554744,-0.5188067444876197
1539131189031093,1.0681315327688026,-0.7019150072480898,-0.5798428320745188
1539131189047089,0.8239871824216607,-0.2746623941404778,-0.5188067444876197
1539131189063086,1.1291676203554744,-0.03051804379333589,-0.6408789196611906
1539131189079082,1.6784924086366573,0.15259021896690683,-0.7019150072480898
1539131189095079,1.0070954451819034,0.2746623941404778,-0.5798428320745188
1539131189111075,-2.105745021744042,0.3967345693140487,-0.5798428320745188
1539131189127071,-5.828946364538069,0.6408789196611906,-0.6408789196611906
1539131189143068,-7.11070420386045,0.8239871824216607,-0.5798428320745188
1539131189159064,-5.2185854886702145,0.8850232700083325,-0.2746623941404778
1539131189175061,-2.3498893720911838,0.8239871824216607,0.213626306553806
1539131189191057,-0.213626306553806,0.6408789196611906,0.5798428320745188
1539131189207054,1.1902037079423735,0.6408789196611906,0.6408789196611906
1539131189223050,3.2043945983061803,0.8850232700083325,0.3967345693140487
1539131189239047,5.096513313496644,1.1291676203554744,0.45777065690094787
1539131189255043,5.401693751430457,1.1902037079423735,0.45777065690094787
1539131189270965,4.119935912108076,1.0681315327688026,0.33569848172737693
1539131189286961,1.9226367589837992,1.0681315327688026,0.213626306553806
1539131189302957,-0.09155413138023505,0.9460593575952316,0.03051804379333589
1539131189318953,-1.0070954451819034,0.7019150072480898,0.03051804379333589
1539131189334949,-1.0070954451819034,0.7019150072480898,0.15259021896690683
1539131189350945,-0.5798428320745188,0.8239871824216607,0.2746623941404778
1539131189366941,0.03051804379333589,0.7629510948347615,0.2746623941404778
1539131189382937,0.5798428320745188,0.5798428320745188,0.2746623941404778
1539131189398933,0.5188067444876197,0.5188067444876197,0.3967345693140487
1539131189414929,-0.213626306553806,0.8850232700083325,0.33569848172737693
1539131189430925,-0.7629510948347615,1.0681315327688026,0.213626306553806
1539131189446921,-0.7629510948347615,1.0070954451819034,0.03051804379333589
1539131189462917,-0.6408789196611906,1.0070954451819034,0.213626306553806
1539131189478913,-0.213626306553806,1.1902037079423735,0.6408789196611906
1539131189494909,0.03051804379333589,1.3733119707026162,1.2512397955290453
1539131189510905,-0.3967345693140487,1.3733119707026162,1.6174563210497581
1539131189526901,-1.8005645838102282,1.3733119707026162,1.6174563210497581
1539131189542897,-2.9602502479590385,1.3733119707026162,1.4953841458761872
1539131189558893,-2.7771419851987957,1.1902037079423735,1.2512397955290453
1539131189574889,-1.4953841458761872,0.8850232700083325,1.0070954451819034
1539131189590606,-0.03051804379333589,0.7019150072480898,1.0070954451819034
1539131189606601,0.6408789196611906,0.3967345693140487,0.7629510948347615
1539131189622596,0.213626306553806,0.2746623941404778,0.213626306553806
1539131189638591,-0.6408789196611906,0.3967345693140487,-0.213626306553806
1539131189654586,-0.9460593575952316,0.3967345693140487,-0.6408789196611906
1539131189670581,0.15259021896690683,0.33569848172737693,-0.8850232700083325
1539131189686576,2.532997634851654,0.45777065690094787,-0.5798428320745188
1539131189702571,3.3264667734797513,0.7629510948347615,-0.15259021896690683
1539131189718567,1.4953841458761872,1.1902037079423735,-0.03051804379333589
1539131189734562,-0.8850232700083325,1.5564202334630863,0.09155413138023505
1539131189750557,-1.2512397955290453,1.739528496223329,0.15259021896690683
1539131189766552,0.03051804379333589,1.8005645838102282,0.2746623941404778
1539131189782547,1.1902037079423735,1.9226367589837992,0.5188067444876197
1539131189798542,0.5798428320745188,2.166781109330941,0.7629510948347615
1539131189814537,-1.4343480582895154,2.410925459678083,0.5798428320745188
1539131189830532,-2.655069810025225,2.4719615472647547,0.5188067444876197
1539131189846527,-1.9226367589837992,2.410925459678083,0.3967345693140487
1539131189862522,-0.213626306553806,2.166781109330941,0.3967345693140487
1539131189878517,0.5798428320745188,2.04470893415737,0.45777065690094787
1539131189894512,0.09155413138023505,1.9226367589837992,0.33569848172737693
1539131189910217,-0.6408789196611906,1.8005645838102282,0.09155413138023505
1539131189926211,-0.6408789196611906,1.6174563210497581,0.03051804379333589
1539131189942204,0.213626306553806,1.3733119707026162,-0.03051804379333589
1539131189958198,1.0681315327688026,0.9460593575952316,-0.15259021896690683
1539131189974191,1.4953841458761872,0.6408789196611906,-0.15259021896690683
1539131189990185,0.9460593575952316,0.6408789196611906,-0.2746623941404778
1539131190006178,0.7629510948347615,0.5188067444876197,-0.5798428320745188
1539131190022172,1.739528496223329,0.5798428320745188,-0.45777065690094787
1539131190038166,2.5940337224383256,0.33569848172737693,-0.45777065690094787
1539131190054159,2.227817196917613,0.213626306553806,-0.3967345693140487
1539131190070153,0.7019150072480898,0.33569848172737693,-0.45777065690094787
1539131190086146,-0.5798428320745188,0.45777065690094787,-0.6408789196611906
1539131190102140,-0.3967345693140487,0.5798428320745188,-0.7629510948347615
1539131190118134,0.9460593575952316,0.5188067444876197,-0.8239871824216607
1539131190134127,1.5564202334630863,0.5188067444876197,-0.5798428320745188
1539131190150121,0.6408789196611906,0.45777065690094787,-0.3967345693140487
1539131190166114,-0.9460593575952316,0.5188067444876197,-0.213626306553806
1539131190182108,-1.6784924086366573,0.6408789196611906,0.09155413138023505
1539131190198102,-1.2512397955290453,0.7019150072480898,0.2746623941404778
1539131190214095,-1.4343480582895154,0.7019150072480898,0.03051804379333589
1539131190229858,-2.166781109330941,0.8239871824216607,-0.45777065690094787
1539131190245851,-1.2512397955290453,0.7629510948347615,-0.6408789196611906
1539131190261843,0.9460593575952316,0.6408789196611906,-0.3967345693140487
1539131190277836,1.8616006713969,0.5798428320745188,-0.33569848172737693
1539131190293829,1.2512397955290453,0.5798428320745188,-0.2746623941404778
1539131190309821,0.3967345693140487,0.5188067444876197,-0.45777065690094787
1539131190325814,0.5188067444876197,0.3967345693140487,-0.6408789196611906
1539131190341807,1.8616006713969,0.3967345693140487,-0.3967345693140487
1539131190357799,2.7161058976118966,0.33569848172737693,-0.3967345693140487
1539131190373792,2.105745021744042,0.45777065690094787,-0.45777065690094787
1539131190389784,0.7629510948347615,0.7019150072480898,-0.3967345693140487
1539131190405777,-0.33569848172737693,0.7629510948347615,-0.45777065690094787
1539131190421770,-0.7019150072480898,0.8239871824216607,-0.5188067444876197
1539131190437762,-0.2746623941404778,0.9460593575952316,-0.33569848172737693
1539131190453755,0.45777065690094787,0.8239871824216607,-0.213626306553806
1539131190469748,0.5798428320745188,0.8239871824216607,-0.2746623941404778
1539131190485740,0.5798428320745188,0.8239871824216607,-0.213626306553806
1539131190501733,0.7019150072480898,0.7629510948347615,-0.03051804379333589
1539131190517726,1.0681315327688026,0.8239871824216607,0.09155413138023505
1539131190533718,1.1902037079423735,0.8850232700083325,-0.03051804379333589
1539131190549499,1.0681315327688026,1.0681315327688026,-0.03051804379333589
1539131190565491,0.5798428320745188,1.0070954451819034,0.03051804379333589
1539131190581483,0.03051804379333589,1.0070954451819034,-0.03051804379333589
1539131190597474,-0.15259021896690683,1.0070954451819034,0.09155413138023505
1539131190613466,0.33569848172737693,1.0681315327688026,0.03051804379333589
1539131190629458,0.8239871824216607,1.0070954451819034,0.15259021896690683
1539131190645449,0.7019150072480898,0.7019150072480898,0.15259021896690683
1539131190661441,0.03051804379333589,0.5798428320745188,0.15259021896690683
1539131190677433,-0.5798428320745188,0.6408789196611906,0.15259021896690683
1539131190693424,-0.6408789196611906,0.6408789196611906,0.09155413138023505
1539131190709416,0.15259021896690683,0.5188067444876197,0.03051804379333589
1539131190725408,0.8239871824216607,0.6408789196611906,-0.09155413138023505
1539131190741399,0.6408789196611906,0.8239871824216607,-0.45777065690094787
1539131190757391,0.5798428320745188,1.1291676203554744,-1.0070954451819034
1539131190773383,1.739528496223329,1.2512397955290453,-1.3122758831159445
1539131190789374,3.692683299000464,1.2512397955290453,-1.0070954451819034
1539131190805366,4.730296787975931,1.1902037079423735,-0.6408789196611906
1539131190821358,3.7537193865873633,1.0681315327688026,-0.5798428320745188
1539131190837350,1.6174563210497581,1.0070954451819034,-0.45777065690094787
1539131190853341,0.2746623941404778,1.1291676203554744,-0.45777065690094787
1539131190869110,0.33569848172737693,1.0070954451819034,-0.5188067444876197
1539131190885101,1.3733119707026162,0.8850232700083325,-0.7629510948347615
1539131190901092,2.655069810025225,0.7019150072480898,-0.8239871824216607
1539131190917083,3.570611123826893,0.3967345693140487,-0.7019150072480898
1539131190933075,2.8992141603723667,0.213626306553806,-0.7629510948347615
1539131190949066,1.6784924086366573,0.03051804379333589,-0.6408789196611906
1539131190965057,0.8850232700083325,-0.213626306553806,-0.45777065690094787
1539131190981048,0.7019150072480898,-0.33569848172737693,-0.45777065690094787
1539131190997039,1.2512397955290453,-0.2746623941404778,-0.3967345693140487
1539131191013031,1.983672846570471,-0.15259021896690683,-0.15259021896690683
1539131191029022,1.3122758831159445,-0.15259021896690683,-0.3967345693140487
1539131191045013,-0.45777065690094787,-0.03051804379333589,-0.8239871824216607
1539131191061004,-1.0681315327688026,-0.03051804379333589,-0.8850232700083325
1539131191076995,-0.2746623941404778,0.03051804379333589,-0.6408789196611906
1539131191092987,0.213626306553806,0.03051804379333589,-0.6408789196611906
1539131191108978,0.15259021896690683,0.33569848172737693,-0.5188067444876197
1539131191124969,0.213626306553806,0.5188067444876197,-0.5798428320745188
1539131191140960,0.33569848172737693,0.5188067444876197,-0.7629510948347615
1539131191156952,0.5798428320745188,0.5798428320745188,-0.7019150072480898
1539131191172943,0.8239871824216607,0.5188067444876197,-0.45777065690094787
1539131191188751,0.6408789196611906,0.3967345693140487,-0.3967345693140487
1539131191204741,0.6408789196611906,0.33569848172737693,-0.5188067444876197
1539131191220731,0.9460593575952316,0.5188067444876197,-0.7019150072480898
1539131191236722,1.2512397955290453,0.7629510948347615,-0.8239871824216607
1539131191252712,1.3122758831159445,0.8850232700083325,-0.8239871824216607
1539131191268702,0.9460593575952316,0.9460593575952316,-0.7019150072480898
1539131191284692,0.45777065690094787,0.9460593575952316,-0.5188067444876197
1539131191300683,-0.09155413138023505,1.2512397955290453,-0.45777065690094787
1539131191316673,-0.5188067444876197,1.3733119707026162,-0.5798428320745188
1539131191332663,-0.5798428320745188,1.5564202334630863,-0.5798428320745188
1539131191348653,-0.7019150072480898,1.6784924086366573,-0.5798428320745188
1539131191364644,-0.8239871824216607,1.8616006713969,-0.7019150072480898
1539131191380634,-0.2746623941404778,2.04470893415737,-0.9460593575952316
1539131191396624,1.739528496223329,2.105745021744042,-1.0070954451819034
1539131191412614,2.8992141603723667,2.105745021744042,-0.9460593575952316
1539131191428605,2.288853284504512,2.04470893415737,-0.8850232700083325
1539131191444595,1.0070954451819034,2.105745021744042,-0.8239871824216607
1539131191460585,0.3967345693140487,2.04470893415737,-0.7019150072480898
1539131191476575,0.7019150072480898,1.9226367589837992,-0.33569848172737693
1539131191492566,0.213626306553806,1.8005645838102282,-0.09155413138023505
1539131191508361,-1.1291676203554744,1.8005645838102282,-0.3967345693140487
1539131191524351,-1.8616006713969,1.739528496223329,-0.7019150072480898
1539131191540340,-0.8850232700083325,1.6784924086366573,-0.6408789196611906
1539131191556329,1.0070954451819034,1.739528496223329,-0.45777065690094787
1539131191572319,1.8616006713969,1.8616006713969,-0.33569848172737693
1539131191588308,1.3733119707026162,1.8616006713969,-0.6408789196611906
1539131191604297,0.6408789196611906,1.8005645838102282,-0.9460593575952316
1539131191620287,0.8850232700083325,1.6174563210497581,-1.0681315327688026
1539131191636276,1.739528496223329,1.6174563210497581,-0.9460593575952316
1539131191652265,1.9226367589837992,1.739528496223329,-0.8239871824216607
1539131191668254,1.6174563210497581,1.9226367589837992,-0.8239871824216607
1539131191684244,0.9460593575952316,2.04470893415737,-0.8239871824216607
1539131191700233,-0.03051804379333589,2.04470893415737,-0.8239871824216607
1539131191716222,-0.5188067444876197,1.9226367589837992,-1.0681315327688026
1539131191732212,0.45777065690094787,1.739528496223329,-1.2512397955290453
1539131191748201,2.04470893415737,1.6784924086366573,-1.2512397955290453
1539131191764190,2.105745021744042,1.739528496223329,-1.3733119707026162
1539131191780180,1.4343480582895154,1.6174563210497581,-1.3122758831159445
1539131191796169,1.1291676203554744,1.4343480582895154,-0.8850232700083325
1539131191812158,1.0070954451819034,1.3122758831159445,-0.5188067444876197
1539131191828003,1.0070954451819034,1.3733119707026162,-0.15259021896690683
1539131191843991,0.7629510948347615,1.4343480582895154,0.09155413138023505
1539131191859980,0.3967345693140487,1.6174563210497581,0.09155413138023505
1539131191875969,0.09155413138023505,1.5564202334630863,-0.09155413138023505
1539131191891958,-0.15259021896690683,1.4343480582895154,-0.09155413138023505
1539131191907947,-0.7629510948347615,1.1902037079423735,-0.09155413138023505
1539131191923936,-1.5564202334630863,1.0681315327688026,-0.03051804379333589
1539131191939924,-1.9226367589837992,1.0681315327688026,-0.15259021896690683
1539131191955913,-1.1902037079423735,0.8850232700083325,-0.03051804379333589
1539131191971902,0.03051804379333589,0.8239871824216607,0.2746623941404778
1539131191987891,0.2746623941404778,0.8239871824216607,0.33569848172737693
1539131192003880,-0.45777065690094787,0.8850232700083325,0.15259021896690683
1539131192019868,-1.3122758831159445,0.7629510948347615,-0.213626306553806
1539131192035857,-0.9460593575952316,0.6408789196611906,-0.5188067444876197
1539131192051846,0.2746623941404778,0.5798428320745188,-0.45777065690094787
1539131192067835,-0.2746623941404778,0.7019150072480898,-0.3967345693140487
1539131192083824,-2.410925459678083,0.7019150072480898,-0.5798428320745188
1539131192099813,-4.791332875562603,0.6408789196611906,-0.6408789196611906
1539131192115801,-6.805523765926637,0.6408789196611906,-0.7629510948347615
1539131192131790,-8.026245517662346,0.8850232700083325,-1.0070954451819034
1539131192147613,-7.4158846417944915,0.8239871824216607,-1.3122758831159445
1539131192163602,-3.997863736934505,0.8239871824216607,-1.1902037079423735
1539131192179590,0.45777065690094787,0.9460593575952316,-1.1291676203554744
1539131192195578,4.119935912108076,1.1902037079423735,-1.0681315327688026
1539131192211567,7.049668116273779,1.1902037079423735,-0.6408789196611906
1539131192227555,3.0823224231326094,1.3122758831159445,-0.7019150072480898
1539131192243543,-2.288853284504512,1.1902037079423735,-0.8239871824216607
1539131192259532,-5.401693751430457,1.1902037079423735,-0.8850232700083325
1539131192275520,-4.180971999694748,1.0070954451819034,-0.5798428320745188
1539131192291508,-0.7019150072480898,1.1291676203554744,-0.03051804379333589
1539131192307497,1.4343480582895154,0.9460593575952316,0.2746623941404778
1539131192323485,0.15259021896690683,0.5798428320745188,0.33569848172737693
1539131192339473,-2.9602502479590385,0.2746623941404778,0.03051804379333589
1539131192355462,-4.242008087281647,0.213626306553806,-0.15259021896690683
1539131192371450,-2.5940337224383256,0.15259021896690683,-0.15259021896690683
1539131192387438,0.3967345693140487,0.213626306553806,-0.09155413138023505
1539131192403427,2.8381780727854675,0.33569848172737693,0.2746623941404778
1539131192419415,2.8381780727854675,0.45777065690094787,0.33569848172737693
1539131192435403,0.03051804379333589,0.2746623941404778,0.09155413138023505
1539131192451392,-2.7771419851987957,0.15259021896690683,-0.213626306553806
1539131192467224,-3.0212863355459376,0.09155413138023505,-0.33569848172737693
1539131192483211,-1.4953841458761872,0.09155413138023505,-0.33569848172737693
1539131192499199,-0.6408789196611906,0.33569848172737693,-0.2746623941404778
1539131192515186,-0.5798428320745188,0.33569848172737693,-0.2746623941404778
1539131192531173,0.03051804379333589,0.09155413138023505,-0.2746623941404778
1539131192547161,0.45777065690094787,0.09155413138023505,-0.5188067444876197
1539131192563148,0.7019150072480898,0.09155413138023505,-0.6408789196611906
1539131192579136,1.3122758831159445,-0.03051804379333589,-0.3967345693140487
1539131192595123,2.288853284504512,-0.2746623941404778,-0.09155413138023505
1539131192611110,2.8381780727854675,-0.213626306553806,-0.15259021896690683
1539131192627098,2.7771419851987957,0.03051804379333589,-0.15259021896690683
1539131192643085,2.166781109330941,0.15259021896690683,-0.2746623941404778
1539131192659073,1.6784924086366573,0.2746623941404778,-0.33569848172737693
1539131192675060,1.8616006713969,0.3967345693140487,-0.09155413138023505
1539131192691047,2.4719615472647547,0.15259021896690683,0.33569848172737693
1539131192707035,1.9226367589837992,0.213626306553806,0.8239871824216607
1539131192723022,0.45777065690094787,0.15259021896690683,1.0681315327688026
1539131192739009,-1.4343480582895154,0.09155413138023505,1.3733119707026162
1539131192754997,-3.0823224231326094,0.09155413138023505,1.5564202334630863
1539131192770984,-3.936827649347606,0.15259021896690683,1.6174563210497581
1539131192786865,-3.570611123826893,0.213626306553806,1.4953841458761872
1539131192802852,-2.4719615472647547,0.3967345693140487,1.3122758831159445
1539131192818839,-1.2512397955290453,0.7019150072480898,1.3122758831159445
1539131192834826,-1.1291676203554744,1.0070954451819034,1.3122758831159445
1539131192850813,-1.6174563210497581,1.1291676203554744,1.1902037079423735
1539131192866799,-2.105745021744042,1.2512397955290453,0.8239871824216607
1539131192882786,-1.2512397955290453,1.1902037079423735,0.45777065690094787
1539131192898773,0.5798428320745188,0.9460593575952316,0.2746623941404778
1539131192914760,1.739528496223329,0.8239871824216607,0.15259021896690683
1539131192930747,1.5564202334630863,0.8850232700083325,0.15259021896690683
1539131192946734,0.03051804379333589,0.8850232700083325,0.2746623941404778
1539131192962721,-1.4953841458761872,0.6408789196611906,0.33569848172737693
1539131192978708,-1.4343480582895154,0.3967345693140487,0.5188067444876197
1539131192994695,0.03051804379333589,0.15259021896690683,0.45777065690094787
1539131193010682,1.3122758831159445,0.03051804379333589,0.5188067444876197
1539131193026669,1.3733119707026162,-0.03051804379333589,0.8239871824216607
1539131193042656,0.8850232700083325,0.09155413138023505,0.8239871824216607
1539131193058642,0.9460593575952316,0.213626306553806,0.8239871824216607
1539131193074629,0.3967345693140487,0.3967345693140487,0.5188067444876197
1539131193090616,-1.4343480582895154,0.45777065690094787,0.213626306553806
1539131193106475,-4.119935912108076,0.3967345693140487,-0.09155413138023505
1539131193122462,-6.317235065232353,0.3967345693140487,-0.09155413138023505
1539131193138448,-8.758678568703772,0.7629510948347615,-0.03051804379333589
1539131193154435,-11.01701380941472,0.7019150072480898,-0.2746623941404778
1539131193170421,-10.772869459067579,0.6408789196611906,-0.09155413138023505
1539131193186408,-8.697642481116873,0.7629510948347615,-0.09155413138023505
1539131193202394,-6.317235065232353,0.5188067444876197,-0.09155413138023505
1539131193218381,-6.805523765926637,0.3967345693140487,-0.15259021896690683
1539131193234367,-8.575570305943302,0.33569848172737693,-0.03051804379333589
1539131193250353,-8.6366063935302,0.33569848172737693,-0.09155413138023505
1539131193266340,-4.9134050507361735,0.45777065690094787,0.09155413138023505
1539131193282326,0.15259021896690683,0.6408789196611906,0.15259021896690683
1539131193298313,2.4719615472647547,0.7629510948347615,0.15259021896690683
1539131193314299,1.983672846570471,0.7019150072480898,-0.213626306553806
1539131193330286,0.9460593575952316,0.5798428320745188,-0.213626306553806
1539131193346272,0.8850232700083325,0.45777065690094787,-0.15259021896690683
1539131193362259,1.739528496223329,0.33569848172737693,0.15259021896690683
1539131193378245,2.410925459678083,0.213626306553806,0.6408789196611906
1539131193394231,2.166781109330941,0.15259021896690683,0.9460593575952316
1539131193410218,1.8616006713969,0.09155413138023505,1.0070954451819034
1539131193426117,2.655069810025225,0.03051804379333589,1.0681315327688026
1539131193442103,4.60822461280236,-0.03051804379333589,1.2512397955290453
1539131193458089,6.9886320286868795,-0.15259021896690683,1.4953841458761872
1539131193474076,7.476920729381163,-0.213626306553806,1.4343480582895154
1539131193490062,6.317235065232353,-0.09155413138023505,0.9460593575952316
1539131193506049,5.462729839017356,0.09155413138023505,0.5188067444876197
1539131193522035,5.706874189364498,0.213626306553806,0.15259021896690683
1539131193538022,6.927595941100208,0.5798428320745188,-0.09155413138023505
1539131193554008,8.45349813076973,0.8850232700083325,-0.03051804379333589
1539131193569995,8.697642481116873,1.0681315327688026,0.2746623941404778
1539131193585981,6.683451590753066,1.1902037079423735,0.8239871824216607
1539131193601967,2.7771419851987957,1.0681315327688026,0.7629510948347615
1539131193617954,-0.15259021896690683,0.9460593575952316,0.45777065690094787
1539131193633940,-0.5798428320745188,1.0070954451819034,0.33569848172737693
1539131193649927,0.8850232700083325,1.1902037079423735,0.45777065690094787
1539131193665913,2.227817196917613,1.2512397955290453,0.5188067444876197
1539131193681900,2.288853284504512,1.3733119707026162,0.45777065690094787
1539131193697886,1.983672846570471,1.4343480582895154,0.213626306553806
1539131193713873,1.9226367589837992,1.3122758831159445,-0.09155413138023505
1539131193729859,1.9226367589837992,1.1902037079423735,-0.15259021896690683
1539131193745758,1.8616006713969,1.1291676203554744,-0.09155413138023505
1539131193761744,1.739528496223329,1.0070954451819034,0.15259021896690683
1539131193777730,0.8850232700083325,0.9460593575952316,0.33569848172737693
1539131193793716,-0.45777065690094787,0.8850232700083325,0.09155413138023505
1539131193809702,-0.3967345693140487,0.9460593575952316,-0.03051804379333589
1539131193825688,0.7019150072480898,1.0070954451819034,-0.15259021896690683
1539131193841673,0.7629510948347615,1.0070954451819034,-0.213626306553806
1539131193857659,-0.09155413138023505,1.0070954451819034,-0.33569848172737693
1539131193873645,-1.0070954451819034,1.0070954451819034,-0.3967345693140487
1539131193889631,-0.8850232700083325,1.0070954451819034,-0.3967345693140487
1539131193905617,-0.09155413138023505,1.1291676203554744,-0.213626306553806
1539131193921603,0.45777065690094787,1.2512397955290453,-0.15259021896690683
1539131193937589,0.33569848172737693,1.3733119707026162,-0.2746623941404778
1539131193953575,0.03051804379333589,1.5564202334630863,-0.5188067444876197
1539131193969561,0.5798428320745188,1.5564202334630863,-0.7629510948347615
1539131193985547,1.739528496223329,1.4953841458761872,-0.7019150072480898
1539131194001533,2.04470893415737,1.3733119707026162,-0.7629510948347615
1539131194017519,1.4953841458761872,1.3122758831159445,-0.7019150072480898
1539131194033505,0.33569848172737693,1.1291676203554744,-0.45777065690094787
1539131194049491,-2.9602502479590385,0.7019150072480898,-0.03051804379333589
1539131194065338,-7.721065079728305,0.8239871824216607,-0.09155413138023505
1539131194081323,-12.726024261844714,1.4343480582895154,-0.5798428320745188
1539131194097309,-15.655756466010416,1.5564202334630863,-1.1902037079423735
1539131194113294,-17.730983443961122,1.739528496223329,-1.6784924086366573
1539131194129280,-19.073777370870403,1.8005645838102282,-2.410925459678083
1539131194145265,-17.975127794308264,1.8005645838102282,-2.655069810025225
1539131194161251,-14.496070801861606,1.6784924086366573,-2.532997634851654
1539131194177236,-8.880750743877343,1.3733119707026162,-2.105745021744042
1539131194193222,-3.4485389486533222,1.0070954451819034,-1.6784924086366573
1539131194209207,-0.5188067444876197,0.7019150072480898,-1.2512397955290453
1539131194225193,-0.33569848172737693,0.3967345693140487,-1.1291676203554744
1539131194241178,-0.09155413138023505,0.09155413138023505,-0.9460593575952316
1539131194257164,2.166781109330941,-0.03051804379333589,-0.8239871824216607
1539131194273149,5.279621576256886,-0.03051804379333589,-0.6408789196611906
1539131194289135,7.17174029144735,0.213626306553806,-0.5188067444876197
1539131194305120,7.17174029144735,0.6408789196611906,-0.6408789196611906
1539131194321106,6.9886320286868795,0.8239871824216607,-0.9460593575952316
1539131194337091,8.758678568703772,0.8239871824216607,-1.0070954451819034
1539131194353077,12.054627298390187,0.8850232700083325,-0.7019150072480898
1539131194369062,14.92332341496899,1.0070954451819034,-0.33569848172737693
1539131194384948,15.594720378423744,1.1902037079423735,0.09155413138023505
1539131194400933,13.092240787365427,1.1291676203554744,0.2746623941404778
1539131194416918,8.697642481116873,1.3733119707026162,0.213626306553806
1539131194432903,4.303044174868319,1.4953841458761872,0.15259021896690683
1539131194448888,1.6174563210497581,1.6174563210497581,0.15259021896690683
1539131194464873,0.7629510948347615,1.5564202334630863,-0.09155413138023505
1539131194480858,1.0681315327688026,1.4343480582895154,-0.3967345693140487
1539131194496843,1.8005645838102282,1.5564202334630863,-0.5188067444876197
1539131194512828,2.227817196917613,1.5564202334630863,-0.6408789196611906
1539131194528813,2.288853284504512,1.5564202334630863,-0.7629510948347615
1539131194544798,1.739528496223329,1.739528496223329,-1.0681315327688026
1539131194560783,1.0070954451819034,1.8005645838102282,-1.1902037079423735
1539131194576769,0.7629510948347615,1.739528496223329,-1.1291676203554744
1539131194592754,0.09155413138023505,1.8005645838102282,-0.9460593575952316
1539131194608739,-0.8850232700083325,1.8616006713969,-0.9460593575952316
1539131194624724,-0.7019150072480898,1.739528496223329,-0.8239871824216607
1539131194640709,0.09155413138023505,1.4953841458761872,-0.7629510948347615
1539131194656694,0.9460593575952316,1.3122758831159445,-0.7629510948347615
1539131194672679,0.9460593575952316,1.4343480582895154,-0.5188067444876197
1539131194688664,-0.09155413138023505,1.6174563210497581,-0.03051804379333589
1539131194704559,-1.3733119707026162,1.4953841458761872,0.45777065690094787
1539131194720543,-2.227817196917613,1.2512397955290453,0.5798428320745188
1539131194736528,-2.410925459678083,1.2512397955290453,0.3967345693140487
1539131194752513,-2.105745021744042,1.3733119707026162,0.15259021896690683
1539131194768497,-1.8616006713969,1.4343480582895154,0.09155413138023505
1539131194784482,-1.6174563210497581,1.3122758831159445,-0.03051804379333589
1539131194800466,-1.1291676203554744,1.2512397955290453,-0.33569848172737693
1539131194816451,-0.09155413138023505,1.1902037079423735,-0.8239871824216607
1539131194832435,0.5798428320745188,1.1902037079423735,-1.1291676203554744
1539131194848420,0.3967345693140487,0.8850232700083325,-1.5564202334630863
1539131194864404,0.15259021896690683,0.5188067444876197,-2.105745021744042
1539131194880389,1.4343480582895154,0.33569848172737693,-2.5940337224383256
1539131194896373,3.1433585107195086,0.213626306553806,-3.1433585107195086
1539131194912358,4.242008087281647,0.3967345693140487,-3.2043945983061803
1539131194928342,3.570611123826893,0.5798428320745188,-2.7771419851987957
1539131194944327,2.166781109330941,0.7019150072480898,-2.3498893720911838
1539131194960312,0.7629510948347615,0.9460593575952316,-1.9226367589837992
1539131194976296,-0.03051804379333589,1.0070954451819034,-1.5564202334630863
1539131194992281,-0.33569848172737693,0.9460593575952316,-1.1291676203554744
1539131195008265,-1.1291676203554744,0.8239871824216607,-0.6408789196611906
1539131195024200,-2.5940337224383256,0.6408789196611906,-0.03051804379333589
1539131195040184,-3.2654306858930795,0.09155413138023505,0.5798428320745188
1539131195056168,-2.4719615472647547,-0.5798428320745188,0.9460593575952316
1539131195072152,-0.7629510948347615,-0.9460593575952316,0.8239871824216607
1539131195088136,1.1902037079423735,-0.5798428320745188,-0.03051804379333589
1539131195104120,3.3264667734797513,0.15259021896690683,-0.7629510948347615
1539131195120104,5.0354772259097444,0.33569848172737693,-0.8239871824216607
1539131195136088,5.95101853971164,0.15259021896690683,-0.7019150072480898
1539131195152073,5.828946364538069,-0.09155413138023505,-0.45777065690094787
1539131195168057,4.669260700389032,0.03051804379333589,-0.15259021896690683
1539131195184041,2.04470893415737,0.33569848172737693,-0.15259021896690683
1539131195200025,-1.2512397955290453,0.7629510948347615,-0.33569848172737693
1539131195216009,-3.0823224231326094,0.8850232700083325,-0.33569848172737693
1539131195231993,-2.4719615472647547,0.8850232700083325,0.213626306553806
1539131195247977,-0.7629510948347615,1.0070954451819034,0.7629510948347615
1539131195263961,-0.3967345693140487,1.0681315327688026,0.6408789196611906
1539131195279945,-1.5564202334630863,1.1902037079423735,0.09155413138023505
1539131195295929,-2.655069810025225,1.4343480582895154,-0.3967345693140487
1539131195311913,-2.227817196917613,1.4343480582895154,-0.8239871824216607
1539131195327897,-0.15259021896690683,1.6174563210497581,-0.5798428320745188
1539131195343811,1.8005645838102282,1.739528496223329,-0.15259021896690683
1539131195359795,1.2512397955290453,1.983672846570471,-0.15259021896690683
1539131195375779,-1.9226367589837992,2.04470893415737,-0.45777065690094787
1539131195391763,-4.364080262455218,1.739528496223329,-0.5188067444876197
1539131195407747,-3.997863736934505,1.5564202334630863,-0.213626306553806
1539131195423731,-1.9226367589837992,1.1902037079423735,0.09155413138023505
1539131195439715,0.09155413138023505,0.5188067444876197,0.33569848172737693
1539131195455699,0.8850232700083325,-0.09155413138023505,0.45777065690094787
1539131195471683,0.213626306553806,-0.6408789196611906,0.45777065690094787
1539131195487667,-1.3122758831159445,-1.0070954451819034,0.09155413138023505
1539131195503651,-2.04470893415737,-1.4343480582895154,-0.213626306553806
1539131195519635,-0.7629510948347615,-1.9226367589837992,-0.5188067444876197
1539131195535619,1.739528496223329,-2.410925459678083,-0.6408789196611906
1539131195551603,3.814755474174035,-2.5940337224383256,-0.2746623941404778
1539131195567587,3.4485389486533222,-2.4719615472647547,-0.15259021896690683
1539131195583572,1.739528496223329,-2.3498893720911838,0.03051804379333589
1539131195599556,1.2512397955290453,-1.8005645838102282,0.5188067444876197
1539131195615540,2.5940337224383256,-1.0070954451819034,0.6408789196611906
1539131195631524,3.0212863355459376,-0.09155413138023505,0.3967345693140487
1539131195647508,2.105745021744042,0.8850232700083325,0.15259021896690683
1539131195663421,0.7019150072480898,1.4953841458761872,0.2746623941404778
1539131195679405,-1.8005645838102282,1.9226367589837992,0.6408789196611906
1539131195695388,-5.0354772259097444,2.105745021744042,1.0681315327688026
1539131195711372,-6.012054627298312,1.983672846570471,1.4953841458761872
1539131195727356,-4.669260700389032,1.6784924086366573,1.983672846570471
1539131195743339,-3.936827649347606,1.5564202334630863,2.227817196917613
1539131195759323,-4.058899824521177,1.4953841458761872,2.3498893720911838
1539131195775306,-5.0354772259097444,1.5564202334630863,2.4719615472647547
1539131195791290,-5.645838101777599,1.3733119707026162,2.166781109330941
1539131195807273,-4.058899824521177,0.9460593575952316,1.6174563210497581
1539131195823257,0.09155413138023505,0.45777065690094787,1.2512397955290453
1539131195839241,3.2654306858930795,0.09155413138023505,1.0070954451819034
1539131195855224,2.7771419851987957,0.15259021896690683,0.213626306553806
1539131195871208,0.6408789196611906,-0.2746623941404778,-0.6408789196611906
1539131195887191,0.45777065690094787,-0.9460593575952316,-0.9460593575952316
1539131195903175,0.7629510948347615,-1.739528496223329,-0.8850232700083325
1539131195919159,0.33569848172737693,-2.3498893720911838,-1.1291676203554744
1539131195935142,-0.09155413138023505,-3.2043945983061803,-1.9226367589837992
1539131195951126,1.1291676203554744,-4.486152437628789,-2.8381780727854675
1539131195967109,5.828946364538069,-5.95101853971164,-3.570611123826893
1539131195983062,14.129854276340893,-7.232776379034021,-3.997863736934505
1539131195999046,24.689097428854666,-7.660028992141633,-4.547188525215461
1539131196015030,32.501716639963206,-7.782101167315204,-6.256198977645454
1539131196031013,41.90127412832817,-8.392462043183059,-6.805523765926637
1539131196046997,50.446326390478134,-3.875791561760934,-3.692683299000464
1539131196062980,41.535057602807456,3.6316472114137923,1.6174563210497581
1539131196078964,24.01770046540014,13.397421225299468,7.965209430075447
1539131196094947,2.166781109330941,23.95666437781324,14.98435950255589
1539131196110931,-13.275349050125897,35.61455710688938,21.210040436408008
1539131196126915,-21.881437399862534,46.967269398031476,26.764324406805372
1539131196142898,-21.69832913710229,58.80827038986763,31.342030975814396
1539131196158882,-7.660028992141633,71.38170443274612,34.57694361791391
1539131196174865,4.974441138323073,83.34477759975607,38.54428931105508
1539131196190849,9.85732814526591,93.72091248950937,43.67132066834506
1539131196206833,13.64156557564661,103.79186694132932,49.95803768978385
1539131196222816,13.824673838406852,111.23826962691692,55.02403295948716
1539131196238800,12.664988174258042,114.41214618142976,57.58754863813192
1539131196254783,11.993591210803288,115.02250705729784,58.442053864347145
1539131196270767,12.115663385976859,112.6420996414131,57.09925993743764
1539131196286750,9.369039444571627,105.37880521858551,53.498130769817635
1539131196302673,2.9602502479590385,92.62226291294746,47.943846799420044
1539131196318657,4.364080262455218,75.28801403830039,40.9246967269396
1539131196334640,10.589761196307336,56.183718623636196,33.53933012893867
1539131196350624,16.44922560463874,35.248340581368666,24.322880903333953
1539131196366607,20.05035477225897,13.76363775082018,14.618142977035177
1539131196382591,21.51522087434182,-7.4158846417944915,4.242008087281647
1539131196398574,19.256885633630873,-28.16815442130155,-7.537956816968062
1539131196414558,11.505302510109004,-47.88281071183337,-19.317921721217544
1539131196430542,14.373998626688035,-63.874265659571165,-29.571984435797503
1539131196446525,21.087968261234437,-78.33981841763944,-38.97154192416269
1539131196462509,14.129854276340893,-93.65987640192247,-45.25825894560171
1539131196478492,-10.406652933546866,-110.26169222552835,-51.72808422980097
1539131196494476,-67.5364309147783,-137.23964293888753,-62.531471732661885
1539131196510460,-142.9159990844587,-178.6221103227283,-92.43915465018677
1539131196526443,-125.2155336842909,-228.18341344319833,-142.24460212100394
1539131196542427,-127.53490501258875,-159.3347066453041,-105.74502174410623
1539131196558410,43.48821240558459,16.2050812542916,5.889982452124741
1539131196574394,-19.01274128328373,14.129854276340893,6.9886320286868795
1539131196590377,-1.6784924086366573,18.95170519569683,38.910505836575794
1539131196606361,111.42137788967739,20.904859998473967,29.999237048905115
1539131196622284,-15.10643167772946,14.92332341496899,21.27107652399468
1539131196638267,0.7019150072480898,27.313649195086555,18.58548867017612
1539131196654250,-5.889982452124741,29.755092698557974,17.975127794308264
1539131196670233,-0.8850232700083325,32.07446402685582,18.219272144655406
1539131196686216,4.364080262455218,30.243381399252257,19.745174334325156
1539131196702199,-0.2746623941404778,22.552834363317288,19.317921721217544
1539131196718182,-0.7019150072480898,14.435034714274707,16.08300907911803
1539131196734165,2.410925459678083,5.889982452124741,11.07804989700162
1539131196750148,10.345616845960194,-1.1291676203554744,5.76791027695117
1539131196766132,20.11139085984587,-4.852368963149502,1.0681315327688026
1539131196782115,20.05035477225897,-6.9886320286868795,-2.7771419851987957
1539131196798098,12.848096437018285,-7.537956816968062,-6.195162890058782
1539131196814081,6.561379415579495,-7.354848554207592,-9.185931181811156
1539131196830064,1.8005645838102282,-7.598992904554734,-11.139085984588291
1539131196846047,5.2185854886702145,-8.087281605249018,-11.749446860456146
1539131196862030,12.909132524605184,-7.782101167315204,-11.444266422522333
1539131196878013,12.298771648737329,-7.049668116273779,-10.89494163424115
1539131196893996,7.537956816968062,-6.378271152819025,-10.162508583199724
1539131196909979,5.645838101777599,-5.706874189364498,-8.697642481116873
1539131196925963,6.805523765926637,-5.0354772259097444,-7.660028992141633
1539131196941894,5.95101853971164,-4.303044174868319,-6.927595941100208
1539131196957877,5.401693751430457,-3.3264667734797513,-5.95101853971164
1539131196973860,3.2654306858930795,-2.7771419851987957,-5.157549401083315
1539131196989843,-0.8239871824216607,-2.8381780727854675,-4.119935912108076
1539131197005827,0.03051804379333589,-3.2043945983061803,-2.8381780727854675
1539131197021810,4.180971999694748,-3.814755474174035,-2.288853284504512
1539131197037793,6.256198977645454,-5.096513313496644,-3.1433585107195086
1539131197053776,3.3264667734797513,-6.805523765926637,-4.364080262455218
1539131197069759,3.0212863355459376,-7.965209430075447,-4.730296787975931
1539131197085742,4.669260700389032,-9.369039444571627,-4.303044174868319
1539131197101725,9.246967269398056,-11.566338597695903,-4.791332875562603
1539131197117708,11.566338597695903,-14.435034714274707,-6.317235065232353
1539131197133691,10.528725108720437,-16.571297779812312,-8.087281605249018
1539131197149675,10.406652933546866,-16.388189517051842,-8.270389868009488
1539131197165658,8.758678568703772,-14.98435950255589,-6.805523765926637
1539131197181641,7.843137254901876,-13.397421225299468,-5.462729839017356
1539131197197624,5.828946364538069,-11.871519035629717,-4.60822461280236
1539131197213607,1.0070954451819034,-10.345616845960194,-3.997863736934505
1539131197229590,0.09155413138023505,-8.33142595559616,-3.1433585107195086
1539131197245573,3.2654306858930795,-6.317235065232353,-3.2654306858930795
1539131197261505,3.814755474174035,-4.669260700389032,-4.242008087281647
1539131197277487,-1.8616006713969,-3.2654306858930795,-4.974441138323073
1539131197293470,-5.706874189364498,-1.983672846570471,-5.584802014190927
1539131197309453,-4.303044174868319,-1.4343480582895154,-5.523765926604028
1539131197325435,-0.09155413138023505,-1.1902037079423735,-5.523765926604028
1539131197341418,3.6316472114137923,-1.1902037079423735,-5.523765926604028
1539131197357401,4.852368963149502,-1.1902037079423735,-6.073090714885211
1539131197373383,3.0823224231326094,-1.5564202334630863,-6.500343327992596
1539131197389366,-4.852368963149502,-1.739528496223329,-5.2185854886702145
1539131197405348,-7.4158846417944915,0.33569848172737693,-2.288853284504512
1539131197421331,-0.5798428320745188,3.7537193865873633,0.9460593575952316
1539131197437314,2.655069810025225,4.791332875562603,2.7771419851987957
1539131197453296,1.1291676203554744,4.180971999694748,3.0823224231326094
1539131197469279,-2.227817196917613,2.7161058976118966,2.04470893415737
1539131197485262,-2.288853284504512,0.8239871824216607,0.5798428320745188
1539131197501244,-0.2746623941404778,-0.2746623941404778,-0.6408789196611906
1539131197517227,-3.2043945983061803,-1.0681315327688026,-1.6784924086366573
1539131197533209,-9.55214770733187,-0.03051804379333589,-1.5564202334630863
1539131197549192,-13.76363775082018,1.9226367589837992,-0.5798428320745188
1539131197565175,-15.594720378423744,2.7771419851987957,-0.3967345693140487
1539131197581115,-14.435034714274707,1.983672846570471,-0.7019150072480898
1539131197597098,-8.697642481116873,1.2512397955290453,-0.6408789196611906
1539131197613081,-0.7629510948347615,1.0070954451819034,-0.09155413138023505
1539131197629063,5.157549401083315,0.9460593575952316,0.213626306553806
1539131197645046,6.927595941100208,1.1902037079423735,0.09155413138023505
1539131197661028,5.3406576638437855,1.0070954451819034,-0.03051804379333589
1539131197677011,1.1902037079423735,1.0681315327688026,0.09155413138023505
1539131197692994,-3.0823224231326094,1.0681315327688026,-0.03051804379333589
1539131197708976,-6.378271152819025,0.7019150072480898,-0.09155413138023505
1539131197724959,-8.026245517662346,0.213626306553806,-0.213626306553806
1539131197740942,-8.392462043183059,-0.33569848172737693,-0.5188067444876197
1539131197756924,-7.232776379034021,-1.0070954451819034,-0.7629510948347615
1539131197772907,-5.096513313496644,-1.6174563210497581,-0.8850232700083325
1539131197788890,-2.8381780727854675,-2.288853284504512,-0.5188067444876197
1539131197804872,-3.3264667734797513,-2.288853284504512,-0.15259021896690683
1539131197820855,-6.500343327992596,-1.983672846570471,-0.213626306553806
1539131197836837,-9.918364232852582,-1.5564202334630863,-0.33569848172737693
1539131197852820,-11.749446860456146,-0.8239871824216607,-0.2746623941404778
1539131197868803,-12.054627298390187,0.09155413138023505,-0.15259021896690683
1539131197884785,-10.833905546654478,0.5188067444876197,-0.213626306553806
1539131197900756,-8.45349813076973,0.5798428320745188,0.03051804379333589
1539131197916739,-5.95101853971164,0.213626306553806,0.09155413138023505
1539131197932722,-3.1433585107195086,-0.2746623941404778,0.3967345693140487
1539131197948704,-1.0070954451819034,0.09155413138023505,0.6408789196611906
1539131197964687,-0.3967345693140487,0.7629510948347615,0.3967345693140487
1539131197980670,-1.1902037079423735,1.6784924086366573,0.213626306553806
1539131197996652,-2.4719615472647547,2.7161058976118966,-0.09155413138023505
1539131198012635,-3.2654306858930795,3.4485389486533222,-0.213626306553806
1539131198028617,-2.7771419851987957,3.5095750362402214,-0.09155413138023505
1539131198044600,-2.288853284504512,3.5095750362402214,0.03051804379333589
1539131198060583,-1.983672846570471,3.570611123826893,0.33569848172737693
1539131198076565,-2.4719615472647547,3.692683299000464,0.5798428320745188
1539131198092548,-3.875791561760934,3.1433585107195086,0.33569848172737693
1539131198108531,-5.401693751430457,2.105745021744042,-0.213626306553806
1539131198124513,-5.76791027695117,1.0070954451819034,-0.7629510948347615
1539131198140496,-3.875791561760934,0.5188067444876197,-1.1902037079423735
1539131198156479,0.33569848172737693,0.7019150072480898,-0.8239871824216607
1539131198172461,3.3875028610666504,1.8005645838102282,-0.2746623941404778
1539131198188444,2.8992141603723667,3.1433585107195086,0.3967345693140487
1539131198204426,0.03051804379333589,4.364080262455218,0.8850232700083325
1539131198220367,-2.5940337224383256,5.462729839017356,1.1902037079423735
1539131198236349,-3.570611123826893,5.706874189364498,1.1902037079423735
1539131198252331,-3.0823224231326094,5.462729839017356,1.0070954451819034
1539131198268314,-2.655069810025225,4.791332875562603,0.7019150072480898
1539131198284296,-1.739528496223329,3.997863736934505,0.3967345693140487
1539131198300278,-1.4343480582895154,3.0823224231326094,0.09155413138023505
1539131198316260,-1.3733119707026162,2.288853284504512,-0.3967345693140487
1539131198332242,-0.5798428320745188,1.6174563210497581,-1.1291676203554744
1539131198348224,1.3122758831159445,1.0681315327688026,-1.6784924086366573
1539131198364206,2.166781109330941,0.8850232700083325,-1.4953841458761872
1539131198380189,-0.213626306553806,1.3122758831159445,-1.1902037079423735
1539131198396171,-3.7537193865873633,2.3498893720911838,-0.9460593575952316
1539131198412153,-4.547188525215461,3.570611123826893,-0.15259021896690683
1539131198428135,-1.6174563210497581,4.669260700389032,1.2512397955290453
1539131198444117,0.8239871824216607,5.3406576638437855,1.8616006713969
1539131198460099,2.410925459678083,5.462729839017356,1.6174563210497581
1539131198476081,4.669260700389032,4.547188525215461,1.2512397955290453
1539131198492064,8.51453421835663,2.5940337224383256,0.9460593575952316
1539131198508046,13.45845731288614,0.5188067444876197,1.5564202334630863
1539131198524028,15.960936903944457,-1.2512397955290453,2.166781109330941
1539131198539978,13.885709925993751,-1.9226367589837992,2.4719615472647547
1539131198555960,7.965209430075447,-1.4953841458761872,2.166781109330941
1539131198571942,-0.5188067444876197,-0.7019150072480898,1.5564202334630863
1539131198587924,-7.049668116273779,0.5798428320745188,1.2512397955290453
1539131198603906,-9.246967269398056,1.3122758831159445,1.2512397955290453
1539131198619888,-6.439307240405924,2.105745021744042,1.3733119707026162
1539131198635871,-2.166781109330941,2.5940337224383256,1.4343480582895154
1539131198651853,0.7019150072480898,1.9226367589837992,1.5564202334630863
1539131198667835,1.1291676203554744,0.7019150072480898,1.1902037079423735
1539131198683817,0.5188067444876197,-0.3967345693140487,0.7629510948347615
1539131198699799,-0.09155413138023505,-1.2512397955290453,0.45777065690094787
1539131198715781,-1.6174563210497581,-1.6174563210497581,-0.15259021896690683
1539131198731763,-3.997863736934505,-1.739528496223329,-1.0070954451819034
1539131198747746,-5.76791027695117,-1.1902037079423735,-1.4343480582895154
1539131198763728,-6.195162890058782,-0.2746623941404778,-1.6784924086366573
1539131198779710,-5.523765926604028,0.5798428320745188,-2.105745021744042
1539131198795692,-2.8992141603723667,1.3122758831159445,-2.105745021744042
1539131198811674,-0.2746623941404778,1.5564202334630863,-1.8616006713969
1539131198827656,-0.15259021896690683,1.5564202334630863,-1.6174563210497581
1539131198843639,-2.7771419851987957,1.1902037079423735,-1.3122758831159445
1539131198859588,-7.2938124666209205,0.8850232700083325,-1.0070954451819034
1539131198875570,-11.505302510109004,0.5188067444876197,-0.3967345693140487
1539131198891553,-14.557106889448278,0.03051804379333589,0.3967345693140487
1539131198907535,-15.899900816357558,-0.7019150072480898,1.4343480582895154
1539131198923517,-15.655756466010416,-1.6784924086366573,2.5940337224383256
1539131198939499,-15.10643167772946,-2.105745021744042,3.5095750362402214
1539131198955481,-15.10643167772946,-1.8616006713969,3.3264667734797513
1539131198971463,-15.10643167772946,-1.6174563210497581,2.410925459678083
1539131198987445,-12.787060349431613,-1.6784924086366573,1.739528496223329
1539131199003428,-7.843137254901876,-1.8005645838102282,1.739528496223329
1539131199019410,-3.1433585107195086,-2.166781109330941,1.6174563210497581
1539131199035392,-1.6174563210497581,-2.04470893415737,0.5798428320745188
1539131199051374,-1.4343480582895154,-1.983672846570471,-0.3967345693140487
1539131199067356,-0.8239871824216607,-2.04470893415737,-0.8850232700083325
1539131199083338,-0.6408789196611906,-2.166781109330941,-1.1291676203554744
1539131199099321,-1.1902037079423735,-2.410925459678083,-1.4953841458761872
1539131199115303,-1.983672846570471,-2.7771419851987957,-1.983672846570471
1539131199131285,-1.4953841458761872,-3.0212863355459376,-2.04470893415737
1539131199147267,0.2746623941404778,-3.0823224231326094,-1.6784924086366573
1539131199163249,2.7161058976118966,-3.2043945983061803,-0.8239871824216607
1539131199179199,3.570611123826893,-2.9602502479590385,-0.213626306553806
1539131199195181,2.7161058976118966,-2.4719615472647547,-0.2746623941404778
1539131199211163,0.9460593575952316,-1.6784924086366573,-0.7019150072480898
1539131199227145,-1.6784924086366573,-1.0681315327688026,-0.8239871824216607
1539131199243127,-4.180971999694748,-0.6408789196611906,-0.8239871824216607
1539131199259110,-5.401693751430457,-0.213626306553806,-0.3967345693140487
1539131199275092,-5.3406576638437855,0.15259021896690683,0.03051804379333589
1539131199291074,-4.242008087281647,0.5188067444876197,0.5188067444876197
1539131199307056,-3.2654306858930795,0.9460593575952316,1.0070954451819034
1539131199323038,-4.547188525215461,1.6784924086366573,1.6784924086366573
1539131199339020,-9.369039444571627,2.532997634851654,2.166781109330941
1539131199355003,-18.95170519569683,3.692683299000464,2.288853284504512
1539131199370985,-28.290226596475122,4.974441138323073,2.8992141603723667
1539131199386967,-30.36545357442583,5.462729839017356,3.997863736934505
1539131199402949,-25.17738612954895,5.279621576256886,4.242008087281647
1539131199418931,-15.533684290836845,4.9134050507361735,3.7537193865873633
1539131199434913,-5.95101853971164,4.9134050507361735,3.0212863355459376
1539131199450895,-0.5798428320745188,5.0354772259097444,2.227817196917613
1539131199466878,-1.1291676203554744,5.0354772259097444,1.0070954451819034
1539131199482860,-3.0823224231326094,5.0354772259097444,-0.33569848172737693
1539131199498809,-1.739528496223329,4.669260700389032,-1.4953841458761872
1539131199514791,2.288853284504512,4.364080262455218,-2.166781109330941
1539131199530773,5.706874189364498,4.058899824521177,-2.532997634851654
1539131199546754,7.11070420386045,3.3875028610666504,-2.655069810025225
1539131199562736,6.561379415579495,2.532997634851654,-2.5940337224383256
1539131199578718,4.974441138323073,1.8616006713969,-2.7161058976118966
1539131199594699,3.1433585107195086,1.8005645838102282,-2.9602502479590385
1539131199610681,1.8616006713969,1.8616006713969,-3.1433585107195086
1539131199626663,1.739528496223329,1.8005645838102282,-2.8992141603723667
1539131199642645,1.739528496223329,1.6174563210497581,-2.4719615472647547
1539131199658626,1.6174563210497581,1.4953841458761872,-2.105745021744042
1539131199674608,1.4343480582895154,1.5564202334630863,-2.04470893415737
1539131199690590,1.5564202334630863,1.1902037079423735,-2.105745021744042
1539131199706571,1.8616006713969,0.6408789196611906,-2.04470893415737
1539131199722553,2.7771419851987957,0.33569848172737693,-1.739528496223329
1539131199738535,3.0212863355459376,0.03051804379333589,-1.6784924086366573
1539131199754516,2.105745021744042,-0.213626306553806,-1.983672846570471
1539131199770498,1.2512397955290453,-0.3967345693140487,-2.105745021744042
1539131199786480,1.0681315327688026,-0.3967345693140487,-2.227817196917613
1539131199802461,0.33569848172737693,-0.09155413138023505,-2.166781109330941
1539131199818420,-0.5188067444876197,0.2746623941404778,-2.227817196917613
1539131199834402,0.33569848172737693,0.03051804379333589,-1.983672846570471
1539131199850383,2.105745021744042,-0.15259021896690683,-1.4343480582895154
1539131199866365,2.7771419851987957,-0.15259021896690683,-1.0681315327688026
1539131199882347,1.4343480582895154,0.03051804379333589,-0.8239871824216607
1539131199898328,-1.3122758831159445,0.213626306553806,-0.7629510948347615
1539131199914310,-3.3264667734797513,0.2746623941404778,-0.5798428320745188
1539131199930292,-4.119935912108076,0.33569848172737693,-0.33569848172737693
1539131199946273,-4.42511635004189,0.5188067444876197,-0.45777065690094787
1539131199962255,-4.60822461280236,0.6408789196611906,-0.6408789196611906
1539131199978237,-4.669260700389032,0.8850232700083325,-0.8239871824216607
1539131199994218,-4.974441138323073,1.1291676203554744,-1.3122758831159445
1539131200010200,-6.134126802471883,1.2512397955290453,-1.8005645838102282
1539131200026182,-8.575570305943302,1.0681315327688026,-2.7771419851987957
1539131200042163,-10.162508583199724,0.7019150072480898,-3.814755474174035
1539131200058145,-9.796292057679011,0.3967345693140487,-3.875791561760934
1539131200074127,-11.07804989700162,-0.2746623941404778,-3.936827649347606
1539131200090108,-15.10643167772946,-1.0070954451819034,-3.997863736934505
1539131200106090,-19.1348134584573,-1.983672846570471,-4.364080262455218
1539131200122072,-18.158236057068734,-3.0212863355459376,-4.974441138323073
1539131200138031,-9.55214770733187,-3.692683299000464,-5.2185854886702145
1539131200154012,3.997863736934505,-3.692683299000464,-4.547188525215461
1539131200169994,16.02197299153113,-3.0823224231326094,-3.570611123826893
1539131200185976,20.782787823300396,-2.288853284504512,-3.0823224231326094
1539131200201957,18.036163881895163,-1.4953841458761872,-3.0212863355459376
1539131200217939,11.01701380941472,-0.7019150072480898,-3.0823224231326094
1539131200233921,5.462729839017356,-0.213626306553806,-3.0212863355459376
1539131200249902,3.1433585107195086,0.15259021896690683,-2.410925459678083
1539131200265884,3.3875028610666504,0.03051804379333589,-1.739528496223329
1539131200281866,4.119935912108076,-0.33569848172737693,-1.3733119707026162
1539131200297847,5.096513313496644,-0.7019150072480898,-1.1902037079423735
1539131200313829,6.439307240405924,-0.8850232700083325,-0.7629510948347615
1539131200329811,8.209353780422589,-1.3122758831159445,-0.2746623941404778
1539131200345792,11.139085984588291,-2.04470893415737,0.213626306553806
1539131200361774,14.373998626688035,-2.410925459678083,0.5188067444876197
1539131200377756,15.777828641183987,-2.166781109330941,0.5188067444876197
1539131200393737,12.603952086671143,-1.0681315327688026,0.213626306553806
1539131200409719,5.0354772259097444,0.33569848172737693,-0.45777065690094787
1539131200425701,-2.3498893720911838,1.0681315327688026,-1.3122758831159445
1539131200441682,-5.2185854886702145,1.6784924086366573,-1.6174563210497581
1539131200457641,-2.9602502479590385,2.227817196917613,-1.2512397955290453
1539131200473623,1.3122758831159445,2.4719615472647547,-1.1291676203554744
1539131200489605,3.3875028610666504,2.410925459678083,-1.1291676203554744
1539131200505586,1.739528496223329,2.227817196917613,-1.3122758831159445
1539131200521568,-1.3122758831159445,1.9226367589837992,-1.6174563210497581
1539131200537550,-2.532997634851654,1.6174563210497581,-2.04470893415737
1539131200553531,-1.0070954451819034,2.04470893415737,-2.04470893415737
1539131200569513,1.983672846570471,2.532997634851654,-1.6174563210497581
1539131200585495,3.5095750362402214,3.2043945983061803,-1.1291676203554744
1539131200601476,1.8005645838102282,4.180971999694748,-0.7629510948347615
1539131200617458,-1.0681315327688026,4.42511635004189,-1.0681315327688026
1539131200633440,-3.0823224231326094,4.791332875562603,-0.8850232700083325
1539131200649421,-3.0212863355459376,5.2185854886702145,-0.45777065690094787
1539131200665403,-1.3733119707026162,4.9134050507361735,-0.2746623941404778
1539131200681385,0.3967345693140487,5.0354772259097444,0.213626306553806
1539131200697366,-0.09155413138023505,5.401693751430457,0.8239871824216607
1539131200713348,-2.532997634851654,5.462729839017356,1.0070954451819034
1539131200729330,-5.096513313496644,4.974441138323073,0.8850232700083325
1539131200745311,-5.76791027695117,4.9134050507361735,1.0681315327688026
1539131200761293,-4.852368963149502,4.791332875562603,1.0681315327688026
1539131200777252,-3.0823224231326094,4.486152437628789,0.8850232700083325
1539131200793233,-1.4343480582895154,4.180971999694748,1.0070954451819034
1539131200809215,-0.8239871824216607,3.936827649347606,1.4343480582895154
1539131200825197,-1.9226367589837992,3.7537193865873633,1.3733119707026162
1539131200841179,-4.180971999694748,3.6316472114137923,0.8239871824216607
1539131200857160,-4.791332875562603,3.3875028610666504,0.2746623941404778
1539131200873142,-3.0823224231326094,3.1433585107195086,0.15259021896690683
1539131200889124,-0.5188067444876197,2.8381780727854675,0.03051804379333589
1539131200905105,2.3498893720911838,2.5940337224383256,-0.09155413138023505
1539131200921087,4.486152437628789,2.288853284504512,0.15259021896690683
1539131200937069,4.364080262455218,2.04470893415737,0.213626306553806
1539131200953050,1.8616006713969,1.9226367589837992,-0.15259021896690683
1539131200969032,-0.5798428320745188,1.8005645838102282,-0.45777065690094787
1539131200985014,-1.1902037079423735,1.5564202334630863,-0.6408789196611906
1539131201000995,-0.2746623941404778,0.8850232700083325,-0.6408789196611906
1539131201016977,-0.03051804379333589,-0.15259021896690683,-0.45777065690094787
1539131201032959,-1.8005645838102282,-1.3122758831159445,-0.03051804379333589
1539131201048940,-5.523765926604028,-2.288853284504512,0.6408789196611906
1539131201064922,-8.941786831464015,-2.532997634851654,1.2512397955290453
1539131201080904,-10.223544670786623,-2.04470893415737,1.8616006713969
1539131201096862,-9.73525597009234,-1.0070954451819034,2.3498893720911838
1539131201112844,-8.209353780422589,0.2746623941404778,2.410925459678083
1539131201128825,-5.95101853971164,1.4343480582895154,2.4719615472647547
1539131201144806,-3.3264667734797513,2.166781109330941,2.288853284504512
1539131201160787,-0.6408789196611906,2.532997634851654,1.6784924086366573
1539131201176768,1.9226367589837992,2.8381780727854675,1.1291676203554744
1539131201192750,3.1433585107195086,2.655069810025225,0.2746623941404778
1539131201208731,2.9602502479590385,2.655069810025225,-0.6408789196611906
1539131201224712,2.9602502479590385,2.5940337224383256,-1.3733119707026162
1539131201240693,3.3264667734797513,2.532997634851654,-1.6784924086366573
1539131201256674,3.692683299000464,2.410925459678083,-1.9226367589837992
1539131201272656,4.791332875562603,1.983672846570471,-1.739528496223329
1539131201288637,6.195162890058782,1.4343480582895154,-1.3122758831159445
1539131201304618,6.561379415579495,0.7019150072480898,-1.2512397955290453
1539131201320599,5.889982452124741,-0.15259021896690683,-1.4343480582895154
1539131201336580,4.9134050507361735,-0.8239871824216607,-1.4343480582895154
1539131201352562,3.814755474174035,-1.4953841458761872,-1.4953841458761872
1539131201368543,2.4719615472647547,-2.227817196917613,-1.5564202334630863
1539131201384524,1.2512397955290453,-2.410925459678083,-1.3122758831159445
1539131201400505,0.5188067444876197,-2.166781109330941,-1.0070954451819034
1539131201416504,0.3967345693140487,-1.739528496223329,-1.0070954451819034
1539131201432485,0.45777065690094787,-1.1902037079423735,-1.2512397955290453
1539131201448466,0.9460593575952316,-0.6408789196611906,-1.3733119707026162
1539131201464447,1.6784924086366573,-0.2746623941404778,-1.3122758831159445
1539131201480428,2.288853284504512,-0.09155413138023505,-1.1902037079423735
1539131201496410,2.9602502479590385,0.03051804379333589,-0.9460593575952316
1539131201512391,3.936827649347606,0.09155413138023505,-0.8239871824216607
1539131201528372,4.669260700389032,0.09155413138023505,-0.5798428320745188
1539131201544353,4.058899824521177,0.2746623941404778,-0.3967345693140487
1539131201560334,2.5940337224383256,0.6408789196611906,-0.213626306553806
1539131201576316,1.1902037079423735,0.8239871824216607,-0.213626306553806
1539131201592297,1.0681315327688026,0.8850232700083325,0.09155413138023505
1539131201608278,1.0681315327688026,0.8850232700083325,0.3967345693140487
1539131201624259,0.7629510948347615,0.8239871824216607,0.09155413138023505
1539131201640240,0.7019150072480898,0.7629510948347615,-0.33569848172737693
1539131201656221,1.1291676203554744,0.8850232700083325,-0.6408789196611906
1539131201672203,2.288853284504512,1.1291676203554744,-0.7629510948347615
1539131201688184,2.3498893720911838,1.2512397955290453,-1.0681315327688026
1539131201704165,2.166781109330941,1.3122758831159445,-1.4343480582895154
1539131201720146,2.655069810025225,1.6174563210497581,-1.6174563210497581
1539131201736114,2.7771419851987957,1.9226367589837992,-1.4953841458761872
1539131201752095,2.5940337224383256,1.6784924086366573,-1.1902037079423735
1539131201768077,2.410925459678083,1.5564202334630863,-0.8850232700083325
1539131201784058,2.8381780727854675,1.4343480582895154,-0.7019150072480898
1539131201800039,3.4485389486533222,1.3122758831159445,-0.2746623941404778
1539131201816020,3.570611123826893,1.1902037079423735,0.15259021896690683
1539131201832001,2.227817196917613,1.3733119707026162,0.2746623941404778
1539131201847983,0.15259021896690683,1.5564202334630863,0.03051804379333589
1539131201863964,-0.3967345693140487,1.6174563210497581,0.03051804379333589
1539131201879945,1.2512397955290453,1.4343480582895154,0.5798428320745188
1539131201895926,2.7771419851987957,1.1902037079423735,1.3733119707026162
1539131201911907,0.5798428320745188,1.2512397955290453,1.8616006713969
1539131201927888,-3.570611123826893,1.4343480582895154,1.8616006713969
1539131201943870,-6.073090714885211,1.5564202334630863,1.9226367589837992
1539131201959851,-5.76791027695117,1.6784924086366573,1.983672846570471
1539131201975832,-3.692683299000464,1.9226367589837992,1.8005645838102282
1539131201991813,-1.0070954451819034,2.166781109330941,1.3733119707026162
1539131202007794,1.1902037079423735,2.105745021744042,1.1291676203554744
1539131202023776,2.7771419851987957,1.9226367589837992,1.0070954451819034
1539131202039757,3.570611123826893,1.6784924086366573,0.8239871824216607
1539131202055725,3.0212863355459376,1.3733119707026162,0.33569848172737693
1539131202071706,2.105745021744042,1.3733119707026162,-0.09155413138023505
1539131202087687,1.8616006713969,1.3122758831159445,-0.5188067444876197
1539131202103668,2.7771419851987957,1.1291676203554744,-0.6408789196611906
1539131202119650,4.242008087281647,0.9460593575952316,-0.7629510948347615
1539131202135631,4.852368963149502,0.8239871824216607,-0.8239871824216607
1539131202151612,3.7537193865873633,1.0681315327688026,-0.9460593575952316
1539131202167593,1.9226367589837992,1.1902037079423735,-1.1291676203554744
1539131202183574,1.2512397955290453,1.3122758831159445,-1.1902037079423735
1539131202199555,2.288853284504512,1.1902037079423735,-1.1291676203554744
1539131202215537,3.570611123826893,1.0681315327688026,-1.0070954451819034
1539131202231518,3.0823224231326094,1.0070954451819034,-0.8850232700083325
1539131202247499,0.8850232700083325,1.4343480582895154,-0.8850232700083325
1539131202263480,-1.2512397955290453,1.739528496223329,-1.3733119707026162
1539131202279461,-1.2512397955290453,1.4343480582895154,-1.6784924086366573
1539131202295443,0.7019150072480898,0.8850232700083325,-1.739528496223329
1539131202311424,2.655069810025225,0.2746623941404778,-1.4343480582895154
1539131202327405,3.6316472114137923,-0.3967345693140487,-1.0681315327688026
1539131202343386,3.2043945983061803,-0.7019150072480898,-0.7019150072480898
1539131202359367,2.105745021744042,-0.5798428320745188,-0.15259021896690683
1539131202375366,0.7019150072480898,-0.09155413138023505,0.2746623941404778
1539131202391347,-0.213626306553806,0.5188067444876197,0.8850232700083325
1539131202407328,-0.45777065690094787,0.8239871824216607,1.1902037079423735
1539131202423309,-1.1902037079423735,1.4343480582895154,1.1902037079423735
1539131202439291,-1.983672846570471,2.227817196917613,1.1291676203554744
1539131202455272,-1.0681315327688026,2.4719615472647547,1.3122758831159445
1539131202471253,0.8850232700083325,2.3498893720911838,1.3122758831159445
1539131202487234,3.570611123826893,2.532997634851654,1.6784924086366573
1539131202503215,4.058899824521177,2.655069810025225,1.9226367589837992
1539131202519197,1.0681315327688026,2.410925459678083,1.8616006713969
1539131202535178,-4.364080262455218,2.532997634851654,1.5564202334630863
1539131202551159,-7.354848554207592,2.3498893720911838,1.1902037079423735
1539131202567140,-5.95101853971164,2.166781109330941,1.4953841458761872
1539131202583121,-2.7161058976118966,1.9226367589837992,1.6784924086366573
1539131202599103,-1.1902037079423735,1.983672846570471,1.3733119707026162
1539131202615084,-1.4343480582895154,1.8005645838102282,0.6408789196611906
1539131202631065,-1.9226367589837992,1.5564202334630863,-0.09155413138023505
1539131202647046,-1.4343480582895154,1.4343480582895154,-0.5188067444876197
1539131202663027,1.1902037079423735,1.1902037079423735,-0.5188067444876197
1539131202679009,3.692683299000464,0.9460593575952316,-0.3967345693140487
1539131202694976,3.875791561760934,0.7629510948347615,-0.6408789196611906
1539131202710958,2.7161058976118966,0.5188067444876197,-0.8239871824216607
1539131202726939,1.983672846570471,0.03051804379333589,-0.9460593575952316
1539131202742920,2.655069810025225,-0.5188067444876197,-0.8239871824216607
1539131202758901,4.42511635004189,-0.8850232700083325,-0.3967345693140487
1539131202774882,6.256198977645454,-1.3733119707026162,-0.15259021896690683
1539131202790864,5.401693751430457,-1.6174563210497581,-0.03051804379333589
1539131202806845,2.166781109330941,-1.5564202334630863,-0.2746623941404778
1539131202822826,-0.8850232700083325,-1.4953841458761872,-0.3967345693140487
1539131202838807,-1.5564202334630863,-1.3733119707026162,-0.33569848172737693
1539131202854788,-0.2746623941404778,-1.2512397955290453,0.03051804379333589
1539131202870770,1.2512397955290453,-1.0070954451819034,0.5188067444876197
1539131202886751,1.1902037079423735,-0.7019150072480898,0.7019150072480898
1539131202902732,-0.03051804379333589,-0.45777065690094787,0.7629510948347615
1539131202918713,-1.1902037079423735,-0.33569848172737693,0.8850232700083325
1539131202934694,-1.739528496223329,-0.09155413138023505,1.1291676203554744
1539131202950676,-2.532997634851654,-0.09155413138023505,1.3733119707026162
1539131202966657,-3.570611123826893,0.15259021896690683,1.6784924086366573
1539131202982638,-3.875791561760934,0.45777065690094787,1.739528496223329
1539131202998619,-3.570611123826893,0.8850232700083325,1.4953841458761872
1539131203014587,-2.410925459678083,1.2512397955290453,1.0681315327688026
1539131203030568,-0.213626306553806,1.3733119707026162,0.9460593575952316
1539131203046549,1.9226367589837992,1.1902037079423735,1.1902037079423735
1539131203062531,2.3498893720911838,1.0070954451819034,1.4343480582895154
1539131203078512,0.7019150072480898,0.8850232700083325,1.5564202334630863
1539131203094493,-1.739528496223329,0.7629510948347615,1.6784924086366573
1539131203110474,-3.692683299000464,0.5798428320745188,1.739528496223329
1539131203126455,-4.119935912108076,0.5188067444876197,1.6174563210497581
1539131203142437,-3.2654306858930795,0.45777065690094787,1.5564202334630863
1539131203158418,-2.04470893415737,0.6408789196611906,1.6174563210497581
1539131203174399,-1.1291676203554744,1.1291676203554744,1.8616006713969
1539131203190380,-1.0681315327688026,1.4953841458761872,1.983672846570471
1539131203206361,-2.3498893720911838,1.8005645838102282,1.8005645838102282
1539131203222343,-3.814755474174035,1.8616006713969,1.1902037079423735
1539131203238324,-3.4485389486533222,1.6174563210497581,0.7019150072480898
1539131203254305,-1.0070954451819034,1.4343480582895154,0.8239871824216607
1539131203270286,1.4953841458761872,1.3733119707026162,1.0681315327688026
1539131203286267,2.3498893720911838,1.4343480582895154,1.2512397955290453
1539131203302249,0.8850232700083325,1.5564202334630863,1.0681315327688026
1539131203318230,-1.5564202334630863,1.739528496223329,0.7629510948347615
1539131203334167,-2.105745021744042,1.8005645838102282,0.8850232700083325
1539131203350148,-0.9460593575952316,1.6784924086366573,1.3733119707026162
1539131203366130,-0.5188067444876197,1.5564202334630863,1.739528496223329
1539131203382111,-1.4953841458761872,1.5564202334630863,1.8005645838102282
1539131203398092,-3.0823224231326094,1.6174563210497581,1.6174563210497581
1539131203414073,-3.997863736934505,1.739528496223329,1.4343480582895154
1539131203430054,-3.7537193865873633,1.739528496223329,1.3733119707026162
1539131203446035,-2.410925459678083,1.5564202334630863,1.4953841458761872
1539131203462017,-1.1291676203554744,1.3122758831159445,1.739528496223329
1539131203477998,-1.4343480582895154,1.2512397955290453,1.5564202334630863
1539131203493979,-2.166781109330941,1.3733119707026162,1.0681315327688026
1539131203509960,-1.8005645838102282,1.2512397955290453,0.9460593575952316
1539131203525941,-0.33569848172737693,1.1291676203554744,1.0681315327688026
1539131203541923,0.5188067444876197,1.0681315327688026,0.7629510948347615
1539131203557904,0.5188067444876197,1.1902037079423735,0.45777065690094787
1539131203573885,-0.09155413138023505,1.3733119707026162,0.33569848172737693
1539131203589866,-0.7629510948347615,1.4343480582895154,0.15259021896690683
1539131203605847,-0.8850232700083325,1.2512397955290453,-0.09155413138023505
1539131203621829,-0.15259021896690683,1.1291676203554744,-0.2746623941404778
1539131203637810,1.1291676203554744,1.0070954451819034,-0.5188067444876197
1539131203653778,2.410925459678083,1.0070954451819034,-0.6408789196611906
1539131203669758,2.9602502479590385,1.0681315327688026,-0.7629510948347615
1539131203685739,3.2043945983061803,0.8239871824216607,-0.7019150072480898
1539131203701720,3.3264667734797513,0.5798428320745188,-0.45777065690094787
1539131203717701,3.2654306858930795,0.5798428320745188,-0.213626306553806
1539131203733681,2.8381780727854675,0.45777065690094787,0.03051804379333589
1539131203749662,1.3733119707026162,0.2746623941404778,-0.15259021896690683
1539131203765643,0.03051804379333589,0.15259021896690683,-0.3967345693140487
1539131203781623,-0.09155413138023505,0.15259021896690683,-0.5798428320745188
1539131203797604,1.1291676203554744,0.15259021896690683,-0.7629510948347615
1539131203813585,2.227817196917613,0.213626306553806,-0.9460593575952316
1539131203829566,2.3498893720911838,0.5188067444876197,-1.0070954451819034
1539131203845546,2.288853284504512,0.8239871824216607,-0.8239871824216607
1539131203861527,2.5940337224383256,0.7629510948347615,-0.7019150072480898
1539131203877508,2.5940337224383256,0.7629510948347615,-0.7629510948347615
1539131203893489,2.227817196917613,0.8239871824216607,-0.7019150072480898
1539131203909469,1.983672846570471,0.8239871824216607,-0.7019150072480898
1539131203925450,1.3733119707026162,0.8850232700083325,-0.7629510948347615
1539131203941431,0.7629510948347615,1.0681315327688026,-0.7019150072480898
1539131203957411,0.7019150072480898,0.8239871824216607,-0.7019150072480898
1539131203973388,1.2512397955290453,0.7019150072480898,-0.5798428320745188
1539131203989369,1.739528496223329,0.5188067444876197,-0.6408789196611906
1539131204005350,1.6174563210497581,0.45777065690094787,-0.9460593575952316
1539131204021330,0.8850232700083325,0.33569848172737693,-1.0681315327688026
1539131204037311,-0.5188067444876197,0.03051804379333589,-1.1902037079423735
1539131204053292,-1.1291676203554744,-0.213626306553806,-1.1291676203554744
1539131204069273,-0.5798428320745188,-0.45777065690094787,-0.9460593575952316
1539131204085253,0.3967345693140487,-0.5798428320745188,-1.0070954451819034
1539131204101234,0.7629510948347615,-0.45777065690094787,-1.1291676203554744
1539131204117215,0.7019150072480898,-0.3967345693140487,-1.1902037079423735
1539131204133196,0.5188067444876197,-0.3967345693140487,-1.1902037079423735
1539131204149176,0.45777065690094787,-0.45777065690094787,-1.1291676203554744
1539131204165157,0.7629510948347615,-0.5798428320745188,-1.2512397955290453
1539131204181138,1.3733119707026162,-0.6408789196611906,-1.3122758831159445
1539131204197118,2.105745021744042,-0.3967345693140487,-1.3733119707026162
1539131204213099,3.0823224231326094,-0.33569848172737693,-1.739528496223329
1539131204229080,3.875791561760934,-0.03051804379333589,-1.983672846570471
1539131204245061,4.669260700389032,0.09155413138023505,-2.04470893415737
1539131204261041,5.279621576256886,0.15259021896690683,-1.8616006713969
1539131204277022,5.0354772259097444,0.6408789196611906,-1.4343480582895154
1539131204292999,3.814755474174035,0.6408789196611906,-1.2512397955290453
1539131204308980,1.983672846570471,0.45777065690094787,-1.1902037079423735
1539131204324960,0.45777065690094787,0.45777065690094787,-1.0070954451819034
1539131204340941,0.2746623941404778,0.33569848172737693,-0.5188067444876197
1539131204356922,1.0070954451819034,0.15259021896690683,0.09155413138023505
1539131204372902,0.8850232700083325,0.33569848172737693,0.5798428320745188
1539131204388883,-0.7629510948347615,0.8850232700083325,0.6408789196611906
1539131204404864,-2.4719615472647547,1.4953841458761872,0.5188067444876197
1539131204420845,-2.410925459678083,1.8005645838102282,0.8239871824216607
1539131204436825,-1.4343480582895154,1.739528496223329,1.3733119707026162
1539131204452806,-1.3733119707026162,1.8005645838102282,1.6174563210497581
1539131204468787,-1.983672846570471,1.983672846570471,1.5564202334630863
1539131204484768,-2.4719615472647547,2.105745021744042,1.3733119707026162
1539131204500748,-3.0823224231326094,2.166781109330941,0.9460593575952316
1539131204516729,-3.2043945983061803,2.04470893415737,0.6408789196611906
1539131204532710,-2.532997634851654,1.983672846570471,0.3967345693140487
1539131204548690,-1.3122758831159445,1.8616006713969,0.09155413138023505
1539131204564671,0.03051804379333589,1.6784924086366573,-0.09155413138023505
1539131204580652,0.7019150072480898,1.6174563210497581,-0.3967345693140487
1539131204596633,0.6408789196611906,1.6784924086366573,-0.7019150072480898
1539131204612640,0.6408789196611906,1.6784924086366573,-0.9460593575952316
1539131204628621,0.8850232700083325,1.3733119707026162,-0.9460593575952316
1539131204644601,1.5564202334630863,1.0681315327688026,-0.5188067444876197
1539131204660582,0.8239871824216607,0.8850232700083325,-0.2746623941404778
1539131204676563,-0.7629510948347615,0.7019150072480898,-0.3967345693140487
1539131204692544,-1.0681315327688026,0.45777065690094787,-0.3967345693140487
1539131204708524,0.03051804379333589,0.33569848172737693,-0.213626306553806
1539131204724505,1.1291676203554744,0.2746623941404778,-0.213626306553806
1539131204740486,1.4343480582895154,0.2746623941404778,-0.09155413138023505
1539131204756466,0.7629510948347615,0.5798428320745188,0.09155413138023505
1539131204772447,-0.5798428320745188,0.45777065690094787,-0.09155413138023505
1539131204788428,-1.0070954451819034,0.6408789196611906,0.03051804379333589
1539131204804409,-0.5188067444876197,0.8239871824216607,0.09155413138023505
1539131204820389,-0.15259021896690683,1.0070954451819034,-0.15259021896690683
1539131204836370,-0.213626306553806,1.3733119707026162,-0.2746623941404778
1539131204852351,-0.213626306553806,1.3122758831159445,-0.7019150072480898
1539131204868332,0.8850232700083325,1.2512397955290453,-0.7019150072480898
1539131204884312,2.166781109330941,1.3122758831159445,-0.3967345693140487
1539131204900293,2.4719615472647547,1.2512397955290453,-0.2746623941404778
1539131204916274,1.6784924086366573,1.1902037079423735,0.03051804379333589
1539131204932251,-0.09155413138023505,1.0681315327688026,0.33569848172737693
1539131204948231,-1.6174563210497581,0.8850232700083325,0.5188067444876197
1539131204964212,-1.8005645838102282,0.8850232700083325,0.6408789196611906
1539131204980193,-1.0681315327688026,0.7019150072480898,0.5188067444876197
1539131204996173,-0.5188067444876197,0.7019150072480898,0.2746623941404778
1539131205012154,-0.6408789196611906,0.8239871824216607,-0.03051804379333589
1539131205028135,-0.7629510948347615,1.0681315327688026,-0.213626306553806
1539131205044116,-0.09155413138023505,1.1902037079423735,-0.45777065690094787
1539131205060096,1.0070954451819034,1.1902037079423735,-0.6408789196611906
1539131205076077,1.9226367589837992,0.8239871824216607,-0.7019150072480898
1539131205092058,1.739528496223329,0.7019150072480898,-0.7019150072480898
1539131205108039,0.9460593575952316,0.6408789196611906,-0.3967345693140487
1539131205124019,0.33569848172737693,0.5798428320745188,-0.15259021896690683
1539131205140000,0.15259021896690683,0.33569848172737693,-0.09155413138023505
1539131205155981,0.3967345693140487,-0.45777065690094787,-0.6408789196611906
1539131205171961,2.5940337224383256,-1.9226367589837992,-1.983672846570471
1539131205187942,11.871519035629717,-2.166781109330941,-1.6174563210497581
1539131205203923,22.308690012970146,-2.105745021744042,-0.33569848172737693
1539131205219904,20.843823910887295,-1.0070954451819034,0.213626306553806
1539131205235884,9.796292057679011,-0.213626306553806,-1.1291676203554744
1539131205251861,-1.4343480582895154,0.7019150072480898,-1.6174563210497581
1539131205267842,-6.134126802471883,0.8239871824216607,-1.5564202334630863
1539131205283823,-3.936827649347606,0.9460593575952316,-0.7019150072480898
1539131205299803,0.8239871824216607,0.5798428320745188,0.5188067444876197
1539131205315784,2.3498893720911838,0.03051804379333589,1.1902037079423735
1539131205331765,0.3967345693140487,0.15259021896690683,1.0070954451819034
1539131205347746,-0.7629510948347615,0.7629510948347615,0.5188067444876197
1539131205363726,0.8850232700083325,1.0070954451819034,0.5798428320745188
1539131205379707,2.655069810025225,0.7629510948347615,0.8850232700083325
1539131205395688,1.6784924086366573,-0.03051804379333589,0.9460593575952316
1539131205411668,-0.3967345693140487,-1.3733119707026162,0.3967345693140487
1539131205427649,-0.5798428320745188,-2.288853284504512,-0.03051804379333589
1539131205443630,1.1902037079423735,-2.5940337224383256,-0.3967345693140487
1539131205459611,3.1433585107195086,-2.410925459678083,-0.5798428320745188
1539131205475591,4.180971999694748,-2.04470893415737,-0.5798428320745188
1539131205491572,4.242008087281647,-1.983672846570471,-0.5798428320745188
1539131205507553,4.547188525215461,-2.3498893720911838,-0.15259021896690683
1539131205523533,5.157549401083315,-2.7771419851987957,0.5188067444876197
1539131205539514,3.2043945983061803,-2.7161058976118966,0.6408789196611906
1539131205555495,0.33569848172737693,-2.655069810025225,0.8239871824216607
1539131205571472,-1.739528496223329,-2.532997634851654,0.8850232700083325
1539131205587453,-2.9602502479590385,-2.410925459678083,0.5798428320745188
1539131205603433,-2.288853284504512,-2.227817196917613,0.2746623941404778
1539131205619414,0.15259021896690683,-2.3498893720911838,0.2746623941404778
1539131205635395,2.7161058976118966,-2.8992141603723667,-0.03051804379333589
1539131205651375,3.4485389486533222,-3.2043945983061803,-0.6408789196611906
1539131205667356,2.7161058976118966,-3.570611123826893,-1.4953841458761872
1539131205683337,2.04470893415737,-4.242008087281647,-2.410925459678083
1539131205699318,2.9602502479590385,-5.2185854886702145,-3.2043945983061803
1539131205715298,6.683451590753066,-6.561379415579495,-4.180971999694748
1539131205731279,13.824673838406852,-8.392462043183059,-5.3406576638437855
1539131205747260,22.369726100556818,-10.223544670786623,-6.134126802471883
1539131205763240,28.656443121995835,-11.810482948043045,-6.500343327992596
1539131205779221,29.32784008545036,-14.007782101167322,-7.2938124666209205
1539131205795202,33.661402304112244,-15.472648203250174,-9.796292057679011
1539131205811183,48.6152437628748,-11.07804989700162,-11.810482948043045
1539131205827163,43.9154650186922,-3.0212863355459376,-9.430075532158298
1539131205843144,31.280994888227497,11.261158159761862,-1.8616006713969
1539131205859125,21.33211261158158,30.853742275120112,8.45349813076973
1539131205875105,0.3967345693140487,51.11772335393289,19.378957808804444
1539131205891082,-13.76363775082018,69.97787441824994,30.30441748683893
1539131205907063,-18.158236057068734,86.94590676737653,42.20645456626221
1539131205923044,-13.397421225299468,102.51010910200648,54.718852521553345
1539131205939025,9.185931181811156,117.158770122835,64.42359044785235
1539131205955005,35.73662928206295,130.52567330434113,73.09071488517611
1539131205970986,37.44563973449294,140.47455558098727,82.79545281147512
1539131205986967,27.374685282673227,146.39505607690535,89.1432059205008
1539131206002947,21.026932173647538,149.75204089417866,90.42496375982319
1539131206018928,17.54787518120088,148.47028305485628,87.98352025635177
1539131206034909,19.1348134584573,143.64843213550012,81.20851453421847
1539131206050890,21.33211261158158,134.98130769817635,71.80895704585373
1539131206066870,13.214312962538997,121.61440451667067,61.79903868162046
1539131206082851,9.246967269398056,103.73083085374219,49.71389333943671
1539131206098832,13.214312962538997,83.52788586251654,37.26253147173247
1539131206114812,19.195849546043974,60.70038910505809,25.23842221713585
1539131206130793,24.383916990920852,36.71320668345152,13.76363775082018
1539131206146774,26.39810788128466,11.688410772869474,2.7161058976118966
1539131206162755,26.092927443350845,-13.76363775082018,-9.613183794918768
1539131206178735,22.73594262607753,-39.276722362096734,-21.39314869916825
1539131206194716,27.130540932326085,-62.47043564507521,-32.01342793926915
1539131206210662,37.87289234760033,-83.58892195010299,-41.840238040741724
1539131206226643,41.535057602807456,-103.3035782406348,-50.62943465323883
1539131206242624,34.943160143434625,-123.01823453116663,-58.56412603952094
1539131206258605,15.899900816357558,-144.01464866102083,-62.77561608300903
1539131206274585,-10.284580758373295,-167.14732585641264,-66.01052872510877
1539131206290566,-52.94880598153668,-202.67032883192178,-74.00625619897755
1539131206306547,-67.17021438925758,-246.0669871061266,-94.27023727779056
1539131206322528,1.1902037079423735,-289.52468146791807,-119.11192492561236
1539131206338508,50.75150682841195,-242.6489662012666,-102.75425345235385
1539131206354489,-18.158236057068734,7.721065079728305,32.13550011444249
1539131206370470,-30.243381399252257,53.43709468223051,23.651483939879427
1539131206386450,-175.63134203097593,41.412985427633885,39.64293888761722
1539131206402431,50.690470740825276,52.948805981536225,47.82177462424647
1539131206418412,78.03463797970562,38.60532539864175,27.98504615854108
1539131206434393,15.594720378423744,30.36545357442583,9.430075532158298
1539131206450373,37.628747997253186,36.346990157930804,-2.8381780727854675
1539131206466354,23.102159151598244,36.163881895170334,-7.782101167315204
1539131206482335,8.209353780422589,35.79766536964962,-6.500343327992596
1539131206498315,3.814755474174035,34.08865491721963,-3.0212863355459376
1539131206514296,-4.730296787975931,29.32784008545036,-0.6408789196611906
1539131206530273,-9.369039444571627,22.73594262607753,0.7629510948347615
1539131206546254,-11.505302510109004,14.251926451514464,1.9226367589837992
1539131206562235,-6.744487678339738,5.157549401083315,2.105745021744042
1539131206578215,9.308003356984727,-2.655069810025225,0.9460593575952316
1539131206594196,15.594720378423744,-9.430075532158298,-1.4953841458761872
1539131206610177,9.246967269398056,-15.045395590142562,-3.997863736934505
1539131206626157,6.317235065232353,-19.195849546043974,-6.500343327992596
1539131206642138,5.3406576638437855,-22.552834363317288,-8.45349813076973
1539131206658119,9.796292057679011,-25.29945830472252,-10.223544670786623
1539131206674100,18.219272144655406,-27.435721370260126,-11.444266422522333
1539131206690080,22.73594262607753,-27.80193789578084,-11.139085984588291
1539131206706061,19.9282825970854,-27.313649195086555,-9.491111619745197
1539131206722042,15.045395590142562,-26.092927443350845,-7.232776379034021
1539131206738022,13.702601663233281,-23.95666437781324,-5.3406576638437855
1539131206754003,12.542915999084471,-21.881437399862534,-4.547188525215461
1539131206769984,9.246967269398056,-19.9893186846723,-3.875791561760934
1539131206785965,5.889982452124741,-17.54787518120088,-2.288853284504512
1539131206801945,5.584802014190927,-15.10643167772946,-0.9460593575952316
1539131206817926,7.17174029144735,-12.909132524605184,0.33569848172737693
1539131206833907,9.613183794918768,-10.772869459067579,1.6174563210497581
1539131206849914,9.063859006637585,-9.185931181811156,1.983672846570471
1539131206865895,5.096513313496644,-7.965209430075447,1.6174563210497581
1539131206881876,-2.410925459678083,-6.9886320286868795,1.3122758831159445
1539131206897856,-8.45349813076973,-6.134126802471883,0.5798428320745188
1539131206913837,-4.364080262455218,-5.645838101777599,-0.213626306553806
1539131206929818,3.3875028610666504,-5.2185854886702145,-0.8850232700083325
1539131206945798,7.660028992141633,-4.669260700389032,-1.6784924086366573
1539131206961779,3.997863736934505,-4.486152437628789,-2.532997634851654
1539131206977760,-2.288853284504512,-3.875791561760934,-3.2654306858930795
1539131206993741,-4.364080262455218,-2.9602502479590385,-3.814755474174035
1539131207009721,-4.119935912108076,-3.0212863355459376,-3.875791561760934
1539131207025702,4.119935912108076,-3.814755474174035,-3.875791561760934
1539131207041683,18.463416495002548,-4.303044174868319,-3.814755474174035
1539131207057664,18.58548867017612,-4.119935912108076,-4.791332875562603
1539131207073644,-3.5095750362402214,-5.096513313496644,-4.791332875562603
1539131207089625,-5.95101853971164,-5.157549401083315,-5.096513313496644
1539131207105606,4.42511635004189,-4.364080262455218,-6.439307240405924
1539131207121586,1.3122758831159445,-5.279621576256886,-6.8665598535133086
1539131207137567,0.7019150072480898,-4.852368963149502,-6.439307240405924
1539131207153548,4.60822461280236,-3.2043945983061803,-5.462729839017356
1539131207169525,3.692683299000464,-2.410925459678083,-4.547188525215461
1539131207185505,0.33569848172737693,-2.105745021744042,-3.3264667734797513
1539131207201486,0.6408789196611906,-1.0070954451819034,-1.983672846570471
1539131207217467,-0.6408789196611906,-0.45777065690094787,-0.3967345693140487
1539131207233448,-4.364080262455218,-0.33569848172737693,0.6408789196611906
1539131207249428,-5.0354772259097444,-0.45777065690094787,1.6174563210497581
1539131207265409,-3.7537193865873633,-1.1291676203554744,2.227817196917613
1539131207281390,-1.739528496223329,-1.983672846570471,2.166781109330941
1539131207297371,-0.8239871824216607,-1.739528496223329,1.1291676203554744
1539131207313351,-0.3967345693140487,-0.8850232700083325,-0.213626306553806
1539131207329332,-0.15259021896690683,-0.09155413138023505,-1.6174563210497581
1539131207345313,1.0070954451819034,0.5798428320745188,-2.8992141603723667
1539131207361293,0.6408789196611906,1.6174563210497581,-3.997863736934505
1539131207377274,-1.6784924086366573,2.105745021744042,-4.364080262455218
1539131207393255,1.1902037079423735,2.655069810025225,-4.180971999694748
1539131207409236,4.852368963149502,2.8992141603723667,-4.119935912108076
1539131207425216,3.0823224231326094,2.227817196917613,-3.997863736934505
1539131207441197,0.8850232700083325,1.4343480582895154,-2.7771419851987957
1539131207457178,4.119935912108076,0.9460593575952316,-0.7019150072480898
1539131207473158,7.2938124666209205,0.33569848172737693,1.1902037079423735
1539131207489135,5.2185854886702145,-0.6408789196611906,2.3498893720911838
1539131207505116,4.42511635004189,-0.9460593575952316,2.8992141603723667
1539131207521097,7.537956816968062,-0.6408789196611906,3.0823224231326094
1539131207537078,12.542915999084471,-0.03051804379333589,2.410925459678083
1539131207553058,14.618142977035177,0.5798428320745188,1.6174563210497581
1539131207569039,10.162508583199724,0.5798428320745188,1.1291676203554744
1539131207585020,9.185931181811156,0.6408789196611906,0.3967345693140487
1539131207601000,11.261158159761862,0.8850232700083325,0.33569848172737693
1539131207616981,12.23773556115043,0.9460593575952316,0.33569848172737693
1539131207632962,14.862287327382319,0.7019150072480898,-0.09155413138023505
1539131207648943,18.341344319828977,0.45777065690094787,-0.03051804379333589
1539131207664923,19.317921721217544,0.3967345693140487,0.7629510948347615
1539131207680904,20.17242694743254,0.8239871824216607,1.3733119707026162
1539131207696885,20.17242694743254,1.1291676203554744,1.4953841458761872
1539131207712865,17.730983443961122,1.1291676203554744,1.0681315327688026
1539131207728846,13.397421225299468,1.1291676203554744,0.5188067444876197
1539131207744827,9.185931181811156,1.1291676203554744,0.09155413138023505
1539131207760808,5.401693751430457,1.6174563210497581,-0.3967345693140487
1539131207776788,1.1902037079423735,2.04470893415737,-0.6408789196611906
1539131207792769,-2.8992141603723667,2.288853284504512,-0.5798428320745188
1539131207808746,-6.500343327992596,2.3498893720911838,-0.3967345693140487
1539131207824727,-10.467689021133765,2.410925459678083,-0.7629510948347615
1539131207840707,-14.618142977035177,2.7161058976118966,-1.1902037079423735
1539131207856688,-18.158236057068734,3.3264667734797513,-1.4343480582895154
1539131207872669,-19.867246509498727,3.7537193865873633,-1.4343480582895154
1539131207888650,-20.599679560540153,3.692683299000464,-1.0070954451819034
1539131207904630,-19.684138246738257,3.875791561760934,-0.33569848172737693
1539131207920611,-19.01274128328373,3.6316472114137923,0.09155413138023505
1539131207936592,-17.303730830853738,3.6316472114137923,0.45777065690094787
1539131207952572,-14.618142977035177,3.4485389486533222,0.6408789196611906
1539131207968553,-9.67421988250544,3.2043945983061803,0.7629510948347615
1539131207984534,-3.0212863355459376,3.2043945983061803,1.0070954451819034
1539131208000515,2.288853284504512,3.7537193865873633,1.4343480582895154
1539131208016495,6.805523765926637,5.0354772259097444,2.227817196917613
1539131208032476,11.383230334935433,4.974441138323073,3.4485389486533222
1539131208048457,16.632333867398984,4.852368963149502,4.669260700389032
1539131208064437,18.70756084534969,4.058899824521177,5.645838101777599
1539131208080418,13.336385137712568,4.364080262455218,5.828946364538069
1539131208096399,0.5798428320745188,5.0354772259097444,6.012054627298312
1539131208112380,-13.702601663233281,5.462729839017356,5.401693751430457
1539131208128357,-23.163195239185143,4.730296787975931,4.303044174868319
1539131208144337,-25.17738612954895,3.570611123826893,3.0823224231326094
1539131208160318,-19.439993896391115,3.0212863355459376,2.288853284504512
1539131208176299,-11.871519035629717,2.5940337224383256,2.410925459678083
1539131208192279,-6.744487678339738,2.410925459678083,2.3498893720911838
1539131208208260,-6.8665598535133086,1.3733119707026162,0.8239871824216607
1539131208224241,-7.476920729381163,0.7019150072480898,-0.7629510948347615
1539131208240222,-3.570611123826893,0.15259021896690683,-1.6174563210497581
1539131208256202,3.936827649347606,-0.213626306553806,-1.9226367589837992
1539131208272183,11.810482948043045,-0.09155413138023505,-1.3122758831159445
1539131208288164,14.496070801861606,-0.15259021896690683,-0.45777065690094787
1539131208304144,11.20012207217519,-0.03051804379333589,0.03051804379333589
1539131208320125,5.645838101777599,-0.09155413138023505,0.7019150072480898
1539131208336106,0.8239871824216607,0.5798428320745188,1.1902037079423735
1539131208352087,-1.5564202334630863,1.4343480582895154,2.166781109330941
1539131208368067,-1.2512397955290453,1.739528496223329,3.4485389486533222
1539131208384048,-0.6408789196611906,1.8005645838102282,3.692683299000464
1539131208400029,-1.0070954451819034,1.8616006713969,2.8381780727854675
1539131208416010,-0.8239871824216607,2.166781109330941,2.5940337224383256
1539131208431990,2.7161058976118966,2.227817196917613,3.692683299000464
1539131208447967,5.096513313496644,1.2512397955290453,3.997863736934505
1539131208463948,4.058899824521177,0.45777065690094787,2.8992141603723667
1539131208479929,0.15259021896690683,0.5798428320745188,1.1902037079423735
1539131208495909,-4.42511635004189,1.4953841458761872,-0.09155413138023505
1539131208511890,-5.76791027695117,1.6784924086366573,-0.5798428320745188
1539131208527871,-4.058899824521177,1.0070954451819034,-0.5798428320745188
1539131208543851,-0.15259021896690683,0.45777065690094787,-0.5188067444876197
1539131208559832,3.4485389486533222,-0.213626306553806,-0.8239871824216607
1539131208575813,3.7537193865873633,0.03051804379333589,-1.3122758831159445
1539131208591794,0.9460593575952316,0.7019150072480898,-1.739528496223329
1539131208607774,-2.105745021744042,0.6408789196611906,-2.04470893415737
1539131208623755,-3.875791561760934,0.6408789196611906,-2.166781109330941
1539131208639736,-4.119935912108076,0.45777065690094787,-2.105745021744042
1539131208655717,-4.364080262455218,0.09155413138023505,-1.9226367589837992
1539131208671697,-6.256198977645454,0.2746623941404778,-1.5564202334630863
1539131208687678,-9.002822919050914,0.8239871824216607,-0.9460593575952316
1539131208703659,-9.796292057679011,1.0681315327688026,0.09155413138023505
1539131208719639,-9.308003356984727,1.4343480582895154,1.5564202334630863
1539131208735620,-8.758678568703772,1.6784924086366573,2.532997634851654
1539131208751601,-9.796292057679011,1.983672846570471,2.8381780727854675
1539131208767578,-10.223544670786623,2.3498893720911838,3.2654306858930795
1539131208783558,-8.819714656290444,1.983672846570471,3.3264667734797513
1539131208799539,-7.17174029144735,1.3733119707026162,2.8381780727854675
1539131208815520,-6.622415503166167,1.4343480582895154,1.983672846570471
1539131208831501,-5.828946364538069,1.6784924086366573,1.4343480582895154
1539131208847481,-4.547188525215461,1.5564202334630863,0.8850232700083325
1539131208863462,-3.4485389486533222,1.739528496223329,0.7019150072480898
1539131208879443,-1.0070954451819034,1.8616006713969,1.0681315327688026
1539131208895424,1.4343480582895154,1.9226367589837992,1.3733119707026162
1539131208911404,2.3498893720911838,1.8616006713969,1.6174563210497581
1539131208927385,1.0070954451819034,1.8005645838102282,1.5564202334630863
1539131208943366,-0.7019150072480898,1.6174563210497581,1.1902037079423735
1539131208959346,-1.3733119707026162,1.4953841458761872,0.7629510948347615
1539131208975327,-0.7019150072480898,1.3733119707026162,0.5188067444876197
1539131208991308,0.8239871824216607,1.1291676203554744,0.45777065690094787
1539131209007289,1.0681315327688026,0.8850232700083325,0.2746623941404778
1539131209023269,0.5188067444876197,0.6408789196611906,0.03051804379333589
1539131209039250,-0.3967345693140487,0.5798428320745188,-0.2746623941404778
1539131209055231,0.2746623941404778,0.5798428320745188,-0.3967345693140487
1539131209071211,1.983672846570471,0.45777065690094787,-0.15259021896690683
1539131209087219,3.875791561760934,0.213626306553806,0.5798428320745188
1539131209103200,4.486152437628789,-0.45777065690094787,1.1902037079423735
1539131209119180,3.936827649347606,-1.0070954451819034,1.3122758831159445
1539131209135161,2.7161058976118966,-0.7629510948347615,1.1291676203554744
1539131209151142,1.1291676203554744,-0.213626306553806,0.8850232700083325
1539131209167122,-0.45777065690094787,0.6408789196611906,0.8239871824216607
1539131209183103,-1.5564202334630863,1.2512397955290453,0.6408789196611906
1539131209199084,-1.3733119707026162,1.3122758831159445,0.3967345693140487
1539131209215065,-0.3967345693140487,1.1902037079423735,0.15259021896690683
1539131209231045,0.15259021896690683,1.1291676203554744,-0.03051804379333589
1539131209247026,-0.09155413138023505,1.0681315327688026,-0.33569848172737693
1539131209263007,-0.2746623941404778,0.7629510948347615,-1.0070954451819034
1539131209278988,0.45777065690094787,0.6408789196611906,-1.2512397955290453
1539131209294968,1.6174563210497581,1.0070954451819034,-1.0681315327688026
1539131209310949,2.4719615472647547,0.9460593575952316,-0.8850232700083325
1539131209326930,2.227817196917613,0.8850232700083325,-0.33569848172737693
1539131209342910,1.1291676203554744,1.3122758831159445,0.03051804379333589
1539131209358891,0.33569848172737693,1.3122758831159445,-0.03051804379333589
1539131209374872,0.33569848172737693,1.1902037079423735,-0.03051804379333589
1539131209390853,0.45777065690094787,1.3122758831159445,0.213626306553806
1539131209406799,0.6408789196611906,1.3122758831159445,-0.09155413138023505
1539131209422780,0.8850232700083325,1.4343480582895154,-0.33569848172737693
1539131209438760,1.4953841458761872,1.5564202334630863,-0.2746623941404778
1539131209454741,2.410925459678083,1.2512397955290453,-0.2746623941404778
1539131209470722,2.532997634851654,1.0070954451819034,-0.33569848172737693
1539131209486703,1.6784924086366573,1.0681315327688026,-0.45777065690094787
1539131209502683,0.2746623941404778,1.0681315327688026,-0.5798428320745188
1539131209518664,-0.5798428320745188,0.8239871824216607,-0.7629510948347615
1539131209534645,-0.09155413138023505,0.6408789196611906,-0.5188067444876197
1539131209550625,0.213626306553806,0.8239871824216607,-0.33569848172737693
1539131209566606,-0.7629510948347615,1.0681315327688026,-0.2746623941404778
1539131209582587,-1.983672846570471,1.4343480582895154,-0.213626306553806
1539131209598568,-2.410925459678083,1.5564202334630863,-0.15259021896690683
1539131209614548,-2.04470893415737,1.6784924086366573,0.09155413138023505
1539131209630529,-2.105745021744042,2.227817196917613,0.33569848172737693
1539131209646510,-2.7771419851987957,2.410925459678083,0.33569848172737693
1539131209662490,-3.0823224231326094,2.166781109330941,0.213626306553806
1539131209678471,-2.8381780727854675,2.227817196917613,0.03051804379333589
1539131209694452,-2.7161058976118966,2.4719615472647547,-0.15259021896690683
1539131209710433,-2.9602502479590385,2.655069810025225,-0.3967345693140487
1539131209726410,-2.532997634851654,2.7161058976118966,-0.3967345693140487
1539131209742390,-1.1902037079423735,2.532997634851654,-0.3967345693140487
1539131209758371,-0.33569848172737693,2.288853284504512,-0.5188067444876197
1539131209774352,-0.7629510948347615,1.983672846570471,-0.8239871824216607
1539131209790332,-1.4953841458761872,1.8616006713969,-1.1902037079423735
1539131209806313,-2.04470893415737,1.6784924086366573,-1.5564202334630863
1539131209822294,-1.3733119707026162,1.4343480582895154,-1.8005645838102282
1539131209838275,0.2746623941404778,1.6784924086366573,-1.8616006713969
1539131209854255,1.0681315327688026,1.8616006713969,-2.227817196917613
1539131209870236,1.1902037079423735,1.983672846570471,-2.5940337224383256
1539131209886217,1.3122758831159445,1.9226367589837992,-2.8381780727854675
1539131209902197,1.8005645838102282,1.739528496223329,-2.7771419851987957
1539131209918178,2.410925459678083,1.3122758831159445,-2.410925459678083
1539131209934159,2.655069810025225,1.1902037079423735,-1.739528496223329
1539131209950140,2.166781109330941,1.0070954451819034,-1.1902037079423735
1539131209966120,0.45777065690094787,1.0070954451819034,-0.8239871824216607
1539131209982101,-1.8616006713969,1.1291676203554744,-0.5188067444876197
1539131209998082,-3.5095750362402214,1.0681315327688026,-0.45777065690094787
1539131210014063,-3.875791561760934,1.1902037079423735,-0.3967345693140487
1539131210030043,-3.0212863355459376,1.0681315327688026,-0.33569848172737693
1539131210046020,-1.9226367589837992,1.3122758831159445,-0.3967345693140487
1539131210062001,-1.983672846570471,1.6784924086366573,-0.7629510948347615
1539131210077982,-2.655069810025225,1.8005645838102282,-1.3122758831159445
1539131210093962,-2.227817196917613,2.04470893415737,-1.4343480582895154
1539131210109943,-0.7019150072480898,1.9226367589837992,-1.6174563210497581
1539131210125924,0.7629510948347615,2.288853284504512,-1.5564202334630863
1539131210141904,1.4343480582895154,2.5940337224383256,-1.6174563210497581
1539131210157885,0.9460593575952316,2.655069810025225,-1.6784924086366573
1539131210173866,0.09155413138023505,2.7771419851987957,-1.6784924086366573
1539131210189847,-0.3967345693140487,2.8992141603723667,-1.4343480582895154
1539131210205827,-0.3967345693140487,2.532997634851654,-1.3122758831159445
1539131210221808,0.213626306553806,1.8616006713969,-1.0070954451819034
1539131210237789,0.5798428320745188,1.1902037079423735,-0.6408789196611906
1539131210253769,0.09155413138023505,0.8850232700083325,-0.6408789196611906
1539131210269750,0.5188067444876197,0.8850232700083325,-0.45777065690094787
1539131210285731,2.227817196917613,1.1291676203554744,0.03051804379333589
1539131210301712,2.7771419851987957,1.1902037079423735,0.5188067444876197
1539131210317692,1.2512397955290453,1.0681315327688026,0.7629510948347615
1539131210333673,-0.7019150072480898,0.8239871824216607,0.8850232700083325
1539131210349654,-2.3498893720911838,0.3967345693140487,0.7019150072480898
1539131210365631,-2.227817196917613,0.213626306553806,0.7019150072480898
1539131210381611,-1.3122758831159445,0.2746623941404778,0.8850232700083325
1539131210397592,-0.6408789196611906,0.5188067444876197,0.8850232700083325
1539131210413573,-0.09155413138023505,0.8850232700083325,0.7019150072480898
1539131210429554,0.6408789196611906,0.9460593575952316,0.33569848172737693
1539131210445534,1.0681315327688026,0.9460593575952316,0.03051804379333589
1539131210461515,1.4343480582895154,1.0070954451819034,-0.03051804379333589
1539131210477496,1.3122758831159445,0.8239871824216607,0.15259021896690683
1539131210493476,0.15259021896690683,0.5798428320745188,0.03051804379333589
1539131210509457,-1.1291676203554744,0.5798428320745188,-0.09155413138023505
1539131210525438,-2.04470893415737,0.6408789196611906,-0.2746623941404778
1539131210541419,-1.6174563210497581,0.7019150072480898,-0.33569848172737693
1539131210557399,0.45777065690094787,0.6408789196611906,-0.15259021896690683
1539131210573380,2.532997634851654,0.5188067444876197,-0.09155413138023505
1539131210589361,2.4719615472647547,0.3967345693140487,-0.213626306553806
1539131210605342,1.0070954451819034,0.3967345693140487,-0.33569848172737693
1539131210621322,0.2746623941404778,0.3967345693140487,-0.213626306553806
1539131210637303,0.7629510948347615,0.5798428320745188,0.15259021896690683
1539131210653284,1.0681315327688026,0.7019150072480898,0.3967345693140487
1539131210669264,-0.6408789196611906,0.8239871824216607,0.09155413138023505
1539131210685241,-2.7771419851987957,0.8239871824216607,-0.5188067444876197
1539131210701222,-2.9602502479590385,0.6408789196611906,-1.1291676203554744
1539131210717203,-0.5188067444876197,0.7019150072480898,-1.3733119707026162
1539131210733183,2.532997634851654,0.8850232700083325,-1.3122758831159445
1539131210749164,3.3875028610666504,1.1902037079423735,-1.2512397955290453
1539131210765145,1.2512397955290453,1.4343480582895154,-1.8005645838102282
1539131210781126,-1.4343480582895154,1.3733119707026162,-2.166781109330941
1539131210797106,-1.739528496223329,1.1291676203554744,-2.288853284504512
1539131210813087,1.2512397955290453,0.8850232700083325,-1.6784924086366573
1539131210829068,3.3875028610666504,0.8239871824216607,-1.2512397955290453
1539131210845049,2.3498893720911838,1.0070954451819034,-1.3122758831159445
1539131210861029,0.33569848172737693,1.4953841458761872,-1.6174563210497581
1539131210877010,-0.15259021896690683,1.8005645838102282,-1.8616006713969
1539131210892991,0.8850232700083325,2.04470893415737,-1.8616006713969
1539131210908971,2.105745021744042,2.105745021744042,-1.6174563210497581
1539131210924952,2.4719615472647547,1.9226367589837992,-1.5564202334630863
1539131210940933,1.9226367589837992,1.8005645838102282,-1.739528496223329
1539131210956914,1.6174563210497581,1.739528496223329,-1.9226367589837992
1539131210972894,2.105745021744042,1.8005645838102282,-1.9226367589837992
1539131210988875,2.655069810025225,1.8005645838102282,-1.4953841458761872
1539131211004852,2.655069810025225,1.3733119707026162,-0.9460593575952316
1539131211020833,1.6784924086366573,1.0070954451819034,-0.6408789196611906
1539131211036813,-0.7019150072480898,0.8850232700083325,-0.7629510948347615
1539131211052794,-2.105745021744042,1.0681315327688026,-1.0681315327688026
1539131211068775,-0.8239871824216607,1.0070954451819034,-1.0681315327688026
1539131211084756,2.288853284504512,0.7019150072480898,-1.0070954451819034
1539131211100736,4.180971999694748,0.5798428320745188,-0.9460593575952316
1539131211116717,3.2654306858930795,0.8239871824216607,-1.1902037079423735
1539131211132698,1.3733119707026162,0.8850232700083325,-1.1291676203554744
1539131211148678,-0.03051804379333589,0.8239871824216607,-0.7629510948347615
1539131211164659,-1.1291676203554744,0.5188067444876197,-0.45777065690094787
1539131211180640,-1.6174563210497581,0.09155413138023505,-0.2746623941404778
1539131211196621,-0.9460593575952316,-0.15259021896690683,-0.2746623941404778
1539131211212601,0.09155413138023505,-0.09155413138023505,-0.2746623941404778
1539131211228582,0.33569848172737693,0.33569848172737693,-0.3967345693140487
1539131211244563,0.09155413138023505,0.6408789196611906,-0.5188067444876197
1539131211260543,0.2746623941404778,0.7629510948347615,-0.6408789196611906
1539131211276524,1.6174563210497581,0.7629510948347615,-0.8850232700083325
1539131211292505,3.3264667734797513,0.5188067444876197,-1.0681315327688026
1539131211308486,3.814755474174035,0.3967345693140487,-1.0681315327688026
1539131211324463,1.983672846570471,0.3967345693140487,-1.2512397955290453
1539131211340443,-0.213626306553806,0.5188067444876197,-1.2512397955290453
1539131211356424,-0.09155413138023505,0.5188067444876197,-1.0070954451819034
1539131211372405,1.5564202334630863,0.33569848172737693,-0.7019150072480898
1539131211388385,3.2043945983061803,0.15259021896690683,-0.33569848172737693
1539131211404366,2.8381780727854675,0.09155413138023505,-0.3967345693140487
1539131211420347,0.03051804379333589,0.2746623941404778,-0.7629510948347615
1539131211436328,-2.655069810025225,0.3967345693140487,-1.0681315327688026
1539131211452308,-2.8381780727854675,0.15259021896690683,-0.9460593575952316
1539131211468289,-1.0681315327688026,-0.03051804379333589,-0.6408789196611906
1539131211484270,-0.45777065690094787,-0.03051804379333589,-0.6408789196611906
1539131211500250,-2.4719615472647547,0.03051804379333589,-1.0681315327688026
1539131211516231,-5.584802014190927,0.15259021896690683,-1.5564202334630863
1539131211532212,-7.843137254901876,0.33569848172737693,-1.739528496223329
1539131211548193,-7.904173342488775,0.5188067444876197,-1.4343480582895154
1539131211564173,-6.500343327992596,0.3967345693140487,-1.0070954451819034
1539131211580154,-5.2185854886702145,-0.03051804379333589,-0.6408789196611906
1539131211596135,-4.180971999694748,-0.45777065690094787,-0.45777065690094787
1539131211612115,-3.3264667734797513,-0.33569848172737693,-0.2746623941404778
1539131211628096,-2.7161058976118966,0.03051804379333589,-0.33569848172737693
1539131211644104,-2.288853284504512,0.3967345693140487,-0.5188067444876197
1539131211660084,-1.4343480582895154,0.7629510948347615,-0.6408789196611906
1539131211676065,-0.09155413138023505,1.0070954451819034,-0.45777065690094787
1539131211692046,0.8850232700083325,1.3122758831159445,-0.2746623941404778
1539131211708027,1.3733119707026162,1.4343480582895154,0.09155413138023505
1539131211724007,1.4953841458761872,1.4343480582895154,0.2746623941404778
1539131211739988,0.7019150072480898,1.6174563210497581,0.09155413138023505
1539131211755969,0.03051804379333589,1.9226367589837992,-0.09155413138023505
1539131211771949,-0.7019150072480898,2.288853284504512,-0.33569848172737693
1539131211787930,-2.166781109330941,2.655069810025225,-0.7019150072480898
1539131211803911,-2.532997634851654,2.7771419851987957,-0.9460593575952316
1539131211819892,-1.6174563210497581,2.5940337224383256,-1.0681315327688026
1539131211835872,-0.7019150072480898,2.227817196917613,-1.3122758831159445
1539131211851853,-0.03051804379333589,1.6174563210497581,-1.6174563210497581
1539131211867834,0.7629510948347615,1.0070954451819034,-1.983672846570471
1539131211883814,1.739528496223329,0.8239871824216607,-1.983672846570471
1539131211899795,2.288853284504512,0.45777065690094787,-1.8005645838102282
1539131211915776,1.6174563210497581,0.213626306553806,-1.739528496223329
1539131211931757,0.5188067444876197,-0.09155413138023505,-1.9226367589837992
1539131211947737,0.09155413138023505,-0.09155413138023505,-1.983672846570471
1539131211963714,0.5188067444876197,0.09155413138023505,-2.04470893415737
1539131211979695,1.9226367589837992,0.2746623941404778,-1.9226367589837992
1539131211995676,3.2043945983061803,0.5188067444876197,-1.739528496223329
1539131212011656,3.6316472114137923,0.6408789196611906,-1.4343480582895154
1539131212027637,2.5940337224383256,0.7629510948347615,-1.3122758831159445
1539131212043618,0.2746623941404778,0.9460593575952316,-1.3122758831159445
1539131212059599,-1.9226367589837992,1.1902037079423735,-1.1902037079423735
1539131212075579,-2.04470893415737,1.0681315327688026,-0.9460593575952316
1539131212091560,-0.213626306553806,1.0070954451819034,-0.3967345693140487
1539131212107541,1.3733119707026162,1.3122758831159445,-0.2746623941404778
1539131212123521,1.6784924086366573,1.739528496223329,-0.33569848172737693
1539131212139502,0.6408789196611906,2.288853284504512,-0.45777065690094787
1539131212155483,-1.1902037079423735,2.5940337224383256,-0.5188067444876197
1539131212171464,-1.5564202334630863,2.5940337224383256,-0.45777065690094787
1539131212187444,-0.45777065690094787,2.5940337224383256,-0.5188067444876197
1539131212203425,0.2746623941404778,2.8992141603723667,-0.8239871824216607
1539131212219406,0.213626306553806,3.0823224231326094,-1.0681315327688026
1539131212235386,-0.33569848172737693,3.0823224231326094,-1.1902037079423735
1539131212251367,-0.09155413138023505,2.8992141603723667,-1.3733119707026162
1539131212267348,1.3733119707026162,2.5940337224383256,-1.4343480582895154
1539131212283294,3.0823224231326094,2.227817196917613,-1.0681315327688026
1539131212299275,3.2654306858930795,1.739528496223329,-0.7629510948347615
1539131212315256,1.6174563210497581,1.4343480582895154,-0.9460593575952316
1539131212331236,-0.2746623941404778,1.3733119707026162,-1.2512397955290453
1539131212347217,-0.5798428320745188,1.3122758831159445,-1.3733119707026162
1539131212363198,0.5188067444876197,1.1902037079423735,-1.3122758831159445
1539131212379179,1.739528496223329,1.1291676203554744,-1.3733119707026162
1539131212395159,2.4719615472647547,1.1291676203554744,-1.6784924086366573
1539131212411140,2.288853284504512,1.4343480582895154,-1.9226367589837992
1539131212427121,1.6174563210497581,1.6174563210497581,-1.9226367589837992
1539131212443102,0.9460593575952316,1.5564202334630863,-1.8005645838102282
1539131212459082,0.6408789196611906,1.4343480582895154,-1.6784924086366573
1539131212475063,1.0681315327688026,1.3733119707026162,-1.6174563210497581
1539131212491044,2.166781109330941,1.3733119707026162,-1.6174563210497581
1539131212507024,2.5940337224383256,1.3122758831159445,-1.8005645838102282
1539131212523005,1.9226367589837992,1.0681315327688026,-2.5940337224383256
1539131212538986,1.4343480582895154,0.7019150072480898,-3.3875028610666504
1539131212554967,2.410925459678083,0.3967345693140487,-3.692683299000464
1539131212570947,5.2185854886702145,0.03051804379333589,-2.9602502479590385
1539131212586928,6.378271152819025,0.09155413138023505,-2.3498893720911838
1539131212602905,4.058899824521177,0.5798428320745188,-2.7161058976118966
1539131212618886,1.1291676203554744,1.1291676203554744,-3.1433585107195086
1539131212634866,0.7019150072480898,1.3733119707026162,-2.9602502479590385
1539131212650847,1.9226367589837992,1.4953841458761872,-2.532997634851654
1539131212666828,3.3264667734797513,1.5564202334630863,-1.9226367589837992
1539131212682809,3.3264667734797513,1.9226367589837992,-1.4953841458761872
1539131212698789,1.3733119707026162,2.532997634851654,-1.4343480582895154
1539131212714770,-0.8850232700083325,3.1433585107195086,-1.1291676203554744
1539131212730751,-2.3498893720911838,3.570611123826893,-0.7019150072480898
1539131212746731,-2.9602502479590385,3.7537193865873633,-0.45777065690094787
1539131212762712,-2.8992141603723667,3.814755474174035,-0.15259021896690683
1539131212778693,-2.7771419851987957,4.058899824521177,0.2746623941404778
1539131212794674,-3.1433585107195086,4.42511635004189,0.6408789196611906
1539131212810654,-3.692683299000464,4.9134050507361735,1.0681315327688026
1539131212826635,-4.364080262455218,5.157549401083315,1.2512397955290453
1539131212842616,-4.486152437628789,5.3406576638437855,1.3122758831159445
1539131212858596,-3.2043945983061803,5.76791027695117,1.3122758831159445
1539131212874577,-2.5940337224383256,5.828946364538069,1.3122758831159445
1539131212890558,-3.875791561760934,6.134126802471883,1.4953841458761872
1539131212906539,-7.232776379034021,6.317235065232353,1.983672846570471
1539131212922515,-11.139085984588291,6.378271152819025,2.8381780727854675
1539131212938496,-14.435034714274707,6.378271152819025,2.8381780727854675
1539131212954477,-15.167467765316132,6.805523765926637,1.9226367589837992
1539131212970458,-11.932555123216616,7.476920729381163,0.8850232700083325
1539131212986438,-6.622415503166167,7.537956816968062,0.33569848172737693
1539131213002419,-1.8005645838102282,7.11070420386045,0.213626306553806
1539131213018400,1.3733119707026162,6.378271152819025,0.213626306553806
1539131213034381,2.105745021744042,5.523765926604028,-0.15259021896690683
1539131213050361,1.2512397955290453,4.9134050507361735,-0.7629510948347615
1539131213066342,0.45777065690094787,4.242008087281647,-1.3122758831159445
1539131213082323,1.3733119707026162,3.3875028610666504,-1.1902037079423735
1539131213098303,3.5095750362402214,2.5940337224383256,-0.7019150072480898
1539131213114284,5.0354772259097444,1.983672846570471,-0.3967345693140487
1539131213130265,4.242008087281647,1.4953841458761872,-0.6408789196611906
1539131213146246,2.227817196917613,1.3733119707026162,-0.6408789196611906
1539131213162226,0.5188067444876197,1.0681315327688026,-0.5798428320745188
1539131213178207,-0.15259021896690683,0.5188067444876197,-0.5188067444876197
1539131213194188,0.213626306553806,-0.15259021896690683,-0.03051804379333589
1539131213210168,0.33569848172737693,-0.213626306553806,0.5188067444876197
1539131213226149,-1.3733119707026162,0.45777065690094787,0.45777065690094787
1539131213242126,-2.8381780727854675,0.8850232700083325,0.213626306553806
1539131213258107,-3.3875028610666504,0.8850232700083325,-0.213626306553806
1539131213274088,-2.227817196917613,0.09155413138023505,-0.5188067444876197
1539131213290068,0.3967345693140487,-1.1902037079423735,-0.3967345693140487
1539131213306049,2.8381780727854675,-2.166781109330941,-0.09155413138023505
1539131213322030,3.875791561760934,-2.5940337224383256,0.33569848172737693
1539131213338010,3.0823224231326094,-2.04470893415737,0.33569848172737693
1539131213353991,1.1902037079423735,-0.8850232700083325,-0.15259021896690683
1539131213369972,-0.5798428320745188,0.03051804379333589,-0.5188067444876197
1539131213385953,-0.7629510948347615,1.0070954451819034,-0.2746623941404778
1539131213401933,0.45777065690094787,1.4953841458761872,0.213626306553806
1539131213417914,1.5564202334630863,1.6784924086366573,0.5798428320745188
1539131213433895,1.6784924086366573,1.739528496223329,0.45777065690094787
1539131213449875,0.7629510948347615,1.739528496223329,0.15259021896690683
1539131213465856,-1.0070954451819034,1.8005645838102282,-0.15259021896690683
1539131213481837,-2.8381780727854675,1.8005645838102282,-0.2746623941404778
1539131213497818,-3.814755474174035,1.6174563210497581,-0.03051804379333589
1539131213513798,-4.42511635004189,1.3122758831159445,0.09155413138023505
1539131213529779,-6.073090714885211,1.5564202334630863,0.15259021896690683
1539131213545760,-8.941786831464015,2.3498893720911838,-0.03051804379333589
1539131213561737,-12.054627298390187,3.2654306858930795,-0.6408789196611906
1539131213577717,-14.496070801861606,2.3498893720911838,-1.4343480582895154
1539131213593698,-14.251926451514464,0.3967345693140487,-1.983672846570471
1539131213609679,-13.336385137712568,-1.6174563210497581,-2.3498893720911838
1539131213625660,-9.246967269398056,-3.4485389486533222,-2.4719615472647547
1539131213641640,-5.157549401083315,-4.486152437628789,-2.532997634851654
1539131213657621,-2.8992141603723667,-4.42511635004189,-2.5940337224383256
1539131213673602,-2.532997634851654,-4.119935912108076,-2.4719615472647547
1539131213689582,-2.9602502479590385,-4.180971999694748,-2.166781109330941
1539131213705563,-2.4719615472647547,-4.486152437628789,-1.4953841458761872
1539131213721544,-0.03051804379333589,-4.669260700389032,-0.5798428320745188
1539131213737525,2.5940337224383256,-4.486152437628789,0.03051804379333589
1539131213753505,3.3875028610666504,-4.058899824521177,0.5188067444876197
1539131213769486,1.6784924086366573,-3.692683299000464,1.1291676203554744
1539131213785467,-1.0070954451819034,-3.875791561760934,1.4953841458761872
1539131213801447,-3.936827649347606,-4.242008087281647,1.5564202334630863
1539131213817428,-5.76791027695117,-3.875791561760934,1.3733119707026162
1539131213833409,-5.828946364538069,-3.692683299000464,1.0681315327688026
1539131213849390,-4.303044174868319,-3.570611123826893,0.7019150072480898
1539131213865370,-1.983672846570471,-3.5095750362402214,0.3967345693140487
1539131213881378,-0.7019150072480898,-3.1433585107195086,-0.15259021896690683
1539131213897359,-1.4953841458761872,-2.4719615472647547,-1.1902037079423735
1539131213913339,-4.180971999694748,-1.9226367589837992,-2.655069810025225
1539131213929320,-4.974441138323073,-1.5564202334630863,-4.058899824521177
1539131213945301,-2.04470893415737,-1.2512397955290453,-4.669260700389032
1539131213961281,2.7161058976118966,-0.5188067444876197,-4.669260700389032
1539131213977262,6.927595941100208,0.5798428320745188,-4.730296787975931
1539131213993243,9.796292057679011,1.6784924086366573,-4.730296787975931
1539131214009224,11.261158159761862,2.227817196917613,-4.60822461280236
1539131214025204,10.467689021133765,1.983672846570471,-3.936827649347606
1539131214041185,7.904173342488775,1.3733119707026162,-3.6316472114137923
1539131214057166,5.523765926604028,0.7019150072480898,-3.3875028610666504
1539131214073146,4.974441138323073,0.09155413138023505,-2.410925459678083
1539131214089127,4.60822461280236,-0.45777065690094787,-1.3733119707026162
1539131214105108,3.5095750362402214,-1.739528496223329,-0.9460593575952316
1539131214121089,3.0823224231326094,-2.8992141603723667,-0.5798428320745188
1539131214137069,3.570611123826893,-4.119935912108076,0.03051804379333589
1539131214153050,3.997863736934505,-5.279621576256886,0.8239871824216607
1539131214169031,2.8992141603723667,-6.134126802471883,1.4953841458761872
1539131214185011,-0.33569848172737693,-6.439307240405924,1.739528496223329
1539131214200988,-4.60822461280236,-6.378271152819025,1.3122758831159445
1539131214216969,-7.354848554207592,-6.439307240405924,0.6408789196611906
1539131214232950,-7.537956816968062,-6.561379415579495,0.2746623941404778
