Timestamp (microseconds),Accel X (g),Accel Y (g),Accel Z (g)
1539731981752868,0.32440680552376566,0.18158236057068766,0.9434348058289466
1539731981768870,0.3239185168230714,0.1843900205996798,0.9427023727779051
1539731981784872,0.3267261768520635,0.18365758754863837,0.9466086823834594
1539731981800873,0.3284351873044935,0.17999542229343124,0.9462424658579387
1539731981816875,0.3220874341954678,0.17962920576791053,0.9459983215075916
1539731981832877,0.3187914854657814,0.18243686579690266,0.9556420233463037
1539731981848878,0.3162279697871364,0.1830472266727705,0.9481956206607158
1539731981864880,0.3179369802395664,0.1864652475776305,0.9423361562523844
1539731981880882,0.3158617532616157,0.18573281452658907,0.9490501258869308
1539731981896884,0.3165941863126571,0.1856107423514155,0.9474631876096744
1539731981912885,0.3162279697871364,0.1852445258258948,0.9448996719310294
1539731981928887,0.3174486915388721,0.18414587624933265,0.9406271457999544
1539731981944889,0.3209887846189057,0.18072785534447267,0.9423361562523844
1539731981960890,0.3179369802395664,0.17877470054169553,0.9452658884565501
1539731981976892,0.31635004196231,0.18109407186999338,0.9481956206607158
1539731981992894,0.3132982375829707,0.1738918135347527,0.9582055390249486
1539731982008895,0.31146715495536714,0.1730373083085377,0.9590600442511636
1539731982024897,0.3125658045319293,0.17669947356374482,0.9557640955214772
1539731982040899,0.3132982375829707,0.18072785534447267,0.9532005798428322
1539731982056901,0.3167162584878307,0.1809719996948198,0.949294270237278
1539731982072906,0.31439688715953285,0.17792019531548053,0.9512474250400551
1539731982088908,0.3153734645609214,0.17743190661478625,0.9532005798428322
1539731982104910,0.3125658045319293,0.18548867017624193,0.950148775463493
1539731982120911,0.3079270618753336,0.18597695887693622,0.9523460746166172
1539731982136913,0.3098802166781107,0.1830472266727705,0.9480735484855423
1539731982152915,0.31061264972915215,0.17901884489204267,0.9411154345006487
1539731982168916,0.30768291752498644,0.17828641184100125,0.9514915693904022
1539731982184918,0.3082932784008543,0.18121614404516695,0.9500267032883194
1539731982200920,0.31024643320363143,0.18414587624933265,0.9496604867627987
1539731982216921,0.3100022888532843,0.17987335011825767,0.9496604867627987
1539731982232923,0.3098802166781107,0.17059586480506628,0.9530785076676587
1539731982248925,0.310368505378805,0.17059586480506628,0.9569848172732129
1539731982264927,0.310368505378805,0.1713282978561077,0.9574731059739072
1539731982280928,0.30926985580224287,0.1721828030823227,0.9575951781490808
1539731982296930,0.3067063401235979,0.17840848401617482,0.9562523842221715
1539731982312932,0.30731670099946573,0.18426794842450622,0.9550316624704358
1539731982328933,0.3125658045319293,0.18719768062867193,0.9547875181200887
1539731982344935,0.3145189593347064,0.18292515449759694,0.9496604867627987
1539731982360937,0.31390859845883856,0.18048371099412552,0.9514915693904022
1539731982376938,0.3167162584878307,0.1759670405127034,0.951857785915923
1539731982392944,0.3179369802395664,0.17145037003128127,0.9483176928358894
1539731982408946,0.3234302281223771,0.15570305943389062,0.9408712901503016
1539731982424947,0.3203784237430378,0.1381246662088964,0.9470969710841537
1539731982440949,0.31354238193331785,0.13458457312886285,0.9627222095063708
1539731982456951,0.3125658045319293,0.13995574883649997,0.9547875181200887
1539731982472952,0.310368505378805,0.13873502708476426,0.950148775463493
1539731982488954,0.3125658045319293,0.13665980010681356,0.9541771572442208
1539731982504956,0.3179369802395664,0.13373006790264785,0.9513694972152287
1539731982520958,0.31635004196231,0.13849088273441712,0.9561303120469979
1539731982536959,0.3174486915388721,0.14410620279240138,0.9579613946746015
1539731982552961,0.31598382543678927,0.14435034714274853,0.9566186007476922
1539731982568963,0.31464103150988,0.14666971847104637,0.9555199511711301
1539731982584964,0.3087815671015486,0.15460440985732848,0.9582055390249486
1539731982600966,0.3087815671015486,0.1587548638132299,0.9582055390249486
1539731982616968,0.3081712062256807,0.15924315251392418,0.9618677042801558
1539731982632969,0.3125658045319293,0.15863279163805633,0.9542992294193944
1539731982648971,0.3162279697871364,0.15887693598840347,0.9436789501792937
1539731982664973,0.3192797741664757,0.15020981155107993,0.951003280689708
1539731982680975,0.3201342793926907,0.14728007934691423,0.9579613946746015
1539731982696976,0.31769283588921926,0.14288548104066567,0.9541771572442208
1539731982713043,0.31561760891126855,0.1222552834363313,0.9568627450980394
1539731982729045,0.3184252689402607,0.10748455024032921,0.9560082398718244
1539731982745046,0.3165941863126571,0.10809491111619707,0.9593041886015108
1539731982761048,0.3175707637140457,0.11261158159761919,0.9628442816815443
1539731982777050,0.31769283588921926,0.11419851987487561,0.9626001373311972
1539731982793051,0.31305409323262356,0.11908140688181845,0.9584496833752958
1539731982809053,0.31061264972915215,0.12372014953841415,0.9606469825284201
1539731982825055,0.3096360723277636,0.12445258258945557,0.9599145494773786
1539731982841056,0.31305409323262356,0.12396429388876129,0.9624780651560236
1539731982857058,0.315495536736095,0.12457465476462914,0.9669947356374458
1539731982873060,0.31732661936369855,0.13556115053025142,0.9578393224994279
1539731982889062,0.31732661936369855,0.12921339742122573,0.9611352712291144
1539731982905063,0.3184252689402607,0.11883726253147131,0.9601586938277258
1539731982921065,0.3170824750133514,0.11834897383077703,0.9577172503242544
1539731982937067,0.31732661936369855,0.1259174486915393,0.9521019302662701
1539731982953068,0.31317616540779714,0.13324177920195357,0.9517357137407494
1539731982969070,0.31891355764095497,0.1272602426184486,0.9579613946746015
1539731982985072,0.32159914549477353,0.11517509727626418,0.9604028381780729
1539731983001073,0.32025635156786425,0.10809491111619707,0.9594262607766844
1539731983017075,0.3125658045319293,0.10370031280994851,0.9643091477836272
1539731983033172,0.31268787670710285,0.10650797283894065,0.9652857251850158
1539731983049174,0.31293202105745,0.11834897383077703,0.9633325703822386
1539731983065177,0.313786526283665,0.12774853131914288,0.9600366216525522
1539731983081179,0.31635004196231,0.12494087129014986,0.9627222095063708
1539731983097181,0.31866941329060783,0.12091248950942202,0.9566186007476922
1539731983113183,0.31818112458991354,0.12005798428320702,0.9558861676966508
1539731983129185,0.31903562981612854,0.12335393301289344,0.9572289616235601
1539731983145187,0.32025635156786425,0.1267719539177543,0.9602807660028994
1539731983161190,0.31976806286716997,0.1276264591439693,0.953566796368353
1539731983177192,0.31561760891126855,0.1318989852750443,0.9563744563973451
1539731983193194,0.3162279697871364,0.13617151140611927,0.9546654459449151
1539731983209196,0.3108567940794993,0.13629358358129284,0.9542992294193944
1539731983225198,0.31354238193331785,0.13531700617990428,0.9512474250400551
1539731983241201,0.31464103150988,0.13482871747921,0.9506370641641873
1539731983257203,0.31525139238574784,0.13714808880750784,0.9528343633173115
1539731983273205,0.31525139238574784,0.135683222705425,0.9556420233463037
1539731983289207,0.3117112993057143,0.13739223315785498,0.9556420233463037
1539731983305209,0.3087815671015486,0.13800259403372284,0.9629663538567179
1539731983321211,0.3074387731746393,0.13202105745021786,0.9626001373311972
1539731983337214,0.3049973296711679,0.11749446860456203,0.9602807660028994
1539731983353302,0.30133516441596075,0.11053635461966849,0.9713893339436943
1539731983369304,0.2985275043869686,0.1231097886625463,0.9766384374761579
1539731983385307,0.30096894789044004,0.14312962539101282,0.9765163653009843
1539731983401310,0.31012436102845786,0.14801251239795565,0.9757839322499429
1539731983417312,0.30511940184634145,0.14764629587243494,0.9833524071107043
1539731983433315,0.30389868009460574,0.15045395590142707,0.9749294270237279
1539731983449318,0.30133516441596075,0.15008773937590636,0.9661402304112308
1539731983465320,0.2990157930876629,0.15387197680628706,0.9638208590829329
1539731983481323,0.2947432669565879,0.15936522468909775,0.9602807660028994
1539731983497326,0.2909590295262072,0.1579003585870149,0.9618677042801558
1539731983513328,0.2973067826352329,0.14520485236896352,0.9613794155794615
1539731983529331,0.30182345311665504,0.13556115053025142,0.9588158999008165
1539731983545333,0.2999923704890515,0.12909132524605216,0.9623559929808501
1539731983561336,0.2964522774090179,0.1267719539177543,0.9573510337987337
1539731983577339,0.30634012359807716,0.12884718089570502,0.9516136415655758
1539731983593341,0.31024643320363143,0.13788052185854927,0.9528343633173115
1539731983609344,0.3241626611734185,0.1591210803387506,0.9268329900053409
1539731983625347,0.34454871442740487,0.14520485236896352,0.9315938048371102
1539731983641349,0.348210879682612,0.10516517891203137,0.9427023727779051
1539731983657352,0.3241626611734185,0.07977416647592861,0.9627222095063708
1539731983673431,0.29413290608072007,0.09637598229953426,0.9699244678416115
1539731983689434,0.2747234302281223,0.1599755855649656,0.9662623025864043
1539731983705436,0.26861982146944374,0.2439612420843824,0.9627222095063708
1539731983721439,0.27826352330815585,0.2948653391317615,0.9469748989089801
1539731983737442,0.2974288548104065,0.27606622415503157,0.9385519188220037
1539731983753444,0.3220874341954678,0.22662699320973534,0.9325703822384988
1539731983769447,0.35004196231021556,0.1931792172121769,0.9303730830853745
1539731983785450,0.3646906233310441,0.1823147936217291,0.9328145265888459
1539731983801452,0.3612726024261841,0.17877470054169553,0.9422140840772109
1539731983817455,0.347356374456397,0.1721828030823227,0.9505149919890137
1539731983833458,0.33795681696803204,0.1687647821774627,0.944167238879988
1539731983849460,0.32074464026855853,0.1730373083085377,0.9418478675516901
1539731983865463,0.30939192797741644,0.17743190661478625,0.9470969710841537
1539731983881466,0.30731670099946573,0.1725490196078434,0.9358663309681852
1539731983897468,0.3263599603265428,0.1734035248340584,0.9379415579461359
1539731983913471,0.32867933165484065,0.20099183642328544,0.9534447241931794
1539731983929474,0.3213550011444264,0.22125581750209822,0.950148775463493
1539731983945476,0.312077515831235,0.2146639200427254,0.9451438162813766
1539731983961479,0.306950484473945,0.1961089494163426,0.9417257953765166
1539731983977481,0.2940108339055465,0.18207064927138195,0.9442893110551616
1539731983993591,0.2890058747234301,0.17413595788509983,0.9488059815365837
1539731984009594,0.28168154421301583,0.17291523613336413,0.9634546425574122
1539731984025597,0.281925688563363,0.17987335011825767,0.9688258182650493
1539731984041600,0.2835126268406194,0.1914702067597469,0.9678492408636608
1539731984057603,0.29169146257724865,0.19830624856946688,0.9647974364843215
1539731984073607,0.30682841229877145,0.19134813458457334,0.9562523842221715
1539731984089610,0.31512932021057427,0.1868314641031512,0.9540550850690472
1539731984105613,0.32062256809338496,0.17352559700923198,0.9513694972152287
1539731984121616,0.3255054551003278,0.17108415350576056,0.9519798580910965
1539731984137619,0.3212329289692528,0.17413595788509983,0.9466086823834594
1539731984153622,0.30768291752498644,0.18536659800106836,0.9568627450980394
1539731984169625,0.3010910200656136,0.19501029983978047,0.9542992294193944
1539731984185629,0.3067063401235979,0.2196688792248418,0.9340352483405816
1539731984201632,0.28961623559929794,0.20148012512397973,0.9485618371862365
1539731984217635,0.3053635461966886,0.17621118486305054,0.9622339208056765
1539731984233638,0.30060273136491933,0.17743190661478625,0.9500267032883194
1539731984249641,0.30853742275120144,0.17730983443961268,0.9456321049820708
1539731984265644,0.29791714351110077,0.1725490196078434,0.9573510337987337
1539731984281647,0.2952315556572822,0.17376974135957912,0.9730983443961243
1539731984297650,0.3067063401235979,0.14544899671931066,0.9801785305561914
1539731984313751,0.31110093842984643,0.15216296635385707,0.9626001373311972
1539731984329754,0.30682841229877145,0.2188143739986268,0.9778591592278936
1539731984345758,0.2981612878614479,0.2048981460288397,0.96748302433814
1539731984361762,0.30304417486839075,0.17315938048371127,0.952712291142138
1539731984377765,0.30804913405050716,0.14044403753719426,0.9546654459449151
1539731984393769,0.3096360723277636,0.11261158159761919,0.9534447241931794
1539731984409772,0.3124437323567557,0.10650797283894065,0.9639429312581065
1539731984425776,0.3222095063706414,0.12652780956740717,0.9546654459449151
1539731984441780,0.33868925001907346,0.15179674982833635,0.9341573205157552
1539731984457783,0.32819104295414636,0.17926298924238981,0.9298847943846802
1539731984473787,0.3209887846189057,0.21661707484550252,0.943312733653773
1539731984489791,0.32074464026855853,0.24505989166094455,0.9317158770122838
1539731984505794,0.3292896925307085,0.23663691157396816,0.9137712672617688
1539731984521798,0.33331807431143634,0.21979095140001537,0.9187762264438852
1539731984537801,0.3390554665445942,0.20807202258335256,0.919996948195621
1539731984553805,0.3351491569390399,0.1943999389639126,0.9353780422674909
1539731984569809,0.3410086213473713,0.1961089494163426,0.9534447241931794
1539731984585812,0.34125276569771845,0.18341344319829123,0.9428244449530787
1539731984601816,0.3402761882963299,0.165835049973297,0.9309834439612423
1539731984617819,0.3432059205004956,0.16302738994430488,0.9411154345006487
1539731984633880,0.3443045700770577,0.15948729686427132,0.9542992294193944
1539731984649884,0.3367360952162963,0.1419089036392771,0.9555199511711301
1539731984665887,0.3477225909819177,0.13995574883649997,0.9468528267338066
1539731984681891,0.3355153734645606,0.15338368810559277,0.9438010223544673
1539731984697895,0.3267261768520635,0.17071793698023985,0.9442893110551616
1539731984713898,0.32111085679407925,0.17376974135957912,0.9521019302662701
1539731984729902,0.3285572594796671,0.1544823376821549,0.9593041886015108
1539731984745906,0.3205004959182114,0.12506294346532432,0.9594262607766844
1539731984761909,0.34125276569771845,0.14752422369726137,0.9353780422674909
1539731984777913,0.3382009613183792,0.13531700617990428,0.9383077744716566
1539731984793916,0.3382009613183792,0.13360799572747428,0.9473411154345008
1539731984809920,0.3497978179598684,0.14288548104066567,0.9331807431143666
1539731984825924,0.3544365606164641,0.13653772793163999,0.9403830014496073
1539731984841927,0.349919890135042,0.12408636606393486,0.9457541771572444
1539731984857931,0.34369420920118987,0.11261158159761919,0.9525902189669644
1539731984873934,0.3363698786907756,0.11248950942244562,0.9584496833752958
1539731984889938,0.33588158999008133,0.12579537651636574,0.9545433737697415
1539731984905942,0.3279468986037992,0.14056610971236783,0.9580834668497751
1539731984921945,0.3277027542534521,0.14728007934691423,0.9579613946746015
1539731984937949,0.32404058899824495,0.14166475928892996,0.9546654459449151
1539731984954040,0.32538338292515423,0.12042420080872773,0.9545433737697415
1539731984970044,0.3309987029831385,0.11187914854657777,0.9562523842221715
1539731984986048,0.3335622186617835,0.11773861295490917,0.9507591363393608
1539731985002052,0.3330739299610892,0.13202105745021786,0.9568627450980394
1539731985018056,0.33783474479285847,0.12616159304188646,0.9573510337987337
1539731985034061,0.34161898222323916,0.11444266422522276,0.9549095902952622
1539731985050065,0.34503700312809915,0.10553139543755208,0.9525902189669644
1539731985066069,0.3486991683833063,0.10345616845960137,0.949294270237278
1539731985082073,0.346501869230182,0.10565346761272565,0.9512474250400551
1539731985098077,0.34637979705500843,0.10980392156862706,0.949294270237278
1539731985114081,0.34125276569771845,0.10736247806515564,0.9522240024414437
1539731985130085,0.3361257343404285,0.09942778667887353,0.955275806820783
1539731985146089,0.33746852826733775,0.0919813839932857,0.9573510337987337
1539731985162093,0.33575951781490776,0.09185931181811213,0.9584496833752958
1539731985178097,0.3389333943694206,0.10052643625543567,0.9532005798428322
1539731985194101,0.3355153734645606,0.11224536507209848,0.9553978789959565
1539731985210106,0.3351491569390399,0.11248950942244562,0.9567406729228658
1539731985226110,0.3327077134355685,0.1050431067368578,0.9588158999008165
1539731985242114,0.3325856412603949,0.10162508583199781,0.9596704051270315
1539731985258118,0.3356374456397342,0.10931563286793278,0.9571068894483865
1539731985274139,0.3368581673914699,0.11883726253147131,0.9538109407187001
1539731985290143,0.33624780651560204,0.11822690165560346,0.9555199511711301
1539731985306147,0.33502708476386633,0.11602960250247918,0.9472190432593273
1539731985322151,0.33197528038452706,0.11114671549553634,0.9503929198138401
1539731985338155,0.33197528038452706,0.0936903944457157,0.9577172503242544
1539731985354159,0.33661402304112276,0.08429083695735073,0.9588158999008165
1539731985370164,0.3360036621652549,0.08038452735179646,0.9530785076676587
1539731985386168,0.33417257953765134,0.08624399176012787,0.9578393224994279
1539731985402172,0.3372243839169906,0.09515526054779855,0.9538109407187001
1539731985418176,0.33795681696803204,0.10260166323338638,0.9500267032883194
1539731985434180,0.3401541161211563,0.09430075532158355,0.9551537346456094
1539731985450184,0.3401541161211563,0.09002822919050857,0.9582055390249486
1539731985466188,0.3390554665445942,0.0919813839932857,0.9568627450980394
1539731985482192,0.3411306935225449,0.09637598229953426,0.9549095902952622
1539731985498196,0.33990997177080917,0.10016021972991496,0.948439765011063
1539731985514200,0.3401541161211563,0.10760662241550278,0.9477073319600215
1539731985530204,0.3373464560921642,0.11358815899900776,0.9495384145876251
1539731985546208,0.33868925001907346,0.10943770504310635,0.9483176928358894
1539731985562213,0.3355153734645606,0.09845120927748496,0.951003280689708
1539731985578217,0.33539330128938705,0.0945448996719307,0.9619897764553293
1539731985594268,0.3360036621652549,0.08880750743877286,0.9573510337987337
1539731985610273,0.33698023956664347,0.0919813839932857,0.9553978789959565
1539731985626278,0.33331807431143634,0.10150301365682424,0.9563744563973451
1539731985642282,0.32990005340657635,0.10467689021133708,0.9644312199588008
1539731985658287,0.33160906385900635,0.10162508583199781,0.9622339208056765
1539731985674291,0.3330739299610892,0.09527733272297212,0.9600366216525522
1539731985690296,0.3334401464866099,0.09503318837262498,0.9605249103532465
1539731985706300,0.3367360952162963,0.0945448996719307,0.9551537346456094
1539731985722305,0.33698023956664347,0.09417868314640998,0.9551537346456094
1539731985738309,0.3355153734645606,0.0936903944457157,0.9541771572442208
1539731985754314,0.33539330128938705,0.09295796139467427,0.9521019302662701
1539731985770319,0.3330739299610892,0.09393453879606284,0.9580834668497751
1539731985786323,0.3342946517128249,0.09820706492713782,0.9542992294193944
1539731985802328,0.33783474479285847,0.0919813839932857,0.9524681467917908
1539731985818332,0.3402761882963299,0.09051651789120285,0.9505149919890137
1539731985834337,0.34088654917219774,0.0974746318760964,0.9506370641641873
1539731985850341,0.33710231174181704,0.09893949797817925,0.9545433737697415
1539731985866346,0.3385671778438999,0.09710841535057568,0.9553978789959565
1539731985882351,0.3385671778438999,0.1024795910582128,0.9517357137407494
1539731985898355,0.3351491569390399,0.11126878767070991,0.9589379720759901
1539731985914428,0.33490501258869276,0.11786068513008274,0.9580834668497751
1539731985930433,0.3377126726176849,0.1117570763714042,0.9574731059739072
1539731985946437,0.3330739299610892,0.09466697184710426,0.9593041886015108
1539731985962442,0.33490501258869276,0.08490119783321859,0.9546654459449151
1539731985978447,0.3346608682383456,0.08917372396429357,0.9578393224994279
1539731985994451,0.3363698786907756,0.09723048752574925,0.9560082398718244
1539731986010456,0.3344167238879985,0.10821698329137064,0.9578393224994279
1539731986026460,0.33405050736247777,0.10638590066376707,0.9593041886015108
1539731986042465,0.3346608682383456,0.1041886015106428,0.955275806820783
1539731986058469,0.33026626993209707,0.10321202410925423,0.9571068894483865
1539731986074474,0.3289234760051878,0.09674219882505497,0.9588158999008165
1539731986090479,0.33197528038452706,0.09161516746776499,0.9546654459449151
1539731986106483,0.3346608682383456,0.09234760051880642,0.9555199511711301
1539731986122488,0.3325856412603949,0.0995498588540471,0.9615014877546351
1539731986138492,0.33246356908522134,0.09808499275196425,0.9568627450980394
1539731986154497,0.33124284733348563,0.09393453879606284,0.954421301594568
1539731986170501,0.3313649195086592,0.09137102311741785,0.9528343633173115
1539731986186506,0.33282978561074206,0.09076066224155,0.9582055390249486
1539731986202510,0.3322194247348742,0.09527733272297212,0.9585717555504694
1539731986218515,0.3346608682383456,0.09405661097123641,0.9560082398718244
1539731986234558,0.3342946517128249,0.0928358892195007,0.9514915693904022
1539731986250563,0.3344167238879985,0.09137102311741785,0.9551537346456094
1539731986266568,0.3363698786907756,0.08831921873807858,0.9503929198138401
1539731986282573,0.3363698786907756,0.08685435263599572,0.952712291142138
1539731986298578,0.3330739299610892,0.08892957961394643,0.9589379720759901
1539731986314583,0.3339284351873042,0.08953994048981428,0.9604028381780729
1539731986330588,0.3317311360341799,0.09442282749675712,0.9530785076676587
1539731986346593,0.33038834210727064,0.09759670405126997,0.9550316624704358
1539731986362598,0.33124284733348563,0.09613183794918712,0.9579613946746015
1539731986378603,0.33405050736247777,0.10101472495612995,0.9582055390249486
1539731986394608,0.33588158999008133,0.09649805447470783,0.9571068894483865
1539731986410613,0.3347829404135192,0.09442282749675712,0.9563744563973451
1539731986426618,0.3351491569390399,0.09735255970092282,0.9547875181200887
1539731986442623,0.32990005340657635,0.09466697184710426,0.9577172503242544
1539731986458628,0.33026626993209707,0.08795300221255786,0.9584496833752958
1539731986474633,0.3292896925307085,0.08343633173113574,0.9516136415655758
1539731986490638,0.32538338292515423,0.08050659952697004,0.9588158999008165
1539731986506643,0.32660410467688994,0.08392462043183002,0.9638208590829329
1539731986522648,0.32697032120241065,0.09430075532158355,0.9577172503242544
1539731986538653,0.3250171663996335,0.0949111161974514,0.9628442816815443
1539731986554718,0.32745860990310494,0.09002822919050857,0.9661402304112308
1539731986570723,0.3292896925307085,0.08563363088426001,0.9647974364843215
1539731986586728,0.3301441977569235,0.08380254825665645,0.9643091477836272
1539731986602733,0.3346608682383456,0.0802624551766229,0.9629663538567179
1539731986618738,0.3335622186617835,0.08978408484016143,0.9643091477836272
1539731986634743,0.33026626993209707,0.09845120927748496,0.9634546425574122
1539731986650748,0.33209735255970063,0.09588769359883997,0.9613794155794615
1539731986666753,0.3330739299610892,0.0831921873807886,0.9566186007476922
1539731986682758,0.3355153734645606,0.07684443427176291,0.9486839093614101
1539731986698763,0.33588158999008133,0.07977416647592861,0.9517357137407494
1539731986714768,0.3317311360341799,0.08538948653391287,0.9532005798428322
1539731986730773,0.32819104295414636,0.08709849698634287,0.9563744563973451
1539731986746778,0.3301441977569235,0.08075074387731718,0.955275806820783
1539731986762783,0.3313649195086592,0.08099488822766432,0.951003280689708
1539731986778788,0.32953383688105564,0.08514534218356573,0.9540550850690472
1539731986794793,0.33026626993209707,0.09137102311741785,0.9564965285725187
1539731986810798,0.3305104142824442,0.09515526054779855,0.9590600442511636
1539731986826803,0.32867933165484065,0.09564354924849283,0.9600366216525522
1539731986842808,0.3285572594796671,0.08929579613946714,0.9605249103532465
1539731986858813,0.3308766308079649,0.08575570305943359,0.9622339208056765
1539731986874847,0.3305104142824442,0.08636606393530144,0.9629663538567179
1539731986890852,0.3317311360341799,0.08929579613946714,0.9641870756084536
1539731986906857,0.3309987029831385,0.09027237354085571,0.9594262607766844
1539731986922862,0.32953383688105564,0.08966201266498786,0.9602807660028994
1539731986938867,0.32745860990310494,0.09222552834363285,0.9595483329518579
1539731986954872,0.3259937438010221,0.09246967269397999,0.9586938277256429
1539731986970877,0.32782482642862565,0.08722056916151644,0.9549095902952622
1539731986986882,0.32867933165484065,0.08160524910353217,0.9530785076676587
1539731987002887,0.32745860990310494,0.07660028992141577,0.9585717555504694
1539731987018892,0.32904554818036136,0.07830930037384576,0.9583276112001222
1539731987034897,0.3308766308079649,0.08465705348287145,0.9561303120469979
1539731987050902,0.3268482490272371,0.09039444571602928,0.9604028381780729
1539731987066908,0.3305104142824442,0.08636606393530144,0.9602807660028994
1539731987082913,0.3309987029831385,0.08160524910353217,0.9568627450980394
1539731987098918,0.3305104142824442,0.07928587777523433,0.9610131990539408
1539731987114923,0.3301441977569235,0.08038452735179646,0.9612573434042879
1539731987130928,0.3288014038300142,0.0794079499504079,0.9590600442511636
1539731987146933,0.3279468986037992,0.08160524910353217,0.9593041886015108
1539731987162938,0.32660410467688994,0.08416876478217716,0.9593041886015108
1539731987178943,0.32440680552376566,0.0764782177462422,0.9617456321049822
1539731987195037,0.3234302281223771,0.07953002212558147,0.9611352712291144
1539731987211043,0.3222095063706414,0.0852674143587393,0.9599145494773786
1539731987227048,0.3250171663996335,0.0823376821545736,0.9629663538567179
1539731987243054,0.3241626611734185,0.08001831082627575,0.9595483329518579
1539731987259060,0.32660410467688994,0.07379262989242363,0.9597924773022051
1539731987275065,0.3267261768520635,0.0747692072938122,0.9646753643091479
1539731987291071,0.32745860990310494,0.07782101167315147,0.96406500343328
1539731987307076,0.33026626993209707,0.07904173342488718,0.9621118486305029
1539731987323082,0.33075455863279135,0.08099488822766432,0.9628442816815443
1539731987339087,0.32941176470588207,0.0785534447241929,0.9680933852140079
1539731987355093,0.32782482642862565,0.07306019684138221,0.9624780651560236
1539731987371098,0.3255054551003278,0.07537956816968006,0.9643091477836272
1539731987387104,0.3277027542534521,0.07635614557106862,0.9595483329518579
1539731987403109,0.3267261768520635,0.07989623865110218,0.9547875181200887
1539731987419115,0.3262378881513692,0.08258182650492074,0.9560082398718244
1539731987435120,0.3255054551003278,0.07806515602349862,0.9558861676966508
1539731987451126,0.32452887769893923,0.07049668116273722,0.9539330128938737
1539731987467131,0.3241626611734185,0.07000839246204293,0.9575951781490808
1539731987483137,0.3258716716258485,0.07232776379034078,0.9591821164263372
1539731987499142,0.32990005340657635,0.07574578469520077,0.9575951781490808
1539731987515167,0.3288014038300142,0.07318226901655578,0.9628442816815443
1539731987531172,0.32831311512931993,0.06549172198062081,0.9665064469367515
1539731987547178,0.3297779812314028,0.06536964980544724,0.9638208590829329
1539731987563183,0.3284351873044935,0.06903181506065437,0.9660181582360572
1539731987579189,0.3280689707789728,0.07672236209658934,0.9663843747615779
1539731987595194,0.3258716716258485,0.0764782177462422,0.9677271686884872
1539731987611200,0.3285572594796671,0.07354848554207649,0.96577401388571
1539731987627205,0.3270923933775842,0.07086289768825793,0.9633325703822386
1539731987643211,0.32904554818036136,0.0718394750896465,0.9584496833752958
1539731987659217,0.32574959945067494,0.0701304646372165,0.9561303120469979
1539731987675222,0.32745860990310494,0.0680552376592658,0.9558861676966508
1539731987691228,0.3267261768520635,0.07049668116273722,0.9560082398718244
1539731987707233,0.3285572594796671,0.07147325856412579,0.9546654459449151
1539731987723239,0.3267261768520635,0.06866559853513365,0.9550316624704358
1539731987739244,0.3262378881513692,0.06732280460822437,0.9597924773022051
1539731987755250,0.32452887769893923,0.07611200122072148,0.9639429312581065
1539731987771255,0.32697032120241065,0.07586785687037434,0.9663843747615779
1539731987787261,0.32526131074998066,0.06475928892957938,0.96748302433814
1539731987803266,0.3288014038300142,0.06060883497367797,0.9749294270237279
1539731987819272,0.3309987029831385,0.05157549401083372,0.9793240253299764
1539731987835296,0.3344167238879985,0.036438544289310926,0.9849393453879607
1539731987851302,0.33710231174181704,0.031189440756847375,0.9860379949645228
1539731987867307,0.33881132219424703,0.03936827649347663,0.9706569008926529
1539731987883313,0.3427176317998013,0.05523765926604085,0.9502708476386665
1539731987899318,0.3377126726176849,0.053772793163958,0.9621118486305029
1539731987915324,0.33917753871976775,0.046692607003890885,0.9542992294193944
1539731987931329,0.3327077134355685,0.046570534828717314,0.9582055390249486
1539731987947335,0.3296559090562292,0.05548180361638799,0.9617456321049822
1539731987963340,0.3330739299610892,0.06451514457923224,0.9466086823834594
1539731987979346,0.3289234760051878,0.058289463645380124,0.9477073319600215
1539731987995351,0.33453879606317205,0.04876783398184159,0.9489280537117573
1539731988011357,0.3347829404135192,0.04754711223010588,0.9494163424124515
1539731988027362,0.34723430228122343,0.055848020141908705,0.9528343633173115
1539731988043368,0.3573662928206298,0.06036469062333083,0.9488059815365837
1539731988059373,0.36054016937514266,0.06695658808270366,0.9457541771572444
1539731988075379,0.3595635919737541,0.07415884641794435,0.942458228427558
1539731988091385,0.36151674677653123,0.07000839246204293,0.9469748989089801
1539731988107390,0.3570000762951091,0.07135118638895221,0.9422140840772109
1539731988123396,0.3532158388647284,0.09015030136568214,0.9409933623254751
1539731988139401,0.34418249790188415,0.09808499275196425,0.9522240024414437
1539731988155426,0.35553521019302625,0.10553139543755208,0.9536888685435265
1539731988171432,0.34674601358052914,0.11285572594796633,0.9462424658579387
1539731988187438,0.34296177615014845,0.11017013809414777,0.9394064240482187
1539731988203444,0.34369420920118987,0.11163500419623062,0.9395284962233923
1539731988219450,0.3460135805294877,0.11200122072175134,0.930495155260548
1539731988235456,0.349065384908827,0.11419851987487561,0.9541771572442208
1539731988251462,0.34467078660257844,0.10724040588998207,0.9577172503242544
1539731988267468,0.35004196231021556,0.07611200122072148,0.9557640955214772
1539731988283474,0.3535820553902491,0.03460746166170736,0.9584496833752958
1539731988299480,0.35382619974059626,0.013366903181506018,0.9663843747615779
1539731988315486,0.35419241626611697,0.04742504005493231,0.9593041886015108
1539731988331492,0.3385671778438999,0.08502327000839216,0.9651636530098422
1539731988347498,0.33331807431143634,0.07452506294346506,0.9684596017395286
1539731988363504,0.3322194247348742,0.04351873044937804,0.9595483329518579
1539731988379510,0.3368581673914699,0.026916914625772392,0.9594262607766844
1539731988395516,0.3414969100480656,0.024719615472648115,0.9596704051270315
1539731988411522,0.3444266422522313,0.03045700770580595,0.9593041886015108
1539731988427528,0.3419851987487599,0.045349813076981604,0.9542992294193944
1539731988443534,0.3440604257267106,0.06707866025787723,0.9502708476386665
1539731988459540,0.3392996108949413,0.07721065079728362,0.9540550850690472
1539731988475555,0.3443045700770577,0.05767910276951227,0.9557640955214772
1539731988491561,0.33783474479285847,0.053162432288090145,0.9676050965133136
1539731988507567,0.34210727092393345,0.03216601815823594,0.9503929198138401
1539731988523573,0.34345006485084273,0.015320057984283153,0.9580834668497751
1539731988539579,0.342229343099107,0.031189440756847375,0.9541771572442208
1539731988555585,0.3342946517128249,0.058411535820553695,0.9607690547035936
1539731988571591,0.33746852826733775,0.06536964980544724,0.9641870756084536
1539731988587597,0.34088654917219774,0.05426108186465228,0.9616235599298086
1539731988603603,0.341374837872892,0.04718089570458517,0.9541771572442208
1539731988619609,0.34345006485084273,0.04376287479972518,0.9618677042801558
1539731988635615,0.347356374456397,0.04351873044937804,0.9658960860608836
1539731988651621,0.34845502403295914,0.04180971999694805,0.9584496833752958
1539731988667627,0.3452811474784463,0.03472953383688093,0.9597924773022051
1539731988683633,0.345647364003967,0.03997863736934448,0.9545433737697415
1539731988699639,0.343938353551537,0.05474937056534657,0.9568627450980394
1539731988715645,0.34711223010604986,0.07306019684138221,0.9466086823834594
1539731988731651,0.34552529182879343,0.09393453879606284,0.9517357137407494
1539731988747657,0.33160906385900635,0.09930571450369996,0.9635767147325858
1539731988763663,0.32367437247272424,0.07000839246204293,0.9716334782940415
1539731988779669,0.3250171663996335,0.03460746166170736,0.9766384374761579
1539731988795715,0.32953383688105564,0.023254749370565264,0.9696803234912643
1539731988811721,0.3309987029831385,0.04986648355840373,0.9607690547035936
1539731988827727,0.32819104295414636,0.09027237354085571,0.9574731059739072
1539731988843733,0.32733653772793136,0.1205462729839013,0.9558861676966508
1539731988859739,0.32660410467688994,0.10089265278095638,0.9558861676966508
1539731988875745,0.3297779812314028,0.05023270008392444,0.9582055390249486
1539731988891751,0.33453879606317205,0.02154573891813527,0.9561303120469979
1539731988907757,0.3373464560921642,0.027283131151293105,0.9636987869077593
1539731988923763,0.34088654917219774,0.05389486533913157,0.9561303120469979
1539731988939769,0.34540321965361986,0.06976424811169579,0.9584496833752958
1539731988955775,0.34247348744945416,0.054627298390172996,0.9655298695353629
1539731988971781,0.34552529182879343,0.02667277027542525,0.9778591592278936
1539731988987787,0.3460135805294877,0.021179522392614558,0.9757839322499429
1539731989003793,0.34760051880674414,0.042786297398336615,0.9622339208056765
1539731989019799,0.3466239414053556,0.08368047608148288,0.9436789501792937
1539731989035805,0.3344167238879985,0.1167620355535206,0.9431906614785994
1539731989051811,0.3246509498741128,0.1259174486915393,0.9613794155794615
1539731989067817,0.33319600213626277,0.11017013809414777,0.9582055390249486
1539731989083823,0.34369420920118987,0.08001831082627575,0.9551537346456094
1539731989099829,0.3611505302510105,0.05914396887159512,0.9408712901503016
1539731989115844,0.3532158388647284,0.060852979324025114,0.936476691844053
1539731989131850,0.34930952925917413,0.0642710002288851,0.9464866102082858
1539731989147856,0.34760051880674414,0.06439307240405867,0.9468528267338066
1539731989163862,0.3489433127336534,0.059876401922636546,0.9485618371862365
1539731989179868,0.3519951171129927,0.060852979324025114,0.9444113832303351
1539731989195874,0.34930952925917413,0.062317845426107965,0.9623559929808501
1539731989211880,0.35968566414892766,0.07440299076829149,0.9619897764553293
1539731989227886,0.36054016937514266,0.0802624551766229,0.953566796368353
1539731989243892,0.3519951171129927,0.06939803158617508,0.96748302433814
1539731989259898,0.3389333943694206,0.06317235065232296,0.9809109636072328
1539731989275904,0.3385671778438999,0.06402685587853796,0.98628213931487
1539731989291910,0.34174105439841274,0.08270389868009431,0.9748073548485543
1539731989307916,0.3347829404135192,0.09552147707331926,0.9585717555504694
1539731989323922,0.3251392385748071,0.09088273441672357,0.9831082627603571
1539731989339928,0.33588158999008133,0.07953002212558147,1.0082551308461127
1539731989355934,0.345647364003967,0.06781109330891866,1.0359655146105133
1539731989371940,0.35309376668955483,0.07415884641794435,1.0203402761882963
1539731989387946,0.3817807278553449,0.06793316548409223,0.9741969939726864
1539731989403952,0.39411001754787556,0.0039673456931410556,0.9861600671396964
1539731989419958,0.4408636606393532,0.024841687647821686,1.169756618600748
1539731989436004,0.4444037537193868,0.0014038300144960658,1.3940032043945987
1539731989452010,0.4796826123445488,-0.038757915617608774,1.574303807125963
1539731989468016,0.4984817273212787,-0.07086289768825837,1.664148928053712
1539731989484022,0.4745555809872588,-0.1106584267948425,1.632043945983063
1539731989500028,0.4498970016021975,-0.11004806591897465,1.4965438315403983
1539731989516034,0.42853437094682256,-0.11517509727626463,1.3068436713206681
1539731989532040,0.36017395284962195,-0.11004806591897465,1.1148241397726402
1539731989548046,0.30182345311665504,-0.10174715800717182,0.9474631876096744
1539731989564052,0.2675211718928816,-0.06549172198062125,0.8205081254291597
1539731989580058,0.2305333028152896,-0.05267414358739586,0.7456778820477608
1539731989596064,0.21173418783855968,-0.032532234683756656,0.6870832379644467
1539731989612070,0.1893949797817962,-0.013488975356679589,0.6431372549019612
1539731989628076,0.16510261692225559,0.0016479743648432077,0.6654764629587246
1539731989644082,0.1663233386739913,0.024963759822995257,0.680735484855421
1539731989660088,0.1289692530708786,0.03839169909208806,0.6868390936140996
1539731989676094,0.09637598229953426,0.049500267032883016,0.6561989776455333
1539731989692100,0.0806286717021436,0.0764782177462422,0.6195773250934611
1539731989708106,0.0575570305943387,0.09259174486915356,0.5912565804531926
1539731989724112,0.029846646829938095,0.11859311818112417,0.5480430304417485
1539731989740118,0.0026245517662317752,0.14264133669031853,0.4833447775997559
1539731989756134,-0.024475471122300974,0.16913099870298343,0.4199893186846726
1539731989772140,-0.024597543297474544,0.18316929884794408,0.37531090257114563
1539731989788146,-0.013488975356679589,0.1952544441901276,0.3205004959182114
1539731989804152,0.013000686655985305,0.21051346608682397,0.23639276722362101
1539731989820158,0.05474937056534657,0.1948882276646069,0.042908369573510186
1539731989836164,0.1088273441672385,0.1730373083085377,-0.3345387960631725
1539731989852170,0.21075761043717112,0.09271381704432713,-0.7754634927901121
1539731989868176,0.4507515068284125,-0.02532997634851597,-1.07173266193637
1539731989884182,0.8848401617456325,-0.033630884260318794,-0.9137712672617684
1539731989900188,1.4403906309605556,-0.018493934538795997,-0.21478599221789896
1539731989916194,-0.08856336308842616,0.07953002212558147,4.0
1539731989932200,0.47650873579003594,-0.42743572137026,1.1326466773479824
1539731989948206,0.3952086671244377,0.41266498817425834,0.1671778439002063
1539731989964212,0.5617151140611885,0.3642023346303498,1.7735255970092316
1539731989980218,0.5485313191424428,-0.05267414358739586,1.673548485542077
1539731989996224,0.5475547417410542,0.18658731975280407,1.5201037613488975
1539731990012230,0.6018768596932933,-0.0037232013427939137,1.4632181277180134
1539731990028236,0.5648889906157013,-0.18487830930037363,1.2729076066224154
1539731990044242,0.4779736018921188,-0.21441977569237824,0.9579613946746015
1539731990060248,0.39411001754787556,-0.1957427328908219,0.679880979629206
1539731990076294,0.32611581597619566,-0.11810482948043033,0.4973830777447166
1539731990092300,0.2907148851758601,-0.03326466773479808,0.3934996566720077
1539731990108307,0.26825360494392303,0.042908369573510186,0.3607843137254898
1539731990124313,0.24750133516441597,0.08368047608148288,0.39667353322652055
1539731990140319,0.2533607995727474,0.1214007782101163,0.4829785610742352
1539731990156326,0.269108110170138,0.1477683680476085,0.5925993743801019
1539731990172332,0.26813153276874946,0.15167467765316278,0.6959945067521174
1539731990188339,0.2752117189288166,0.13824673838406998,0.7906004425116349
1539731990204345,0.28912794689860366,0.12103456168459559,0.8583504997329667
1539731990220352,0.2962081330586708,0.08978408484016143,0.9213397421225302
1539731990236358,0.29974822613870433,0.07318226901655578,0.9626001373311972
1539731990252365,0.3012130922407872,0.060852979324025114,1.0100862134737163
1539731990268371,0.3192797741664757,0.0613412680247194,1.0519569695582511
1539731990284378,0.32867933165484065,0.06829938200961294,1.081010147249561
1539731990300384,0.3342946517128249,0.08136110475318503,1.0769817654688332
1539731990316391,0.3280689707789728,0.0756237125200272,1.0564736400396733
1539731990332397,0.3209887846189057,0.07794308384832505,1.0136263065537499
1539731990348404,0.31903562981612854,0.07782101167315147,0.99140917067216
1539731990364410,0.32269779507133567,0.07122911421377864,0.9818875410086214
1539731990380416,0.3338063630121306,0.07806515602349862,0.9673609521629665
1539731990396453,0.33881132219424703,0.07318226901655578,0.9479514763103687
1539731990412460,0.3346608682383456,0.06854352635996008,0.9378194857709623
1539731990428466,0.34039826047150346,0.08075074387731718,0.9320820935378045
1539731990444473,0.3497978179598684,0.07904173342488718,0.9298847943846802
1539731990460479,0.35126268406195127,0.07306019684138221,0.9176775768673231
1539731990476486,0.35004196231021556,0.06012054627298369,0.9127946898603803
1539731990492492,0.3600518806744484,0.04315251392385733,0.9181658655680174
1539731990508499,0.37030594338902834,0.03460746166170736,0.9280537117570766
1539731990524505,0.3747005416952769,0.04180971999694805,0.933058670939193
1539731990540512,0.37360189211871475,0.03997863736934448,0.9340352483405816
1539731990556518,0.37994964522774133,0.05108720531013944,0.9353780422674909
1539731990572525,0.3867856870374613,0.06463721675440581,0.9529564354924851
1539731990588531,0.3947203784237434,0.07757686732280433,0.9687037460898758
1539731990604538,0.4019226367589841,0.09356832227054213,0.9727321278706036
1539731990620544,0.3994811932555127,0.10150301365682424,0.9650415808346686
1539731990636551,0.39618524452582626,0.11102464332036277,0.9573510337987337
1539731990652557,0.3902037079423213,0.12127870603494273,0.9488059815365837
1539731990668563,0.3955748836499584,0.12603952086671288,0.9279316395819031
1539731990684570,0.3919127183947513,0.1222552834363313,0.9062027924010074
1539731990700576,0.39716182192721483,0.13311970702678,1.3289387350270845
1539731990716583,0.3707942320897226,0.09466697184710426,1.0650186923018232
1539731990732589,0.3738460364690619,0.06414892805371153,0.7764400701915006
1539731990748596,0.39618524452582626,0.0365606164644845,0.8609140154116117
1539731990764602,0.3986266880292977,0.03533989471274879,1.024979018844892
1539731990780609,0.39069199664301557,0.06866559853513365,0.9478294041351951
1539731990796615,0.39032578011749486,0.08343633173113574,0.9066910811017017
1539731990812622,0.38947127489127986,0.08978408484016143,0.9511253528648815
1539731990828628,0.38702983138780844,0.0852674143587393,0.9477073319600215
1539731990844635,0.37531090257114563,0.0756237125200272,0.9315938048371102
1539731990860641,0.37116044861524333,0.08331425955596217,0.9485618371862365
1539731990876648,0.36981765468833405,0.08770885786221072,0.9647974364843215
1539731990892654,0.3700617990386812,0.07989623865110218,0.9599145494773786
1539731990908661,0.3704280155642019,0.07330434119172935,0.9516136415655758
1539731990924667,0.3747005416952769,0.08099488822766432,0.9442893110551616
1539731990940673,0.3770199130235756,0.09295796139467427,0.9486839093614101
1539731990956680,0.38532082093537845,0.09478904402227784,0.9513694972152287
1539731990972686,0.38776226443884987,0.08636606393530144,0.9553978789959565
1539731990988693,0.40045777065690125,0.08355840390630931,0.9422140840772109
1539731991004699,0.3938658731975284,0.09039444571602928,0.9195086594949267
1539731991020706,0.39288929579613985,0.11615167467765275,0.9031509880216682
1539731991036743,0.37824063477531134,0.130556191348135,0.8988784618905932
1539731991052749,0.3554131380178527,0.12982375829709358,0.9198748760204474
1539731991068756,0.3477225909819177,0.12384222171358772,0.933058670939193
1539731991084762,0.3692072938124662,0.1109025711451892,0.9218280308232245
1539731991100769,0.36603341725795335,0.10443274586098994,0.9479514763103687
1539731991116775,0.36859693293659834,0.10479896238651065,0.9699244678416115
1539731991132782,0.3667658503089948,0.0718394750896465,0.985427634088655
1539731991148788,0.38239108873121275,0.03472953383688093,0.9921416037232014
1539731991164795,0.38568703746089916,0.026306553749904538,0.9707789730678265
1539731991180801,0.3851987487602049,0.057312886243991557,0.954421301594568
1539731991196807,0.38483253223468417,0.11969176775768631,0.9239032578011752
1539731991212814,0.3754329747463192,0.170962081330587,0.9101091020065617
1539731991228820,0.3650568398565648,0.17157244220645484,0.9173113603418024
1539731991244827,0.36102845807583694,0.15521477073319634,0.9208514534218359
1539731991260833,0.349919890135042,0.14691386282139351,0.9376974135957887
1539731991276840,0.34467078660257844,0.1465476462958728,0.9601586938277258
1539731991292846,0.34503700312809915,0.13128862439917643,0.9668726634622722
1539731991308853,0.3506523231860834,0.11749446860456203,0.9704127565423057
1539731991324859,0.3557793545433734,0.12103456168459559,0.9583276112001222
1539731991340866,0.3604180971999691,0.13080033569848215,0.9445334554055087
1539731991356872,0.36810864423590406,0.13934538796063212,0.9372091248950944
1539731991372879,0.37616540779736063,0.14300755321583924,0.9363546196688795
1539731991388885,0.3792172121766999,0.13800259403372284,0.9403830014496073
1539731991404892,0.38397802700846917,0.12701609826810145,0.9472190432593273
1539731991420898,0.386297398336767,0.12066834515907487,0.9328145265888459
1539731991436905,0.38153658350499775,0.11602960250247918,0.9251239795529109
1539731991452911,0.3704280155642019,0.12176699473563701,0.919996948195621
1539731991468917,0.3587090867475391,0.1394674601358057,0.9180437933928438
1539731991484924,0.35419241626611697,0.1541161211566342,0.9215838864728774
1539731991500930,0.35004196231021556,0.15350576028076635,0.935622186617838
1539731991516937,0.35297169451438126,0.13580529488059856,0.9455100328068973
1539731991532943,0.3549248493171584,0.11749446860456203,0.9542992294193944
1539731991548950,0.3600518806744484,0.10223544670786566,0.9556420233463037
1539731991564956,0.3695735103379869,0.09918364232852639,0.9561303120469979
1539731991580963,0.3766536964980549,0.1146868085755699,0.946730754558633
1539731991596969,0.3831235217822542,0.12579537651636574,0.9352559700923173
1539731991612976,0.38825055313954415,0.1281147478446636,0.9440451667048144
1539731991628982,0.3883726253147177,0.12542915999084503,0.9429465171282523
1539731991644989,0.38495460440985774,0.12079041733424845,0.9279316395819031
1539731991660995,0.37604333562218706,0.12579537651636574,0.9270771343556881
1539731991677032,0.3653009842069119,0.13141069657435,0.928786144808118
1539731991693039,0.3566338597695884,0.12970168612192,0.9285420004577709
1539731991709045,0.3535820553902491,0.1289692530708786,0.9355001144426645
1539731991725052,0.34833295185778557,0.13141069657435,0.9456321049820708
1539731991741058,0.34467078660257844,0.13214312962539143,0.9546654459449151
1539731991757064,0.3511406118867777,0.12774853131914288,0.9494163424124515
1539731991773071,0.3566338597695884,0.11639581902799989,0.9474631876096744
1539731991789077,0.36444647898069693,0.10699626153963493,0.951003280689708
1539731991805084,0.3683527885862512,0.10638590066376707,0.9464866102082858
1539731991821090,0.36896314946211906,0.11602960250247918,0.9496604867627987
1539731991837097,0.37238117036697904,0.12249942778667844,0.9513694972152287
1539731991853103,0.37445639734492975,0.1214007782101163,0.9522240024414437
1539731991869110,0.37274738689249975,0.12188906691081058,0.9394064240482187
1539731991885116,0.37116044861524333,0.12481879911497629,0.9293965056839859
1539731991901123,0.3646906233310441,0.12262149996185201,0.9380636301213094
1539731991917129,0.3620050354772255,0.12506294346532432,0.938185702296483
1539731991933136,0.35883115892271267,0.12445258258945557,0.9344014648661023
1539731991949142,0.35968566414892766,0.1176165407797356,0.9340352483405816
1539731991965149,0.35419241626611697,0.11566338597695847,0.942458228427558
1539731991981155,0.3527275501640341,0.12005798428320702,0.9528343633173115
1539731991997161,0.35309376668955483,0.11493095292591704,0.9549095902952622
1539731992013168,0.3604180971999691,0.11309987029831348,0.9495384145876251
1539731992029174,0.3612726024261841,0.11480888075074347,0.9453879606317237
1539731992045181,0.3640802624551762,0.11627374685282632,0.9499046311131458
1539731992061187,0.3714045929655905,0.11248950942244562,0.9438010223544673
1539731992077194,0.37103837644006976,0.10907148851758564,0.9391622796978716
1539731992093200,0.37103837644006976,0.10748455024032921,0.9392843518730452
1539731992109207,0.3717708094911112,0.1088273441672385,0.9363546196688795
1539731992125213,0.37018387121385476,0.10968184939345349,0.9345235370412759
1539731992141220,0.3640802624551762,0.11053635461966849,0.9403830014496073
1539731992157226,0.36395819028000265,0.11651789120317346,0.9394064240482187
1539731992173233,0.36224917982757265,0.11700617990386775,0.9387960631723509
1539731992189239,0.36310368505378765,0.11248950942244562,0.9405050736247809
1539731992205246,0.3590753032730598,0.10675211718928779,0.9451438162813766
1539731992221252,0.36139467460135766,0.10284580758373352,0.9485618371862365
1539731992237259,0.3637140459296555,0.09698634317540211,0.9491721980621044
1539731992253265,0.3633478294041348,0.09906157015335282,0.9560082398718244
1539731992269271,0.36566720073243264,0.09918364232852639,0.9547875181200887
1539731992285278,0.36359197375448193,0.09906157015335282,0.9538109407187001
1539731992301284,0.3687190051117719,0.0995498588540471,0.9485618371862365
1539731992317321,0.37116044861524333,0.09796292057679068,0.940749217975128
1539731992333328,0.37018387121385476,0.09625391012436069,0.941603723201343
1539731992349335,0.3705500877393755,0.09417868314640998,0.9402609292744337
1539731992365342,0.3683527885862512,0.09381246662088927,0.936476691844053
1539731992381349,0.36273746852826694,0.10614175631341993,0.9383077744716566
1539731992397356,0.3585870145723655,0.11212329289692491,0.9336690318150609
1539731992413363,0.3566338597695884,0.10516517891203137,0.936476691844053
1539731992429370,0.3544365606164641,0.08905165178912,0.9461203936827651
1539731992445377,0.35980773632410123,0.08355840390630931,0.9439230945296408
1539731992461384,0.3607843137254898,0.07208361943999364,0.9392843518730452
1539731992477391,0.3624933241779198,0.06793316548409223,0.946730754558633
1539731992493398,0.3646906233310441,0.07452506294346506,0.9540550850690472
1539731992509405,0.3623712520027462,0.08111696040283789,0.9611352712291144
1539731992525412,0.36639963378347407,0.07928587777523433,0.9538109407187001
1539731992541419,0.3640802624551762,0.07489127946898577,0.954421301594568
1539731992557426,0.3645685511558705,0.08282597085526788,0.9568627450980394
1539731992573433,0.36359197375448193,0.08648813611047501,0.945876249332418
1539731992589439,0.36176089112687837,0.088197146562905,0.9461203936827651
1539731992605446,0.35968566414892766,0.09259174486915356,0.9477073319600215
1539731992621453,0.3600518806744484,0.10614175631341993,0.9464866102082858
1539731992637451,0.3587090867475391,0.09979400320439424,0.9435568780041201
1539731992653458,0.35980773632410123,0.08172732127870574,0.9439230945296408
1539731992669465,0.35773250934615053,0.07403677424277078,0.9499046311131458
1539731992685472,0.35773250934615053,0.07782101167315147,0.9470969710841537
1539731992701479,0.3595635919737541,0.08587777523460716,0.9472190432593273
1539731992717486,0.3611505302510105,0.09100480659189714,0.9478294041351951
1539731992733492,0.36725413900968906,0.09076066224155,0.9370870527199209
1539731992749499,0.36432440680552336,0.08673228046082215,0.9411154345006487
1539731992765506,0.3590753032730598,0.08856336308842572,0.9394064240482187
1539731992781513,0.35724422064545625,0.08563363088426001,0.9488059815365837
1539731992797520,0.35980773632410123,0.08734264133669001,0.9499046311131458
1539731992813527,0.3587090867475391,0.09771877622644354,0.9422140840772109
1539731992829534,0.3607843137254898,0.10748455024032921,0.9462424658579387
1539731992845541,0.3595635919737541,0.11163500419623062,0.9474631876096744
1539731992861548,0.36017395284962195,0.10650797283894065,0.949294270237278
1539731992877555,0.3649347676813912,0.07928587777523433,0.9575951781490808
1539731992893562,0.3690852216372926,0.057312886243991557,0.9567406729228658
1539731992909569,0.37445639734492975,0.08416876478217716,0.9385519188220037
1539731992925576,0.36725413900968906,0.13531700617990428,0.9344014648661023
1539731992941583,0.3646906233310441,0.1474021515220878,0.9362325474937059
1539731992957611,0.35980773632410123,0.12457465476462914,0.9400167849240866
1539731992973618,0.3565117875944148,0.09271381704432713,0.9445334554055087
1539731992989625,0.35504692149233197,0.07623407339589505,0.9502708476386665
1539731993005632,0.3548027771419848,0.08978408484016143,0.9512474250400551
1539731993021638,0.3561455710688941,0.11395437552452847,0.9444113832303351
1539731993037645,0.3545586327916377,0.13299763485160643,0.9436789501792937
1539731993053652,0.35797665369649767,0.12494087129014986,0.9420920119020373
1539731993069659,0.3574883649958034,0.09979400320439424,0.9497825589379723
1539731993085666,0.36224917982757265,0.08184939345387932,0.9539330128938737
1539731993101673,0.3650568398565648,0.09185931181811213,0.9468528267338066
1539731993117680,0.3657892729076062,0.12567330434119217,0.9470969710841537
1539731993133687,0.36810864423590406,0.14557106889448423,0.9397726405737394
1539731993149694,0.3659113450827798,0.13592736705577213,0.9394064240482187
1539731993165701,0.36896314946211906,0.11786068513008274,0.9379415579461359
1539731993181708,0.3667658503089948,0.0986953536278321,0.9464866102082858
1539731993197715,0.36774242771038335,0.08953994048981428,0.9491721980621044
1539731993213722,0.3670099946593419,0.09881742580300568,0.9452658884565501
1539731993229729,0.3621271076523991,0.1205462729839013,0.9405050736247809
1539731993245736,0.36102845807583694,0.13311970702678,0.9385519188220037
1539731993261743,0.36139467460135766,0.12359807736324058,0.9375753414206152
1539731993277771,0.3609063859006634,0.09893949797817925,0.9376974135957887
1539731993293778,0.3595635919737541,0.09002822919050857,0.9468528267338066
1539731993309785,0.3582207980468448,0.1062638284885935,0.944167238879988
1539731993325791,0.3565117875944148,0.12994583047226715,0.9442893110551616
1539731993341798,0.3565117875944148,0.13507286182955713,0.9489280537117573
1539731993357805,0.35687800411993553,0.11432059205004919,0.9497825589379723
1539731993373812,0.36066224155031623,0.09308003356984784,0.9470969710841537
1539731993389819,0.3666437781338212,0.09588769359883997,0.9395284962233923
1539731993405826,0.36346990157930836,0.11725032425421489,0.9384298466468302
1539731993421833,0.36151674677653123,0.13324177920195357,0.936476691844053
1539731993437840,0.36359197375448193,0.1267719539177543,0.9379415579461359
1539731993453847,0.3657892729076062,0.0986953536278321,0.9481956206607158
1539731993469854,0.3671320668345155,0.08172732127870574,0.9459983215075916
1539731993485861,0.36481269550621764,0.09918364232852639,0.9455100328068973
1539731993501868,0.36310368505378765,0.12335393301289344,0.9425803006027316
1539731993517875,0.3633478294041348,0.12713817044327502,0.940749217975128
1539731993533882,0.36432440680552336,0.12420843823910843,0.9420920119020373
1539731993549889,0.3602960250247955,0.11395437552452847,0.9490501258869308
1539731993565896,0.3573662928206298,0.10516517891203137,0.9589379720759901
1539731993581903,0.3578545815213241,0.11346608682383419,0.9516136415655758
1539731993597900,0.3573662928206298,0.11981383993285988,0.9473411154345008
1539731993613907,0.35809872587167124,0.12164492256046344,0.9447775997558558
1539731993629914,0.3585870145723655,0.11224536507209848,0.9440451667048144
1539731993645921,0.3632257572289612,0.1079728389410235,0.9472190432593273
1539731993661928,0.3645685511558705,0.1129777981231399,0.9418478675516901
1539731993677935,0.36432440680552336,0.10638590066376707,0.9435568780041201
1539731993693942,0.36517891203173836,0.10492103456168422,0.9400167849240866
1539731993709949,0.3638361181048291,0.11749446860456203,0.9345235370412759
1539731993725956,0.3623712520027462,0.12420843823910843,0.9374532692454416
1539731993741963,0.3629816128786141,0.124330510414282,0.9436789501792937
1539731993757969,0.35809872587167124,0.1091935606927592,0.9474631876096744
1539731993773976,0.35895323109788624,0.09527733272297212,0.9512474250400551
1539731993789983,0.35638971541924125,0.1050431067368578,0.9453879606317237
1539731993805990,0.3571221484702827,0.11895933470664488,0.9496604867627987
1539731993821997,0.35968566414892766,0.12335393301289344,0.9479514763103687
1539731993838004,0.36102845807583694,0.12286564431219915,0.945876249332418
1539731993854011,0.3607843137254898,0.11322194247348705,0.9472190432593273
1539731993870018,0.3623712520027462,0.10675211718928779,0.9463645380331123
1539731993886025,0.3666437781338212,0.1117570763714042,0.9372091248950944
1539731993902032,0.3649347676813912,0.12042420080872773,0.9383077744716566
1539731993918060,0.3657892729076062,0.12787060349431645,0.934767681391623
1539731993934067,0.36603341725795335,0.13141069657435,0.9413595788509959
1539731993950074,0.3667658503089948,0.12738231479362216,0.9358663309681852
1539731993966081,0.3621271076523991,0.11688410772869418,0.9400167849240866
1539731993982088,0.3620050354772255,0.11273365377279276,0.9395284962233923
1539731993998095,0.3659113450827798,0.12787060349431645,0.9362325474937059
1539731994014102,0.3616388189517048,0.1369039444571607,0.939040207522698
1539731994030109,0.3585870145723655,0.13177691309987072,0.9406271457999544
1539731994046116,0.35761043717097696,0.12384222171358772,0.9453879606317237
1539731994062122,0.3571221484702827,0.12274357213702558,0.9480735484855423
1539731994078129,0.35773250934615053,0.12506294346532432,0.9479514763103687
1539731994094136,0.3602960250247955,0.12860303654535787,0.9452658884565501
1539731994110143,0.3640802624551762,0.12323186083771986,0.942458228427558
1539731994126150,0.3620050354772255,0.12091248950942202,0.9387960631723509
1539731994142157,0.35968566414892766,0.12481879911497629,0.9385519188220037
1539731994158164,0.35980773632410123,0.12457465476462914,0.9372091248950944
1539731994174171,0.36273746852826694,0.12079041733424845,0.9395284962233923
1539731994190178,0.3633478294041348,0.12323186083771986,0.9473411154345008
1539731994206185,0.3632257572289612,0.12860303654535787,0.9456321049820708
1539731994222192,0.3628595407034405,0.132265201800565,0.941603723201343
1539731994238189,0.3604180971999691,0.1360494392309457,0.9423361562523844
1539731994254196,0.36054016937514266,0.13238727397573857,0.9409933623254751
1539731994270203,0.36017395284962195,0.12713817044327502,0.9451438162813766
1539731994286210,0.3590753032730598,0.12603952086671288,0.9486839093614101
1539731994302217,0.35724422064545625,0.130556191348135,0.9461203936827651
1539731994318224,0.3570000762951091,0.13177691309987072,0.9461203936827651
1539731994334231,0.3557793545433734,0.1284809643701843,0.9462424658579387
1539731994350238,0.3554131380178527,0.12542915999084503,0.9387960631723509
1539731994366245,0.3616388189517048,0.1310444800488293,0.9320820935378045
1539731994382252,0.3670099946593419,0.13641565575646641,0.9281757839322502
1539731994398259,0.36945143816281334,0.13446250095368928,0.9317158770122838
1539731994414266,0.3678644998855569,0.1293354695963993,0.9451438162813766
1539731994430273,0.36945143816281334,0.12384222171358772,0.9422140840772109
1539731994446280,0.3709163042648962,0.12152285038528987,0.9440451667048144
1539731994462287,0.36725413900968906,0.12384222171358772,0.9394064240482187
1539731994478294,0.3637140459296555,0.13360799572747428,0.9385519188220037
1539731994494300,0.3566338597695884,0.1372701609826814,0.9417257953765166
1539731994510307,0.3548027771419848,0.13739223315785498,0.945021744106203
1539731994526314,0.3544365606164641,0.13275349050125929,0.9462424658579387
1539731994542321,0.35345998321507555,0.124330510414282,0.9506370641641873
1539731994558349,0.3548027771419848,0.11444266422522276,0.954421301594568
1539731994574356,0.3583428702220184,0.11456473640039633,0.945021744106203
1539731994590363,0.3561455710688941,0.1231097886625463,0.941603723201343
1539731994606370,0.3562676432440677,0.12860303654535787,0.9470969710841537
1539731994622377,0.35980773632410123,0.1214007782101163,0.9412375066758223
1539731994638384,0.3602960250247955,0.11834897383077703,0.9414816510261694
1539731994654391,0.35968566414892766,0.12262149996185201,0.9436789501792937
1539731994670398,0.3604180971999691,0.13470664530403642,0.939894712748913
1539731994686405,0.3594415197985805,0.13849088273441712,0.9431906614785994
1539731994702412,0.3585870145723655,0.1406881818875414,0.9380636301213094
1539731994718419,0.3574883649958034,0.13849088273441712,0.9431906614785994
1539731994734426,0.3566338597695884,0.13739223315785498,0.9439230945296408
1539731994750433,0.35773250934615053,0.14117647058823568,0.9405050736247809
1539731994766440,0.3591973754482334,0.1432516975661864,0.944167238879988
1539731994782446,0.35846494239719195,0.13665980010681356,0.940749217975128
1539731994798453,0.3604180971999691,0.13324177920195357,0.9446555275806823
1539731994814460,0.3537041275654227,0.13702601663233427,0.9411154345006487
1539731994830467,0.3565117875944148,0.12957961394674644,0.9396505683985659
1539731994846474,0.36139467460135766,0.1259174486915393,0.9418478675516901
1539731994862481,0.3583428702220184,0.11566338597695847,0.9464866102082858
1539731994878479,0.36261539635309337,0.10211337453269209,0.9440451667048144
1539731994894486,0.35980773632410123,0.1062638284885935,0.9414816510261694
1539731994910493,0.35724422064545625,0.11969176775768631,0.9459983215075916
1539731994926499,0.35553521019302625,0.13165484092469715,0.945876249332418
1539731994942506,0.3565117875944148,0.12823682001983716,0.9434348058289466
1539731994958513,0.3574883649958034,0.1267719539177543,0.940749217975128
1539731994974520,0.3583428702220184,0.13641565575646641,0.9457541771572444
1539731994990527,0.352483405813687,0.14227512016479782,0.9455100328068973
1539731995006534,0.348210879682612,0.13763637750820212,0.9473411154345008
1539731995022541,0.3549248493171584,0.12628366521706003,0.945021744106203
1539731995038548,0.35504692149233197,0.13311970702678,0.9428244449530787
1539731995054555,0.35297169451438126,0.1439841306172278,0.9422140840772109
1539731995070562,0.3540703440909434,0.13739223315785498,0.9453879606317237
1539731995086569,0.35638971541924125,0.13360799572747428,0.9409933623254751
1539731995102576,0.3565117875944148,0.13934538796063212,0.9435568780041201
1539731995118583,0.3574883649958034,0.13763637750820212,0.9464866102082858
1539731995134590,0.3604180971999691,0.1284809643701843,0.939040207522698
1539731995150597,0.36017395284962195,0.12689402609292788,0.939040207522698
1539731995166604,0.36224917982757265,0.1406881818875414,0.9386739909971773
1539731995182611,0.35638971541924125,0.14349584191653353,0.9395284962233923
1539731995198639,0.3548027771419848,0.13934538796063212,0.9400167849240866
1539731995214645,0.3565117875944148,0.13495078965438356,0.9379415579461359
1539731995230652,0.35602349889372054,0.13763637750820212,0.940749217975128
1539731995246659,0.35175097276264555,0.1419089036392771,0.9453879606317237
1539731995262666,0.3527275501640341,0.13788052185854927,0.942458228427558
1539731995278673,0.3519951171129927,0.1334859235523007,0.9459983215075916
1539731995294680,0.3561455710688941,0.13214312962539143,0.945876249332418
1539731995310687,0.3557793545433734,0.1318989852750443,0.9461203936827651
1539731995326694,0.35724422064545625,0.13385214007782142,0.9442893110551616
1539731995342701,0.35468070496681126,0.13971160448615283,0.944167238879988
1539731995358708,0.3561455710688941,0.1398336766613264,0.9448996719310294
1539731995374715,0.3599298084992748,0.13678187228198713,0.939040207522698
1539731995390722,0.3590753032730598,0.14044403753719426,0.9363546196688795
1539731995406729,0.35675593194476196,0.1491111619745178,0.9353780422674909
1539731995422736,0.35089646753643056,0.14874494544899708,0.9375753414206152
1539731995438743,0.34882124055847985,0.14691386282139351,0.9369649805447473
1539731995454750,0.350774395361257,0.13665980010681356,0.9397726405737394
1539731995470757,0.3519951171129927,0.11517509727626418,0.951003280689708
1539731995486764,0.35431448844129054,0.09845120927748496,0.9517357137407494
1539731995502771,0.35260547798886055,0.10443274586098994,0.9533226520180058
1539731995518768,0.35260547798886055,0.12188906691081058,0.9496604867627987
1539731995534775,0.3486991683833063,0.13263141832608571,0.9488059815365837
1539731995550782,0.34918745708400056,0.12909132524605216,0.947585259784848
1539731995566789,0.3519951171129927,0.1214007782101163,0.9479514763103687
1539731995582796,0.35211718928816627,0.12152285038528987,0.9483176928358894
1539731995598803,0.3556572823681998,0.12359807736324058,0.9459983215075916
1539731995614810,0.3570000762951091,0.1289692530708786,0.9444113832303351
1539731995630817,0.35724422064545625,0.13214312962539143,0.9402609292744337
1539731995646824,0.35602349889372054,0.130556191348135,0.9474631876096744
1539731995662830,0.35468070496681126,0.13165484092469715,0.9403830014496073
1539731995678837,0.352483405813687,0.13409628442816857,0.9446555275806823
1539731995694844,0.35126268406195127,0.13934538796063212,0.9428244449530787
1539731995710851,0.3486991683833063,0.14605935759517852,0.945876249332418
1539731995726858,0.34711223010604986,0.14142061493858282,0.9486839093614101
1539731995742865,0.34845502403295914,0.13116655222400286,0.9497825589379723
1539731995758872,0.350774395361257,0.12701609826810145,0.9466086823834594
1539731995774879,0.3497978179598684,0.12970168612192,0.9485618371862365
1539731995790886,0.3518730449378191,0.1289692530708786,0.9408712901503016
1539731995806893,0.3511406118867777,0.12494087129014986,0.9394064240482187
1539731995822900,0.35468070496681126,0.1284809643701843,0.9434348058289466
1539731995838928,0.3571221484702827,0.13092240787365572,0.9425803006027316
1539731995854935,0.3594415197985805,0.13287556267643286,0.9401388570992602
1539731995870942,0.3602960250247955,0.13202105745021786,0.9396505683985659
1539731995886949,0.35846494239719195,0.12994583047226715,0.9431906614785994
1539731995902956,0.3565117875944148,0.13678187228198713,0.9446555275806823
1539731995918963,0.35504692149233197,0.14312962539101282,0.9405050736247809
1539731995934970,0.35004196231021556,0.14166475928892996,0.9438010223544673
1539731995950976,0.3486991683833063,0.1301899748226143,0.9464866102082858
1539731995966983,0.3480888075074384,0.12787060349431645,0.944167238879988
1539731995982990,0.34711223010604986,0.13373006790264785,0.9442893110551616
1539731995998997,0.34747844663157057,0.13836881055924355,0.9436789501792937
1539731996015004,0.3461356527046613,0.13409628442816857,0.9466086823834594
1539731996031011,0.34833295185778557,0.12384222171358772,0.9528343633173115
1539731996047018,0.353337911039902,0.12384222171358772,0.9464866102082858
1539731996063025,0.3537041275654227,0.13128862439917643,0.9430685893034259
1539731996079032,0.3544365606164641,0.13995574883649997,0.9431906614785994
1539731996095039,0.35211718928816627,0.1415426871137564,0.9485618371862365
1539731996111046,0.3518730449378191,0.13458457312886285,0.9490501258869308
1539731996127053,0.3523613336385134,0.13495078965438356,0.9412375066758223
1539731996143060,0.3532158388647284,0.14093232623788854,0.9374532692454416
1539731996159057,0.35126268406195127,0.1436179140917071,0.9438010223544673
1539731996175064,0.3554131380178527,0.1394674601358057,0.9422140840772109
1539731996191071,0.35126268406195127,0.1318989852750443,0.9417257953765166
1539731996207078,0.35004196231021556,0.12713817044327502,0.9469748989089801
1539731996223085,0.34845502403295914,0.1205462729839013,0.9514915693904022
1539731996239092,0.34796673533226485,0.11871519035629774,0.9538109407187001
1539731996255099,0.34930952925917413,0.12445258258945557,0.947585259784848
1539731996271106,0.35138475623712484,0.12957961394674644,0.9428244449530787
1539731996287113,0.3511406118867777,0.13446250095368928,0.9395284962233923
1539731996303120,0.35419241626611697,0.133974212252995,0.9422140840772109
1539731996319127,0.35419241626611697,0.12970168612192,0.9391622796978716
1539731996335134,0.35419241626611697,0.12579537651636574,0.9480735484855423
1539731996351141,0.3532158388647284,0.13080033569848215,0.9477073319600215
1539731996367148,0.3502861066605627,0.13580529488059856,0.9464866102082858
1539731996383154,0.3537041275654227,0.13665980010681356,0.9446555275806823
1539731996399161,0.35516899366750554,0.12835889219501073,0.9396505683985659
1539731996415168,0.3532158388647284,0.12005798428320702,0.9445334554055087
1539731996431175,0.352483405813687,0.1193255512321656,0.9480735484855423
1539731996447182,0.35126268406195127,0.11627374685282632,0.9497825589379723
1539731996463189,0.352483405813687,0.12127870603494273,0.9495384145876251
1539731996479217,0.3502861066605627,0.12286564431219915,0.952712291142138
1539731996495224,0.347356374456397,0.1222552834363313,0.949294270237278
1539731996511231,0.34625772487983486,0.1205462729839013,0.9505149919890137
1539731996527238,0.34760051880674414,0.12359807736324058,0.9478294041351951
1539731996543245,0.34882124055847985,0.12799267566949002,0.9435568780041201
1539731996559252,0.34967574578469485,0.12957961394674644,0.9469748989089801
1539731996575259,0.35138475623712484,0.1259174486915393,0.9462424658579387
1539731996591266,0.35138475623712484,0.12042420080872773,0.9481956206607158
1539731996607273,0.3537041275654227,0.12323186083771986,0.9464866102082858
1539731996623280,0.3548027771419848,0.1259174486915393,0.9420920119020373
1539731996639287,0.35394827191576983,0.12274357213702558,0.9413595788509959
1539731996655294,0.35553521019302625,0.11920347905699202,0.9439230945296408
1539731996671301,0.3549248493171584,0.11773861295490917,0.944167238879988
1539731996687307,0.35089646753643056,0.1184710460059506,0.9474631876096744
1539731996703314,0.348210879682612,0.11627374685282632,0.9512474250400551
1539731996719321,0.34503700312809915,0.11419851987487561,0.9481956206607158
1539731996735328,0.3384451056687263,0.11615167467765275,0.9556420233463037
1539731996751335,0.34418249790188415,0.11688410772869418,0.9536888685435265
1539731996767342,0.3478446631570913,0.11639581902799989,0.9521019302662701
1539731996783349,0.34967574578469485,0.11725032425421489,0.9503929198138401
1539731996799377,0.3537041275654227,0.11895933470664488,0.9461203936827651
1539731996815384,0.3590753032730598,0.11859311818112417,0.945021744106203
1539731996831391,0.35602349889372054,0.11651789120317346,0.942458228427558
1539731996847398,0.3557793545433734,0.11663996337834703,0.9414816510261694
1539731996863405,0.35590142671854696,0.11505302510109061,0.9414816510261694
1539731996879412,0.35638971541924125,0.11309987029831348,0.944167238879988
1539731996895419,0.3557793545433734,0.11248950942244562,0.9445334554055087
1539731996911426,0.3532158388647284,0.11139085984588348,0.9500267032883194
1539731996927433,0.3518730449378191,0.11078049897001563,0.9477073319600215
1539731996943440,0.3511406118867777,0.11126878767070991,0.9452658884565501
1539731996959447,0.35138475623712484,0.11151293202105705,0.9489280537117573
1539731996975453,0.3506523231860834,0.11444266422522276,0.9490501258869308
1539731996991460,0.3497978179598684,0.11700617990386775,0.9499046311131458
1539731997007467,0.35175097276264555,0.12201113908598415,0.9452658884565501
1539731997023474,0.3480888075074384,0.12262149996185201,0.945876249332418
1539731997039481,0.3485770962081327,0.11529716945143775,0.950148775463493
1539731997055488,0.34796673533226485,0.10907148851758564,0.9477073319600215
1539731997071495,0.346501869230182,0.10528725108720494,0.9530785076676587
1539731997087502,0.3486991683833063,0.1146868085755699,0.952712291142138
1539731997103509,0.3486991683833063,0.12152285038528987,0.9474631876096744
1539731997119506,0.3477225909819177,0.12213321126115773,0.9500267032883194
1539731997135513,0.3494316014343477,0.124330510414282,0.951857785915923
1539731997151520,0.352483405813687,0.12274357213702558,0.9511253528648815
1539731997167527,0.3537041275654227,0.11444266422522276,0.9519798580910965
1539731997183534,0.3527275501640341,0.11224536507209848,0.9477073319600215
1539731997199541,0.35260547798886055,0.11822690165560346,0.9461203936827651
1539731997215548,0.3528496223392077,0.1255512321660186,0.9519798580910965
1539731997231555,0.34796673533226485,0.1259174486915393,0.9481956206607158
1539731997247562,0.3451590753032727,0.12188906691081058,0.9514915693904022
1539731997263569,0.3443045700770577,0.11712825207904132,0.9566186007476922
1539731997279576,0.34369420920118987,0.11639581902799989,0.9523460746166172
1539731997295583,0.3423514152742806,0.11261158159761919,0.9522240024414437
1539731997311590,0.3452811474784463,0.11200122072175134,0.9494163424124515
1539731997327597,0.3477225909819177,0.11480888075074347,0.9455100328068973
1539731997343604,0.3510185397116041,0.11187914854657777,0.9481956206607158
1539731997359611,0.35223926146333984,0.10577553978789922,0.944167238879988
1539731997375618,0.35260547798886055,0.10260166323338638,0.9469748989089801
1539731997391625,0.3523613336385134,0.10492103456168422,0.9474631876096744
1539731997407631,0.351628900587472,0.11102464332036277,0.9486839093614101
1539731997423638,0.35138475623712484,0.1167620355535206,0.9463645380331123
1539731997439666,0.35419241626611697,0.11944762340733917,0.943312733653773
1539731997455673,0.3545586327916377,0.12091248950942202,0.9434348058289466
1539731997471680,0.35394827191576983,0.12127870603494273,0.9434348058289466
1539731997487687,0.34930952925917413,0.12396429388876129,0.9442893110551616
1539731997503694,0.348210879682612,0.12701609826810145,0.9462424658579387
1539731997519701,0.3457694361791406,0.12628366521706003,0.947585259784848
1539731997535708,0.34760051880674414,0.12005798428320702,0.9532005798428322
1539731997551715,0.34589150835431415,0.11273365377279276,0.9530785076676587
1539731997567722,0.34918745708400056,0.10858319981689135,0.9546654459449151
1539731997583729,0.34918745708400056,0.10589761196307279,0.9522240024414437
1539731997599736,0.3504081788357363,0.1071183337148085,0.9430685893034259
1539731997615743,0.3506523231860834,0.10943770504310635,0.9363546196688795
1539731997631750,0.346501869230182,0.12335393301289344,0.9397726405737394
1539731997647757,0.34589150835431415,0.13153276874952358,0.9497825589379723
1539731997663764,0.3486991683833063,0.1293354695963993,0.9497825589379723
1539731997679771,0.349919890135042,0.11944762340733917,0.9496604867627987
1539731997695778,0.349065384908827,0.12286564431219915,0.9502708476386665
1539731997711784,0.3489433127336534,0.12835889219501073,0.9500267032883194
1539731997727791,0.35297169451438126,0.12872510872053144,0.9401388570992602
1539731997743798,0.35504692149233197,0.12201113908598415,0.934767681391623
1539731997759796,0.35724422064545625,0.11371023117418133,0.9403830014496073
1539731997775803,0.35504692149233197,0.11944762340733917,0.949294270237278
1539731997791810,0.3504081788357363,0.12860303654535787,0.9512474250400551
1539731997807817,0.3495536736095213,0.13543907835507785,0.9470969710841537
1539731997823824,0.35089646753643056,0.13531700617990428,0.9417257953765166
1539731997839831,0.352483405813687,0.12945754177157287,0.9391622796978716
1539731997855837,0.35297169451438126,0.12262149996185201,0.9448996719310294
1539731997871844,0.352483405813687,0.12005798428320702,0.945021744106203
1539731997887851,0.35004196231021556,0.12542915999084503,0.9419699397268637
1539731997903858,0.34930952925917413,0.12652780956740717,0.9508812085145344
1539731997919865,0.350774395361257,0.1255512321660186,0.9513694972152287
1539731997935872,0.3515068284122984,0.12396429388876129,0.9496604867627987
1539731997951879,0.3486991683833063,0.1193255512321656,0.9468528267338066
1539731997967886,0.34552529182879343,0.1167620355535206,0.9522240024414437
1539731997983893,0.3489433127336534,0.11517509727626418,0.954421301594568
1539731997999900,0.3519951171129927,0.12091248950942202,0.9496604867627987
1539731998015907,0.34381628137636344,0.124330510414282,0.9488059815365837
1539731998031914,0.34003204394598274,0.11663996337834703,0.9486839093614101
1539731998047921,0.3394216830701149,0.10858319981689135,0.9517357137407494
1539731998063928,0.342229343099107,0.11834897383077703,0.9523460746166172
1539731998079956,0.34418249790188415,0.13458457312886285,0.9491721980621044
1539731998095963,0.3451590753032727,0.13299763485160643,0.9489280537117573
1539731998111970,0.3469901579308763,0.12323186083771986,0.9485618371862365
1539731998127977,0.35016403448538913,0.11456473640039633,0.9508812085145344
1539731998143983,0.347356374456397,0.10577553978789922,0.9540550850690472
1539731998159990,0.3457694361791406,0.10455481803616351,0.9564965285725187
1539731998175997,0.3461356527046613,0.1129777981231399,0.9549095902952622
1539731998192004,0.34882124055847985,0.11993591210803345,0.9528343633173115
1539731998208011,0.3532158388647284,0.11602960250247918,0.9524681467917908
1539731998224018,0.3518730449378191,0.10846112764171778,0.970046540016785
1539731998240025,0.342229343099107,0.09857328145265853,1.0094758525978484
1539731998256032,0.3401541161211563,0.11346608682383419,1.029251544975967
1539731998272039,0.33917753871976775,0.13934538796063212,1.0058136873426413
1539731998288046,0.343083848325322,0.16302738994430488,0.9987335011825742
1539731998304053,0.3478446631570913,0.14679179064621994,1.053421835660334
1539731998320060,0.33246356908522134,0.10357824063477494,1.1846494239719236
1539731998336067,0.43915465018692323,0.13446250095368928,1.1601129167620359
1539731998352074,0.5000686655985351,-0.04596017395284946,1.5271839475089646
1539731998368081,0.5331502250705729,0.0015259021896696368,1.8056305790798808
1539731998384088,0.5491416800183107,0.029724574654764524,1.9328297856107426
1539731998400085,0.5705043106736856,0.053284504463263715,1.9253833829251548
1539731998416092,0.5679407949950406,0.06842145418478651,1.8330968184939342
1539731998432099,0.5796597238117034,0.06378271152819082,1.63228809033341
1539731998448106,0.5340047302967879,0.06182955672541368,1.3672693980315858
1539731998464113,0.44782177462424677,0.05499351491569371,1.1129930571450366
1539731998480120,0.3770199130235756,0.031189440756847375,0.8739757381551838
1539731998496127,0.30353246356908503,0.03839169909208806,0.6814679179064624
1539731998512134,0.22577248798352034,0.03692683299000521,0.544502937361715
1539731998528141,0.1713282978561077,0.04644846265354374,0.45001907377737105
1539731998544148,0.12664988174258074,0.0634164950026701,0.3460135805294877
1539731998560155,0.057190814068817986,0.06866559853513365,0.25262836652170595
1539731998576161,0.009582665751125319,0.0756237125200272,0.17828641184100125
1539731998592168,-0.0026245517662317752,0.09332417792019498,0.11248950942244562
1539731998608175,-0.00836194399938961,0.10211337453269209,0.06903181506065437
1539731998624182,-0.022034027618829555,0.11053635461966849,-0.010193026626993174
1539731998640189,-0.042786297398336615,0.08673228046082215,-0.11627374685282676
1539731998656196,-0.053040360112916574,0.08465705348287145,-0.1867093919279772
1539731998672203,-0.0071412222476539,0.08856336308842572,-0.20306706340123615
1539731998688210,0.07208361943999364,0.12359807736324058,-0.22235446707866036
1539731998704217,0.16131837949187489,0.17608911268787697,-0.281071183337148
1539731998720245,0.2998702983138779,0.24628061341268026,-0.41290913252460504
1539731998736252,0.520576791027695,0.2990157930876629,-0.5633020523384453
1539731998752259,0.8139162279697869,0.4356145571068897,-0.7472648203250172
1539731998768266,1.2333562218661784,0.4831006332494088,-0.7860837720302127
1539731998784273,1.7055313954375526,0.5110551613641565,-0.47602044708934166
1539731998800280,0.5519493400473028,-4.0,4.0
1539731998816287,0.22223239490348679,-0.9575951781490808,3.3389791714351107
1539731998832294,0.6341039139391169,-0.9267109178301669,0.2456702525368124
1539731998848301,0.4959182116426337,-0.4362249179827571,2.332127870603494
1539731998864308,0.38410009918364274,0.062317845426107965,1.1994201571679257
1539731998880314,0.5022659647516594,-0.05816739147020655,0.8601815823605703
1539731998896321,0.51972228580148,0.12774853131914288,1.0304722667277026
1539731998912328,0.6028534370946819,0.22992294193942175,1.211261158159762
1539731998928335,0.573800259403372,0.2754558632791637,1.2622873273823147
1539731998944342,0.5067826352330815,0.25006485084306096,1.1308155947203788
1539731998960349,0.4446478980697339,0.21734950789654395,0.9300068665598538
1539731998976356,0.3805600061036092,0.1629053177691313,0.7299305714503701
1539731998992363,0.3309987029831385,0.11114671549553634,0.5442587930113678
1539731999008370,0.24689097428854812,0.07794308384832505,0.40717174029144765
1539731999024377,0.2138094148165104,0.07733272297245719,0.35638971541924125
1539731999040374,0.2246738384069582,0.0966201266498814,0.3876401922636763
1539731999056381,0.25604638742656594,0.1222552834363313,0.4733348592355231
1539731999072388,0.27032883192187374,0.13751430533302855,0.5537804226749063
1539731999088395,0.2897383077744715,0.14007782101167354,0.6631570916304268
1539731999104402,0.3162279697871364,0.13873502708476426,0.7635004196231021
1539731999120409,0.346501869230182,0.12176699473563701,0.8679942015716788
1539731999136416,0.3783627069504849,0.10431067368581637,0.9507591363393608
1539731999152423,0.3913023575188834,0.07403677424277078,0.9977569237811856
1539731999168430,0.38397802700846917,0.06695658808270366,1.029251544975967
1539731999184437,0.39716182192721483,0.07428091859311792,1.0421911955443655
1539731999200444,0.40119020370794267,0.08514534218356573,1.0573281452658883
1539731999216451,0.4026550698100255,0.09478904402227784,1.0537880521858547
1539731999232458,0.40289921416037267,0.09112687876707071,1.0523231860837718
1539731999248465,0.4060730907148855,0.09259174486915356,1.031204699778744
1539731999264472,0.4026550698100255,0.09503318837262498,1.00337224383917
1539731999280479,0.3898374914168006,0.11053635461966849,0.9784695201037614
1539731999296486,0.38568703746089916,0.13080033569848215,0.9605249103532465
1539731999312492,0.3860532539864199,0.14386205844205424,0.9494163424124515
1539731999328499,0.38617532616159345,0.14435034714274853,0.9539330128938737
1539731999344506,0.3947203784237434,0.1436179140917071,0.955275806820783
1539731999360534,0.39789425497825626,0.13592736705577213,0.9668726634622722
1539731999376541,0.3976501106279091,0.14264133669031853,0.9722438391699093
1539731999392548,0.40961318379491907,0.14850080109864994,0.9677271686884872
1539731999408555,0.41351949340047334,0.15277332722972492,0.9369649805447473
1539731999424562,0.40473029678797623,0.1494773785000385,0.8919203479056996
1539731999440569,0.40204470893415767,0.1436179140917071,0.8473640039673453
1539731999456576,0.4069275959411005,0.1394674601358057,0.8460212100404361
1539731999472583,0.424139772640574,0.1637598229953463,1.356404974441138
1539731999488590,0.38446631570916345,0.14312962539101282,1.0148470283054856
1539731999504597,0.4160830090791183,0.08880750743877286,0.8273441672388797
1539731999520604,0.41474021515220905,0.06182955672541368,0.9773708705271993
1539731999536611,0.4195010299839783,0.07464713511863863,0.9678492408636608
1539731999552618,0.42230869001297044,0.10760662241550278,0.8587167162584874
1539731999568625,0.422430762188144,0.1281147478446636,0.8487067978942546
1539731999584632,0.4212100404364083,0.13495078965438356,0.8529793240253296
1539731999600638,0.420721751735714,0.15570305943389062,0.840650034332799
1539731999616645,0.41901274128328403,0.1742580300602734,0.8720225833524067
1539731999632652,0.40924696726939835,0.1680323491264213,0.9378194857709623
1539731999648659,0.40839246204318336,0.14984359502555922,0.9472190432593273
1539731999664666,0.4074158846417948,0.12176699473563701,0.9447775997558558
1539731999680694,0.40253299763485195,0.08514534218356573,0.9812771801327536
1539731999696702,0.39716182192721483,0.0806286717021436,0.9892118715190357
1539731999712709,0.393133440146487,0.10772869459067635,0.9662623025864043
1539731999728716,0.39069199664301557,0.13043411917296144,0.9342793926909287
1539731999744724,0.3964293888761734,0.13824673838406998,0.9022964827954532
1539731999760731,0.39996948195620696,0.14471656366826924,0.8910658426794846
1539731999776739,0.40546272983901765,0.14508278019378995,0.8957045853360803
1539731999792746,0.4010681315327691,0.13653772793163999,0.9040054932478832
1539731999808754,0.3998474097810334,0.13934538796063212,0.9146257724879838
1539731999824761,0.40595101853971194,0.13836881055924355,0.9147478446631574
1539731999840768,0.40973525597009264,0.1389791714351114,0.9130388342107274
1539731999856776,0.4094911116197455,0.14715800717174066,0.9253681239032581
1539731999872783,0.41644922560463904,0.1491111619745178,0.9329365987640195
1539731999888791,0.42059967956054045,0.1544823376821549,0.9226825360494395
1539731999904798,0.422430762188144,0.15899900816357704,0.9153582055390252
1539731999920806,0.4157167925535976,0.1544823376821549,0.9184100099183645
1539731999936813,0.4115663385976962,0.14605935759517852,0.9204852368963152
1539731999952820,0.41058976119630763,0.13739223315785498,0.9212176699473567
1539731999968828,0.4061951628900591,0.12713817044327502,0.9167009994659345
1539731999984835,0.4027771419851991,0.11151293202105705,0.9160906385900667
1539732000000824,0.3795834287022206,0.10516517891203137,0.9263447013046466
1539732000016831,0.37311360341802047,0.11114671549553634,0.9406271457999544
1539732000032837,0.3659113450827798,0.11712825207904132,0.9431906614785994
1539732000048844,0.3621271076523991,0.11871519035629774,0.9448996719310294
1539732000064851,0.3632257572289612,0.1222552834363313,0.9488059815365837
1539732000080858,0.37152666514076405,0.130556191348135,0.9436789501792937
1539732000096865,0.37494468604562403,0.12884718089570502,0.9402609292744337
1539732000112872,0.38739604791332916,0.1251850156404979,0.9365987640192266
1539732000128879,0.39423208972304913,0.12616159304188646,0.9268329900053409
1539732000144886,0.39703974975204126,0.12335393301289344,0.9229266803997866
1539732000160893,0.39838254367895054,0.1293354695963993,0.9357442587930116
1539732000176900,0.3960631723506527,0.14459449149309567,0.9279316395819031
1539732000192907,0.39581902800030555,0.15167467765316278,0.9246356908522166
1539732000208914,0.388860914015412,0.15472648203250206,0.9308613717860688
1539732000224921,0.38580910963607273,0.15716792553597347,0.9362325474937059
1539732000240928,0.3843442435339899,0.1579003585870149,0.9263447013046466
1539732000256935,0.3783627069504849,0.1541161211566342,0.929640650034333
1539732000272942,0.37811856260013776,0.15045395590142707,0.9329365987640195
1539732000288949,0.38324559395742774,0.14850080109864994,0.9348897535667966
1539732000304956,0.3850766765850313,0.15765621423666776,0.9292744335088123
1539732000320984,0.3805600061036092,0.1654688334477763,0.9278095674067295
1539732000336991,0.38153658350499775,0.16485847257190844,0.9275654230563823
1539732000352998,0.38324559395742774,0.15765621423666776,0.9271992065308616
1539732000369006,0.38666361486228773,0.1444724193179221,0.9328145265888459
1539732000385013,0.3881284809643706,0.13800259403372284,0.9308613717860688
1539732000401021,0.3883726253147177,0.1334859235523007,0.9326924544136723
1539732000417028,0.3902037079423213,0.12982375829709358,0.9346456092164495
1539732000433035,0.395696955825132,0.13580529488059856,0.9314717326619366
1539732000449043,0.3892271305409327,0.1453269245441371,0.9197528038452738
1539732000465050,0.38397802700846917,0.15728999771114704,0.9225604638742659
1539732000481058,0.37726405737392277,0.15863279163805633,0.9331807431143666
1539732000497065,0.3624933241779198,0.1394674601358057,0.9428244449530787
1539732000513073,0.3612726024261841,0.11688410772869418,0.9368429083695737
1539732000529080,0.36188296330205194,0.09759670405126997,0.9389181353475244
1539732000545087,0.3712825207904169,0.0945448996719307,0.9391622796978716
1539732000561095,0.3855649652857256,0.1033340962844278,0.9258564126039524
1539732000577102,0.38788433661402344,0.12188906691081058,0.9221942473487452
1539732000593110,0.3927672236209663,0.14129854276340925,0.9241474021515224
1539732000609117,0.39716182192721483,0.13971160448615283,0.9259784847791259
1539732000625125,0.3964293888761734,0.12506294346532432,0.9329365987640195
1539732000641113,0.3913023575188834,0.11334401464866062,0.9397726405737394
1539732000657120,0.38825055313954415,0.11798275730525631,0.9406271457999544
1539732000673127,0.3804379339284356,0.13141069657435,0.9396505683985659
1539732000689134,0.3797055008773942,0.14642557412069923,0.936476691844053
1539732000705141,0.3742122529945826,0.14789044022278208,0.9358663309681852
1539732000721148,0.37409018081940903,0.14373998626688067,0.9341573205157552
1539732000737155,0.37201495384145833,0.14642557412069923,0.9326924544136723
1539732000753162,0.37323567559319404,0.15680170901045276,0.9290302891584652
1539732000769168,0.3745784695201033,0.1596093690394449,0.9317158770122838
1539732000785175,0.3784847791256585,0.13934538796063212,0.9303730830853745
1539732000801182,0.37824063477531134,0.13629358358129284,0.9352559700923173
1539732000817189,0.3792172121766999,0.13141069657435,0.9329365987640195
1539732000833196,0.3778744182497906,0.13580529488059856,0.9337911039902345
1539732000849203,0.37152666514076405,0.1453269245441371,0.9408712901503016
1539732000865210,0.37274738689249975,0.15680170901045276,0.9335469596398873
1539732000881217,0.36639963378347407,0.16437018387121416,0.937331197070268
1539732000897224,0.36737621118486263,0.16327153429465202,0.9429465171282523
1539732000913231,0.36945143816281334,0.15741206988632062,0.9351338979171437
1539732000929238,0.37201495384145833,0.15545891508354348,0.9357442587930116
1539732000945245,0.37531090257114563,0.1553368429083699,0.9368429083695737
1539732000961273,0.38031586175326204,0.15265125505455135,0.9314717326619366
1539732000977280,0.385442893110552,0.1553368429083699,0.9248798352025638
1539732000993288,0.38495460440985774,0.15838864728770918,0.9256122682536052
1539732001009295,0.3833676661326013,0.1575341420614942,0.9274433508812088
1539732001025303,0.3851987487602049,0.1477683680476085,0.9267109178301673
1539732001041310,0.37946135652704704,0.14288548104066567,0.9274433508812088
1539732001057317,0.3783627069504849,0.14850080109864994,0.9301289387350273
1539732001073325,0.3721370260166319,0.15838864728770918,0.9301289387350273
1539732001089332,0.36859693293659834,0.16192874036774274,0.931349660486763
1539732001105340,0.3695735103379869,0.1625391012436106,0.9290302891584652
1539732001121347,0.37116044861524333,0.15558098725871705,0.9328145265888459
1539732001137354,0.37274738689249975,0.1482566567483028,0.9384298466468302
1539732001153362,0.3729915312428469,0.1415426871137564,0.9389181353475244
1539732001169369,0.37409018081940903,0.14337376974135996,0.9334248874647137
1539732001185377,0.3770199130235756,0.14044403753719426,0.9430685893034259
1539732001201384,0.37897306782635276,0.1394674601358057,0.9378194857709623
1539732001217392,0.38190280003051846,0.13910124361028497,0.9342793926909287
1539732001233399,0.3805600061036092,0.14288548104066567,0.9311055161364159
1539732001249406,0.38068207827878275,0.1432516975661864,0.9334248874647137
1539732001265414,0.3809262226291299,0.1415426871137564,0.933058670939193
1539732001281402,0.3816586556801713,0.1439841306172278,0.9311055161364159
1539732001297409,0.38068207827878275,0.15436026550698134,0.9267109178301673
1539732001313416,0.3762874799725342,0.15423819333180777,0.9311055161364159
1539732001329423,0.3770199130235756,0.14373998626688067,0.9361104753185323
1539732001345430,0.3793392843518735,0.14093232623788854,0.9252460517280845
1539732001361437,0.3788509956511792,0.14630350194552566,0.9234149691004809
1539732001377444,0.3787289234760056,0.14837872892347637,0.9257343404287788
1539732001393451,0.3793392843518735,0.14459449149309567,0.9274433508812088
1539732001409458,0.38019378957808847,0.14178683146410354,0.9323262378881516
1539732001425465,0.383733882658122,0.1482566567483028,0.9307392996108952
1539732001441472,0.385442893110552,0.1494773785000385,0.9278095674067295
1539732001457479,0.3812924391546506,0.14691386282139351,0.9346456092164495
1539732001473486,0.3797055008773942,0.15069810025177421,0.9336690318150609
1539732001489493,0.3726253147173262,0.16449225604638773,0.9328145265888459
1539732001505499,0.36444647898069693,0.17059586480506628,0.9326924544136723
1539732001521506,0.3548027771419848,0.16510261692225559,0.9292744335088123
1539732001537513,0.3578545815213241,0.15045395590142707,0.9329365987640195
1539732001553520,0.3594415197985805,0.13067826352330858,0.9438010223544673
1539732001569527,0.3726253147173262,0.10663004501411422,0.9463645380331123
1539732001585534,0.3847104600595106,0.10601968413824636,0.9396505683985659
1539732001601562,0.3936217288471813,0.12176699473563701,0.9301289387350273
1539732001617570,0.3976501106279091,0.12616159304188646,0.9264667734798202
1539732001633577,0.3980163271534298,0.1267719539177543,0.9252460517280845
1539732001649584,0.39874876020447125,0.12603952086671288,0.9252460517280845
1539732001665592,0.39826047150377697,0.12664988174258074,0.9290302891584652
1539732001681599,0.3955748836499584,0.12445258258945557,0.9328145265888459
1539732001697607,0.3910582131685363,0.12701609826810145,0.9365987640192266
1539732001713614,0.38532082093537845,0.13214312962539143,0.9353780422674909
1539732001729622,0.3809262226291299,0.13751430533302855,0.9342793926909287
1539732001745629,0.37531090257114563,0.1415426871137564,0.9348897535667966
1539732001761636,0.37604333562218706,0.14581521324483138,0.9331807431143666
1539732001777644,0.37360189211871475,0.1410543984130621,0.9309834439612423
1539732001793651,0.37030594338902834,0.13836881055924355,0.9278095674067295
1539732001809659,0.37152666514076405,0.13702601663233427,0.9309834439612423
1539732001825666,0.37152666514076405,0.1419089036392771,0.9358663309681852
1539732001841673,0.3714045929655905,0.1401998931868471,0.933058670939193
1539732001857681,0.3750667582207985,0.14178683146410354,0.9369649805447473
1539732001873688,0.3759212634470135,0.14386205844205424,0.9369649805447473
1539732001889696,0.38104829480430347,0.14691386282139351,0.9336690318150609
1539732001905703,0.386297398336767,0.1520408941786835,0.9311055161364159
1539732001921692,0.3909361409933627,0.1494773785000385,0.9315938048371102
1539732001937698,0.397405966277562,0.1406881818875414,0.9252460517280845
1539732001953705,0.3955748836499584,0.12860303654535787,0.9250019073777374
1539732001969712,0.39838254367895054,0.1276264591439693,0.9286640726329445
1539732001985719,0.3927672236209663,0.13214312962539143,0.9328145265888459
1539732002001726,0.393133440146487,0.1381246662088964,0.9269550621805145
1539732002017733,0.3876401922636763,0.13495078965438356,0.9284199282825973
1539732002033740,0.3864194705119406,0.12909132524605216,0.9317158770122838
1539732002049747,0.38666361486228773,0.11895933470664488,0.9336690318150609
1539732002065754,0.38361181048294846,0.11725032425421489,0.9351338979171437
1539732002081761,0.38068207827878275,0.11834897383077703,0.9341573205157552
1539732002097768,0.3778744182497906,0.1184710460059506,0.9363546196688795
1539732002113775,0.3804379339284356,0.11737239642938846,0.9350118257419702
1539732002129782,0.3812924391546506,0.11419851987487561,0.9314717326619366
1539732002145789,0.38483253223468417,0.11065842679484206,0.9293965056839859
1539732002161796,0.38239108873121275,0.11114671549553634,0.9290302891584652
1539732002177803,0.3855649652857256,0.11944762340733917,0.9326924544136723
1539732002193810,0.3872739757381556,0.12384222171358772,0.9315938048371102
1539732002209817,0.3860532539864199,0.12652780956740717,0.9336690318150609
1539732002225824,0.38861676966506487,0.12091248950942202,0.9328145265888459
1539732002241821,0.3898374914168006,0.12005798428320702,0.9314717326619366
1539732002257828,0.38483253223468417,0.12298771648737272,0.9400167849240866
1539732002273835,0.384588387884337,0.1231097886625463,0.9389181353475244
1539732002289842,0.3812924391546506,0.11505302510109061,0.939894712748913
1539732002305849,0.386297398336767,0.10553139543755208,0.9353780422674909
1539732002321856,0.385442893110552,0.09320210574502141,0.9345235370412759
1539732002337863,0.38873884184023844,0.08807507438773143,0.936476691844053
1539732002353870,0.3831235217822542,0.08844129091325215,0.9348897535667966
1539732002369876,0.37811856260013776,0.089906157015335,0.9394064240482187
1539732002385883,0.37811856260013776,0.09149309529259142,0.9359884031433587
1539732002401890,0.3754329747463192,0.09832913710231139,0.9383077744716566
1539732002417897,0.3775082017242699,0.10748455024032921,0.9434348058289466
1539732002433904,0.3955748836499584,0.09405661097123641,0.938185702296483
1539732002449911,0.3704280155642019,0.11786068513008274,0.9383077744716566
1539732002465918,0.383733882658122,0.11517509727626418,0.9278095674067295
1539732002481925,0.38068207827878275,0.11065842679484206,0.939040207522698
1539732002497932,0.3867856870374613,0.1129777981231399,0.9346456092164495
1539732002513939,0.384588387884337,0.11505302510109061,0.9303730830853745
1539732002529946,0.3843442435339899,0.11187914854657777,0.9344014648661023
1539732002545953,0.385442893110552,0.10565346761272565,0.9358663309681852
1539732002561981,0.38568703746089916,0.0986953536278321,0.9363546196688795
1539732002577988,0.38702983138780844,0.1024795910582128,0.9352559700923173
1539732002593996,0.3817807278553449,0.10528725108720494,0.933058670939193
1539732002610003,0.38287937743190703,0.10870527199206492,0.9351338979171437
1539732002626011,0.38117036697947704,0.10479896238651065,0.9368429083695737
1539732002642018,0.3817807278553449,0.10186923018234495,0.9384298466468302
1539732002658025,0.3797055008773942,0.10089265278095638,0.9340352483405816
1539732002674033,0.38117036697947704,0.10016021972991496,0.938185702296483
1539732002690040,0.3795834287022206,0.09881742580300568,0.9422140840772109
1539732002706048,0.3804379339284356,0.09967193102922067,0.9375753414206152
1539732002722055,0.37824063477531134,0.10455481803616351,0.9383077744716566
1539732002738062,0.37860685130083205,0.10955977721827992,0.9387960631723509
1539732002754070,0.38104829480430347,0.11236743724727205,0.9355001144426645
1539732002770077,0.3804379339284356,0.1138323033493549,0.939894712748913
1539732002786085,0.3825131609063863,0.1088273441672385,0.9370870527199209
1539732002802092,0.3775082017242699,0.10492103456168422,0.9445334554055087
1539732002818100,0.37909514000152633,0.11358815899900776,0.933913176165408
1539732002834107,0.3754329747463192,0.12201113908598415,0.9367208361944002
1539732002850114,0.37616540779736063,0.11895933470664488,0.9438010223544673
1539732002866122,0.3759212634470135,0.11480888075074347,0.9380636301213094
1539732002882110,0.3771419851987492,0.11065842679484206,0.9378194857709623
1539732002898118,0.3757991912718399,0.11309987029831348,0.939040207522698
1539732002914125,0.3757991912718399,0.11651789120317346,0.939040207522698
1539732002930132,0.3771419851987492,0.12249942778667844,0.9348897535667966
1539732002946140,0.3792172121766999,0.12579537651636574,0.935622186617838
1539732002962147,0.37775234607461705,0.1214007782101163,0.939040207522698
1539732002978155,0.37946135652704704,0.1117570763714042,0.9405050736247809
1539732002994162,0.38068207827878275,0.10894941634241206,0.9391622796978716
1539732003010170,0.3817807278553449,0.11309987029831348,0.9340352483405816
1539732003026177,0.3825131609063863,0.11908140688181845,0.9350118257419702
1539732003042184,0.3814145113298242,0.1289692530708786,0.9320820935378045
1539732003058192,0.38153658350499775,0.12921339742122573,0.9325703822384988
1539732003074199,0.37909514000152633,0.12201113908598415,0.930495155260548
1539732003090207,0.37909514000152633,0.10980392156862706,0.9389181353475244
1539732003106214,0.38068207827878275,0.11102464332036277,0.9397726405737394
1539732003122222,0.3784847791256585,0.11017013809414777,0.9383077744716566
1539732003138229,0.3776302738994435,0.11126878767070991,0.938185702296483
1539732003154236,0.37775234607461705,0.11541924162661132,0.9341573205157552
1539732003170244,0.3757991912718399,0.1167620355535206,0.9362325474937059
1539732003186251,0.37604333562218706,0.12018005645838059,0.9362325474937059
1539732003202270,0.3783627069504849,0.12298771648737272,0.934767681391623
1539732003218278,0.38019378957808847,0.12603952086671288,0.9345235370412759
1539732003234285,0.37726405737392277,0.12787060349431645,0.9337911039902345
1539732003250292,0.37116044861524333,0.12970168612192,0.9397726405737394
1539732003266300,0.37445639734492975,0.12530708781567146,0.936476691844053
1539732003282307,0.3762874799725342,0.1272602426184486,0.9298847943846802
1539732003298315,0.3766536964980549,0.12701609826810145,0.9325703822384988
1539732003314322,0.38690775921263487,0.11627374685282632,0.9326924544136723
1539732003330330,0.3833676661326013,0.12481879911497629,0.9367208361944002
1539732003346337,0.38153658350499775,0.13507286182955713,0.9342793926909287
1539732003362344,0.3783627069504849,0.1444724193179221,0.9329365987640195
1539732003378352,0.37640955214770777,0.13958953231097926,0.9358663309681852
1539732003394359,0.3808041504539563,0.12164492256046344,0.9369649805447473
1539732003410367,0.3776302738994435,0.11285572594796633,0.9405050736247809
1539732003426374,0.3755550469214928,0.11822690165560346,0.9394064240482187
1539732003442381,0.37189288166628476,0.13507286182955713,0.9350118257419702
1539732003458389,0.3725032425421526,0.15045395590142707,0.933913176165408
1539732003474396,0.3743343251697562,0.15216296635385707,0.9325703822384988
1539732003490404,0.3755550469214928,0.1427634088654921,0.9337911039902345
1539732003506411,0.3778744182497906,0.1372701609826814,0.928786144808118
1539732003522400,0.3770199130235756,0.13409628442816857,0.9331807431143666
1539732003538407,0.3778744182497906,0.13702601663233427,0.9301289387350273
1539732003554414,0.3784847791256585,0.14203097581445068,0.9291523613336388
1539732003570422,0.3759212634470135,0.14312962539101282,0.9341573205157552
1539732003586429,0.3778744182497906,0.14007782101167354,0.9359884031433587
1539732003602437,0.37396810864423546,0.13702601663233427,0.9383077744716566
1539732003618444,0.3657892729076062,0.14032196536202068,0.936476691844053
1539732003634451,0.36310368505378765,0.1436179140917071,0.943312733653773
1539732003650459,0.3695735103379869,0.14557106889448423,0.9428244449530787
1539732003666466,0.3750667582207985,0.14874494544899708,0.9323262378881516
1539732003682474,0.3775082017242699,0.14935530632486493,0.929640650034333
1539732003698481,0.37396810864423546,0.14728007934691423,0.9376974135957887
1539732003714489,0.3704280155642019,0.14056610971236783,0.943312733653773
1539732003730496,0.37323567559319404,0.14117647058823568,0.9384298466468302
1539732003746503,0.37640955214770777,0.14459449149309567,0.9336690318150609
1539732003762511,0.3729915312428469,0.14422827496757495,0.9359884031433587
1539732003778518,0.36896314946211906,0.14422827496757495,0.9368429083695737
1539732003794526,0.36639963378347407,0.1456931410696578,0.9376974135957887
1539732003810533,0.36932936598763977,0.1394674601358057,0.9363546196688795
1539732003826541,0.37018387121385476,0.13678187228198713,0.9400167849240866
1539732003842559,0.3737239642938883,0.1351949340047307,0.9367208361944002
1539732003858567,0.37311360341802047,0.13971160448615283,0.9302510109102009
1539732003874574,0.3733577477683676,0.13958953231097926,0.9276874952315559
1539732003890582,0.37311360341802047,0.13470664530403642,0.9295185778591595
1539732003906589,0.3726253147173262,0.13153276874952358,0.933913176165408
1539732003922597,0.37482261387045046,0.13299763485160643,0.9323262378881516
1539732003938604,0.37567711909666635,0.13299763485160643,0.9384298466468302
1539732003954611,0.3754329747463192,0.13287556267643286,0.9379415579461359
1539732003970619,0.37689784084840205,0.13299763485160643,0.9379415579461359
1539732003986626,0.37616540779736063,0.13678187228198713,0.9344014648661023
1539732004002634,0.3726253147173262,0.14142061493858282,0.9363546196688795
1539732004018641,0.37323567559319404,0.14874494544899708,0.9389181353475244
1539732004034649,0.3725032425421526,0.14703593499656709,0.9395284962233923
1539732004050656,0.37238117036697904,0.14044403753719426,0.9395284962233923
1539732004066663,0.3688410772869455,0.13421835660334214,0.9392843518730452
1539732004082671,0.3678644998855569,0.1372701609826814,0.9361104753185323
1539732004098678,0.3687190051117719,0.14032196536202068,0.9342793926909287
1539732004114686,0.3687190051117719,0.1427634088654921,0.9337911039902345
1539732004130693,0.37238117036697904,0.13885709925993783,0.9309834439612423
1539732004146700,0.36896314946211906,0.130556191348135,0.9403830014496073
1539732004162689,0.3692072938124662,0.1267719539177543,0.9406271457999544
1539732004178696,0.3728694590676733,0.12713817044327502,0.9357442587930116
1539732004194704,0.3747005416952769,0.12738231479362216,0.941603723201343
1539732004210711,0.3754329747463192,0.12457465476462914,0.9389181353475244
1539732004226719,0.3743343251697562,0.12286564431219915,0.9417257953765166
1539732004242726,0.37030594338902834,0.12970168612192,0.9438010223544673
1539732004258733,0.3707942320897226,0.13617151140611927,0.9386739909971773
1539732004274741,0.3709163042648962,0.12823682001983716,0.935622186617838
1539732004290748,0.3755550469214928,0.11261158159761919,0.9337911039902345
1539732004306756,0.3767757686732285,0.1109025711451892,0.9376974135957887
1539732004322763,0.37225909819180547,0.11810482948042988,0.9342793926909287
1539732004338770,0.3750667582207985,0.12713817044327502,0.9341573205157552
1539732004354778,0.3645685511558705,0.13678187228198713,0.9425803006027316
1539732004370785,0.36139467460135766,0.13641565575646641,0.9383077744716566
1539732004386793,0.3640802624551762,0.12603952086671288,0.938185702296483
1539732004402800,0.36652170595864764,0.1155413138017849,0.9447775997558558
1539732004418808,0.3683527885862512,0.11187914854657777,0.9401388570992602
1539732004434815,0.3678644998855569,0.11700617990386775,0.9429465171282523
1539732004450822,0.36932936598763977,0.11725032425421489,0.9446555275806823
1539732004466830,0.3704280155642019,0.11566338597695847,0.9401388570992602
1539732004482849,0.3683527885862512,0.11456473640039633,0.9430685893034259
1539732004498856,0.37494468604562403,0.1146868085755699,0.937331197070268
1539732004514864,0.37653162432288134,0.11126878767070991,0.9350118257419702
1539732004530871,0.3792172121766999,0.11541924162661132,0.935622186617838
1539732004546878,0.3747005416952769,0.12164492256046344,0.9317158770122838
1539732004562886,0.3717708094911112,0.1231097886625463,0.9397726405737394
1539732004578893,0.36932936598763977,0.12542915999084503,0.9376974135957887
1539732004594901,0.36603341725795335,0.12506294346532432,0.9414816510261694
1539732004610908,0.3670099946593419,0.12420843823910843,0.9401388570992602
1539732004626916,0.3662775616083005,0.11883726253147131,0.939894712748913
1539732004642923,0.3661554894331269,0.12091248950942202,0.9412375066758223
1539732004658930,0.36737621118486263,0.12359807736324058,0.9430685893034259
1539732004674938,0.36859693293659834,0.12286564431219915,0.9395284962233923
1539732004690945,0.36346990157930836,0.12994583047226715,0.9434348058289466
1539732004706953,0.3661554894331269,0.13202105745021786,0.9411154345006487
1539732004722960,0.3795834287022206,0.12652780956740717,0.9411154345006487
1539732004738968,0.36932936598763977,0.13531700617990428,0.9440451667048144
1539732004754975,0.36981765468833405,0.14435034714274853,0.9422140840772109
1539732004770982,0.3688410772869455,0.1456931410696578,0.9378194857709623
1539732004786990,0.36896314946211906,0.13885709925993783,0.938185702296483
1539732004802978,0.36652170595864764,0.13250934615091214,0.9362325474937059
1539732004818986,0.3666437781338212,0.13116655222400286,0.9334248874647137
1539732004834993,0.3629816128786141,0.13214312962539143,0.9422140840772109
1539732004851000,0.36395819028000265,0.13360799572747428,0.941603723201343
1539732004867008,0.3620050354772255,0.13580529488059856,0.9422140840772109
1539732004883015,0.35895323109788624,0.1377584496833757,0.9456321049820708
1539732004899023,0.36224917982757265,0.13617151140611927,0.9422140840772109
1539732004915030,0.3633478294041348,0.13153276874952358,0.9447775997558558
1539732004931038,0.36554512855725907,0.13238727397573857,0.9402609292744337
1539732004947045,0.3666437781338212,0.13641565575646641,0.9337911039902345
1539732004963052,0.3666437781338212,0.13788052185854927,0.937331197070268
1539732004979060,0.3725032425421526,0.13824673838406998,0.934767681391623
1539732004995067,0.37103837644006976,0.14288548104066567,0.9352559700923173
1539732005011075,0.3754329747463192,0.14703593499656709,0.934767681391623
1539732005027082,0.37640955214770777,0.1465476462958728,0.929640650034333
1539732005043089,0.3742122529945826,0.14471656366826924,0.9353780422674909
1539732005059097,0.37482261387045046,0.14264133669031853,0.9334248874647137
1539732005075104,0.3757991912718399,0.14081025406271497,0.9331807431143666
1539732005091112,0.3750667582207985,0.14581521324483138,0.9362325474937059
1539732005107119,0.37189288166628476,0.1436179140917071,0.9423361562523844
1539732005123138,0.3690852216372926,0.1410543984130621,0.9448996719310294
1539732005139145,0.3687190051117719,0.1436179140917071,0.9422140840772109
1539732005155153,0.36224917982757265,0.14850080109864994,0.9447775997558558
1539732005171160,0.3646906233310441,0.15045395590142707,0.9413595788509959
1539732005187168,0.3657892729076062,0.15265125505455135,0.9362325474937059
1539732005203175,0.36554512855725907,0.1541161211566342,0.9317158770122838
1539732005219183,0.3692072938124662,0.15301747158007206,0.9285420004577709
1539732005235190,0.37323567559319404,0.15338368810559277,0.9290302891584652
1539732005251197,0.37482261387045046,0.15680170901045276,0.9320820935378045
1539732005267205,0.3759212634470135,0.16327153429465202,0.9284199282825973
1539732005283212,0.37860685130083205,0.16473640039673487,0.9254901960784316
1539732005299220,0.38324559395742774,0.15631342030975848,0.9253681239032581
1539732005315227,0.38532082093537845,0.1511863889524685,0.928786144808118
1539732005331235,0.3927672236209663,0.15643549248493205,0.9281757839322502
1539732005347242,0.395696955825132,0.16278324559395774,0.9197528038452738
1539732005363249,0.3830014496070806,0.16327153429465202,0.9241474021515224
1539732005379257,0.38910505836575915,0.15802243076218847,0.9160906385900667
1539732005395264,0.3881284809643706,0.14581521324483138,0.9177996490424967
1539732005411272,0.388860914015412,0.1432516975661864,0.9188982986190588
1539732005427279,0.3821469443808656,0.15167467765316278,0.9285420004577709
1539732005443298,0.3779964904249642,0.16095216296635417,0.9306172274357216
1539732005459305,0.3729915312428469,0.1620508125429163,0.9258564126039524
1539732005475313,0.3728694590676733,0.16021972991531275,0.9257343404287788
1539732005491320,0.37067215991454905,0.16009765774013918,0.930495155260548
1539732005507328,0.3678644998855569,0.15887693598840347,0.9387960631723509
1539732005523335,0.36603341725795335,0.1465476462958728,0.944167238879988
1539732005539343,0.37018387121385476,0.1381246662088964,0.9451438162813766
1539732005555350,0.3747005416952769,0.13958953231097926,0.9411154345006487
1539732005571357,0.37897306782635276,0.14801251239795565,0.9395284962233923
1539732005587365,0.3779964904249642,0.15228503852903064,0.9344014648661023
1539732005603372,0.3788509956511792,0.15301747158007206,0.9315938048371102
1539732005619380,0.3808041504539563,0.1524071107042042,0.9352559700923173
1539732005635387,0.38483253223468417,0.15069810025177421,0.9340352483405816
1539732005651394,0.3822690165560392,0.15338368810559277,0.9284199282825973
1539732005667402,0.3816586556801713,0.1596093690394449,0.9279316395819031
1539732005683409,0.3778744182497906,0.16363775082017273,0.9264667734798202
1539732005699417,0.3762874799725342,0.16229495689326345,0.9242694743266959
1539732005715424,0.3759212634470135,0.15887693598840347,0.9228046082246131
1539732005731432,0.3734798199435412,0.1587548638132299,0.9300068665598538
1539732005747439,0.37311360341802047,0.15265125505455135,0.934767681391623
1539732005763427,0.37396810864423546,0.15008773937590636,0.934767681391623
1539732005779435,0.37653162432288134,0.14166475928892996,0.934767681391623
1539732005795442,0.37726405737392277,0.1389791714351114,0.9370870527199209
1539732005811450,0.3771419851987492,0.14056610971236783,0.9342793926909287
1539732005827457,0.3784847791256585,0.14703593499656709,0.9297627222095066
1539732005843464,0.38446631570916345,0.14691386282139351,0.930495155260548
1539732005859472,0.3834897383077749,0.14789044022278208,0.9276874952315559
1539732005875479,0.3793392843518735,0.15338368810559277,0.9282978561074238
1539732005891487,0.3800717174029149,0.15643549248493205,0.9298847943846802
1539732005907494,0.3775082017242699,0.15716792553597347,0.9315938048371102
1539732005923502,0.3743343251697562,0.1566796368352792,0.9243915465018695
1539732005939509,0.37689784084840205,0.15887693598840347,0.9250019073777374
1539732005955516,0.3770199130235756,0.16119630731670131,0.9223163195239188
1539732005971524,0.37201495384145833,0.16131837949187489,0.9237811856260016
1539732005987531,0.3757991912718399,0.15472648203250206,0.9203631647211417
1539732006003539,0.3814145113298242,0.14593728542000495,0.9298847943846802
1539732006019546,0.38617532616159345,0.15069810025177421,0.9306172274357216
1539732006035554,0.38483253223468417,0.169253070878157,0.9307392996108952
1539732006051561,0.38019378957808847,0.18036163881895195,0.932204165712978
1539732006067568,0.37396810864423546,0.18048371099412552,0.9307392996108952
1539732006083587,0.3721370260166319,0.16900892652780986,0.9307392996108952
1539732006099595,0.3725032425421526,0.15399404898146063,0.9328145265888459
1539732006115602,0.37018387121385476,0.14691386282139351,0.9352559700923173
1539732006131610,0.3721370260166319,0.15167467765316278,0.9264667734798202
1539732006147617,0.3734798199435412,0.15094224460212136,0.9302510109102009
1539732006163624,0.3747005416952769,0.14471656366826924,0.9325703822384988
1539732006179632,0.3737239642938883,0.14471656366826924,0.9337911039902345
1539732006195639,0.37409018081940903,0.14435034714274853,0.9336690318150609
1539732006211647,0.37653162432288134,0.14349584191653353,0.9308613717860688
1539732006227654,0.3737239642938883,0.1444724193179221,0.9324483100633252
1539732006243662,0.37738612954909634,0.14520485236896352,0.9269550621805145
1539732006259669,0.37726405737392277,0.14081025406271497,0.9315938048371102
1539732006275676,0.3795834287022206,0.12921339742122573,0.936476691844053
1539732006291684,0.37946135652704704,0.11712825207904132,0.9417257953765166
1539732006307691,0.3804379339284356,0.09857328145265853,0.9479514763103687
1539732006323699,0.3814145113298242,0.08038452735179646,0.9514915693904022
1539732006339706,0.38410009918364274,0.06952010376134865,0.9479514763103687
1539732006355713,0.3834897383077749,0.07318226901655578,0.9439230945296408
1539732006371721,0.383733882658122,0.08587777523460716,0.9376974135957887
1539732006387728,0.3833676661326013,0.09771877622644354,0.9394064240482187
1539732006403717,0.38068207827878275,0.09600976577401354,0.945021744106203
1539732006419724,0.3825131609063863,0.08551155870908644,0.9474631876096744
1539732006435732,0.3812924391546506,0.08001831082627575,0.9483176928358894
1539732006451739,0.3779964904249642,0.09271381704432713,0.9457541771572444
1539732006467746,0.37689784084840205,0.10321202410925423,0.9444113832303351
1539732006483754,0.37860685130083205,0.10601968413824636,0.9367208361944002
1539732006499761,0.38275730525673346,0.09979400320439424,0.9239032578011752
1539732006515769,0.3851987487602049,0.07904173342488718,0.9293965056839859
1539732006531776,0.3842221713588163,0.03961242084382377,0.9380636301213094
1539732006547783,0.38873884184023844,0.008117799649042468,0.9428244449530787
1539732006563791,0.39411001754787556,0.009460593575951748,0.9337911039902345
1539732006579798,0.39118028534370985,0.04888990615701516,0.9362325474937059
1539732006595806,0.39032578011749486,0.08160524910353217,0.9335469596398873
1539732006611813,0.3909361409933627,0.07074082551308436,0.9422140840772109
1539732006627821,0.39337758449683413,0.04132143129625376,0.9414816510261694
1539732006643828,0.39337758449683413,0.0424200808728159,0.9383077744716566
1539732006659835,0.39154650186923057,0.09076066224155,0.9300068665598538
1539732006675843,0.38446631570916345,0.15558098725871705,0.9239032578011752
1539732006691850,0.3808041504539563,0.18719768062867193,0.9241474021515224
1539732006707858,0.3826352330815599,0.17108415350576056,0.9242694743266959
1539732006723877,0.3847104600595106,0.12164492256046344,0.9333028152895402
1539732006739884,0.38361181048294846,0.08038452735179646,0.9406271457999544
1539732006755891,0.38190280003051846,0.0785534447241929,0.9414816510261694
1539732006771899,0.3817807278553449,0.09808499275196425,0.9386739909971773
1539732006787906,0.37994964522774133,0.13006790264744073,0.9328145265888459
1539732006803914,0.3766536964980549,0.14093232623788854,0.933913176165408
1539732006819921,0.3795834287022206,0.1377584496833757,0.9282978561074238
1539732006835929,0.37982757305256776,0.12335393301289344,0.9326924544136723
1539732006851936,0.38739604791332916,0.11273365377279276,0.9368429083695737
1539732006867943,0.3805600061036092,0.10577553978789922,0.9301289387350273
1539732006883951,0.38239108873121275,0.10663004501411422,0.9362325474937059
1539732006899958,0.383733882658122,0.10907148851758564,0.9361104753185323
1539732006915966,0.3822690165560392,0.11261158159761919,0.9376974135957887
1539732006931973,0.38068207827878275,0.11541924162661132,0.9378194857709623
1539732006947981,0.38361181048294846,0.11798275730525631,0.9352559700923173
1539732006963988,0.3783627069504849,0.1214007782101163,0.9419699397268637
1539732006979995,0.3754329747463192,0.10675211718928779,0.9438010223544673
1539732006996003,0.37409018081940903,0.10211337453269209,0.9422140840772109
1539732007012010,0.37225909819180547,0.11517509727626418,0.9363546196688795
1539732007028018,0.3712825207904169,0.12921339742122573,0.9361104753185323
1539732007044006,0.37189288166628476,0.12396429388876129,0.936476691844053
1539732007060013,0.3725032425421526,0.11236743724727205,0.9374532692454416
1539732007076021,0.37445639734492975,0.10943770504310635,0.9307392996108952
1539732007092028,0.37494468604562403,0.11786068513008274,0.9357442587930116
1539732007108036,0.37518883039597206,0.12774853131914288,0.9392843518730452
1539732007124043,0.3766536964980549,0.13080033569848215,0.9370870527199209
1539732007140051,0.37360189211871475,0.12957961394674644,0.9361104753185323
1539732007156058,0.3778744182497906,0.12628366521706003,0.939894712748913
1539732007172065,0.3784847791256585,0.1259174486915393,0.9413595788509959
1539732007188073,0.37860685130083205,0.12872510872053144,0.9413595788509959
1539732007204080,0.3783627069504849,0.13299763485160643,0.9368429083695737
1539732007220088,0.3770199130235756,0.135683222705425,0.933913176165408
1539732007236095,0.37738612954909634,0.1310444800488293,0.9342793926909287
1539732007252102,0.37909514000152633,0.1301899748226143,0.9340352483405816
1539732007268110,0.3804379339284356,0.13470664530403642,0.9351338979171437
1539732007284117,0.3788509956511792,0.14032196536202068,0.9300068665598538
1539732007300125,0.3784847791256585,0.13507286182955713,0.9269550621805145
