Timestamp (microseconds),Gyro X (°/s),Gyro Y (°/s),Gyro Z (°/s)
1539731981752868,1.3122758831159445,-1.8005645838102282,0.8239871824216607
1539731981768870,0.8850232700083325,-1.3733119707026162,0.8850232700083325
1539731981784872,-0.09155413138023505,-0.9460593575952316,0.7019150072480898
1539731981800873,-1.3122758831159445,-0.7019150072480898,0.33569848172737693
1539731981816875,-1.3122758831159445,-0.15259021896690683,0.2746623941404778
1539731981832877,-0.5798428320745188,-0.09155413138023505,0.213626306553806
1539731981848878,-0.09155413138023505,-0.09155413138023505,0.15259021896690683
1539731981864880,-0.33569848172737693,0.09155413138023505,-0.15259021896690683
1539731981880882,-0.5798428320745188,0.45777065690094787,-0.33569848172737693
1539731981896884,-0.6408789196611906,0.5188067444876197,-0.2746623941404778
1539731981912885,-1.0070954451819034,0.7629510948347615,-0.33569848172737693
1539731981928887,-1.8616006713969,0.8850232700083325,-0.45777065690094787
1539731981944889,-2.532997634851654,1.2512397955290453,-0.5188067444876197
1539731981960890,-1.8616006713969,1.6784924086366573,-0.213626306553806
1539731981976892,-1.5564202334630863,1.5564202334630863,0.213626306553806
1539731981992894,-1.1902037079423735,1.1291676203554744,0.5798428320745188
1539731982008895,0.15259021896690683,0.45777065690094787,1.0070954451819034
1539731982024897,1.6784924086366573,-0.2746623941404778,1.4343480582895154
1539731982040899,1.9226367589837992,-0.8239871824216607,1.6174563210497581
1539731982056901,0.9460593575952316,-1.0070954451819034,1.4953841458761872
1539731982072906,0.33569848172737693,-0.8850232700083325,1.4953841458761872
1539731982088908,0.8239871824216607,-0.5188067444876197,1.6174563210497581
1539731982104910,0.8850232700083325,-0.213626306553806,1.6784924086366573
1539731982120911,-0.213626306553806,-0.03051804379333589,1.6784924086366573
1539731982136913,-1.2512397955290453,-0.15259021896690683,1.6174563210497581
1539731982152915,-1.5564202334630863,-0.03051804379333589,1.739528496223329
1539731982168916,-0.8850232700083325,0.03051804379333589,1.9226367589837992
1539731982184918,0.45777065690094787,-0.15259021896690683,2.4719615472647547
1539731982200920,0.2746623941404778,-0.213626306553806,2.7161058976118966
1539731982216921,-0.8239871824216607,-0.5798428320745188,2.7161058976118966
1539731982232923,-1.2512397955290453,-0.8850232700083325,2.532997634851654
1539731982248925,-0.3967345693140487,-1.0681315327688026,2.3498893720911838
1539731982264927,0.9460593575952316,-1.1902037079423735,2.532997634851654
1539731982280928,2.105745021744042,-1.3122758831159445,2.8381780727854675
1539731982296930,2.655069810025225,-1.6784924086366573,2.8381780727854675
1539731982312932,1.8616006713969,-1.9226367589837992,2.7161058976118966
1539731982328933,-0.8850232700083325,-2.288853284504512,2.3498893720911838
1539731982344935,-4.486152437628789,-2.532997634851654,1.8616006713969
1539731982360937,-7.660028992141633,-2.7161058976118966,1.1902037079423735
1539731982376938,-11.139085984588291,-2.9602502479590385,0.8239871824216607
1539731982392944,-14.740215152208748,-3.0823224231326094,0.2746623941404778
1539731982408946,-17.730983443961122,-2.9602502479590385,-0.15259021896690683
1539731982424947,-16.632333867398984,-2.227817196917613,-0.3967345693140487
1539731982440949,-12.542915999084471,-1.9226367589837992,0.213626306553806
1539731982456951,-8.880750743877343,-2.166781109330941,0.5798428320745188
1539731982472952,-7.11070420386045,-2.227817196917613,0.7629510948347615
1539731982488954,-5.3406576638437855,-2.105745021744042,0.8239871824216607
1539731982504956,-2.8992141603723667,-1.9226367589837992,1.0681315327688026
1539731982520958,-0.8850232700083325,-1.5564202334630863,1.0070954451819034
1539731982536959,0.2746623941404778,-1.3733119707026162,0.8850232700083325
1539731982552961,0.6408789196611906,-1.3733119707026162,0.7019150072480898
1539731982568963,0.7629510948347615,-1.3122758831159445,0.2746623941404778
1539731982584964,0.8239871824216607,-1.3733119707026162,0.03051804379333589
1539731982600966,-0.2746623941404778,-1.5564202334630863,-0.03051804379333589
1539731982616968,-1.4343480582895154,-1.8005645838102282,-0.09155413138023505
1539731982632969,-2.227817196917613,-2.227817196917613,0.09155413138023505
1539731982648971,-4.303044174868319,-2.227817196917613,0.213626306553806
1539731982664973,-8.209353780422589,-1.8616006713969,-0.15259021896690683
1539731982680975,-11.261158159761862,-1.8005645838102282,-0.3967345693140487
1539731982696976,-14.740215152208748,-1.983672846570471,-0.5798428320745188
1539731982713043,-17.730983443961122,-1.983672846570471,-1.2512397955290453
1539731982729045,-15.960936903944457,-1.8005645838102282,-1.1291676203554744
1539731982745046,-10.467689021133765,-1.4343480582895154,-0.2746623941404778
1539731982761048,-6.378271152819025,-1.2512397955290453,0.15259021896690683
1539731982777050,-3.1433585107195086,-1.3122758831159445,0.5188067444876197
1539731982793051,-0.5188067444876197,-1.3733119707026162,0.8239871824216607
1539731982809053,2.166781109330941,-1.2512397955290453,1.2512397955290453
1539731982825055,3.2654306858930795,-1.3122758831159445,1.8616006713969
1539731982841056,3.1433585107195086,-1.3122758831159445,2.105745021744042
1539731982857058,3.570611123826893,-1.3733119707026162,1.9226367589837992
1539731982873060,2.5940337224383256,-1.739528496223329,1.983672846570471
1539731982889062,-0.5798428320745188,-1.9226367589837992,1.4343480582895154
1539731982905063,-2.227817196917613,-2.166781109330941,0.9460593575952316
1539731982921065,-1.3733119707026162,-2.227817196917613,0.7629510948347615
1539731982937067,-0.8239871824216607,-2.04470893415737,0.5798428320745188
1539731982953068,-1.4953841458761872,-1.6174563210497581,0.45777065690094787
1539731982969070,-3.4485389486533222,-1.5564202334630863,0.15259021896690683
1539731982985072,-4.9134050507361735,-1.6174563210497581,-0.45777065690094787
1539731983001073,-4.242008087281647,-1.6174563210497581,-0.5188067444876197
1539731983017075,-1.983672846570471,-1.6784924086366573,-0.5188067444876197
1539731983033172,1.5564202334630863,-1.6784924086366573,-0.15259021896690683
1539731983049174,5.2185854886702145,-1.5564202334630863,0.45777065690094787
1539731983065177,5.95101853971164,-1.3122758831159445,0.7019150072480898
1539731983081179,4.669260700389032,-1.1902037079423735,0.6408789196611906
1539731983097181,3.7537193865873633,-0.9460593575952316,0.33569848172737693
1539731983113183,4.303044174868319,-0.7629510948347615,0.2746623941404778
1539731983129185,4.852368963149502,-0.7019150072480898,0.213626306553806
1539731983145187,5.279621576256886,-0.7019150072480898,-0.03051804379333589
1539731983161190,5.401693751430457,-0.8239871824216607,-0.3967345693140487
1539731983177192,5.2185854886702145,-0.7629510948347615,-0.6408789196611906
1539731983193194,4.242008087281647,-0.7629510948347615,-0.6408789196611906
1539731983209196,3.3875028610666504,-0.45777065690094787,-0.7019150072480898
1539731983225198,2.7161058976118966,0.213626306553806,-0.5188067444876197
1539731983241201,2.105745021744042,1.3122758831159445,-0.213626306553806
1539731983257203,1.8005645838102282,2.4719615472647547,0.2746623941404778
1539731983273205,2.04470893415737,3.692683299000464,0.7019150072480898
1539731983289207,1.9226367589837992,4.547188525215461,0.8850232700083325
1539731983305209,1.1291676203554744,4.669260700389032,0.7629510948347615
1539731983321211,-0.45777065690094787,4.364080262455218,0.33569848172737693
1539731983337214,-1.6784924086366573,4.119935912108076,-0.33569848172737693
1539731983353302,0.6408789196611906,3.570611123826893,-1.0681315327688026
1539731983369304,4.669260700389032,2.8381780727854675,-1.3733119707026162
1539731983385307,6.561379415579495,1.4953841458761872,-1.6784924086366573
1539731983401310,5.462729839017356,0.03051804379333589,-1.983672846570471
1539731983417312,3.1433585107195086,-1.4953841458761872,-2.7161058976118966
1539731983433315,1.739528496223329,-2.8992141603723667,-3.4485389486533222
1539731983449318,0.2746623941404778,-3.5095750362402214,-4.180971999694748
1539731983465320,0.09155413138023505,-3.814755474174035,-4.180971999694748
1539731983481323,-0.09155413138023505,-4.119935912108076,-3.3264667734797513
1539731983497326,-2.4719615472647547,-4.60822461280236,-3.0212863355459376
1539731983513328,-3.997863736934505,-5.523765926604028,-2.5940337224383256
1539731983529331,-3.1433585107195086,-6.317235065232353,-1.9226367589837992
1539731983545333,0.09155413138023505,-7.11070420386045,-0.7019150072480898
1539731983561336,4.669260700389032,-7.904173342488775,1.0070954451819034
1539731983577339,9.85732814526591,-8.392462043183059,2.3498893720911838
1539731983593341,15.167467765316132,-8.087281605249018,3.7537193865873633
1539731983609344,16.388189517051842,-7.232776379034021,4.60822461280236
1539731983625347,9.85732814526591,-5.706874189364498,2.9602502479590385
1539731983641349,0.09155413138023505,-4.242008087281647,-2.288853284504512
1539731983657352,-0.3967345693140487,-2.7771419851987957,-7.232776379034021
1539731983673431,14.251926451514464,-1.8005645838102282,-7.598992904554734
1539731983689434,33.600366216525344,-1.4343480582895154,-4.60822461280236
1539731983705436,43.61028458075816,-2.3498893720911838,-0.03051804379333589
1539731983721439,34.57694361791391,-4.303044174868319,2.5940337224383256
1539731983737442,13.885709925993751,-5.95101853971164,2.8992141603723667
1539731983753444,-2.105745021744042,-6.134126802471883,2.7161058976118966
1539731983769447,-8.087281605249018,-4.669260700389032,3.3264667734797513
1539731983785450,-8.33142595559616,-2.410925459678083,3.875791561760934
1539731983801452,-5.76791027695117,-0.2746623941404778,4.42511635004189
1539731983817455,-1.8616006713969,1.1291676203554744,4.669260700389032
1539731983833458,3.6316472114137923,1.8005645838102282,4.730296787975931
1539731983849460,8.270389868009488,2.288853284504512,4.974441138323073
1539731983865463,10.284580758373295,2.410925459678083,5.3406576638437855
1539731983881466,9.979400320439481,2.532997634851654,4.791332875562603
1539731983897468,11.688410772869474,3.814755474174035,4.058899824521177
1539731983913471,14.190890363927565,4.486152437628789,4.730296787975931
1539731983929474,9.85732814526591,4.058899824521177,4.730296787975931
1539731983945476,0.09155413138023505,3.3264667734797513,3.2043945983061803
1539731983961479,-8.6366063935302,3.0823224231326094,1.3733119707026162
1539731983977481,-12.298771648737329,3.5095750362402214,-0.15259021896690683
1539731983993591,-10.650797283894008,4.242008087281647,-0.45777065690094787
1539731984009594,-7.354848554207592,4.180971999694748,-0.5798428320745188
1539731984025597,-4.9134050507361735,2.8381780727854675,-0.9460593575952316
1539731984041600,-3.2043945983061803,0.6408789196611906,-1.1902037079423735
1539731984057603,-3.570611123826893,-1.739528496223329,-1.1291676203554744
1539731984073607,-4.791332875562603,-3.4485389486533222,-1.0681315327688026
1539731984089610,-4.730296787975931,-4.242008087281647,-0.5188067444876197
1539731984105613,-2.8381780727854675,-4.058899824521177,-0.03051804379333589
1539731984121616,0.33569848172737693,-3.0823224231326094,0.03051804379333589
1539731984137619,3.3875028610666504,-1.8005645838102282,0.03051804379333589
1539731984153622,6.195162890058782,-0.5798428320745188,0.33569848172737693
1539731984169625,7.721065079728305,0.09155413138023505,1.2512397955290453
1539731984185629,2.9602502479590385,0.03051804379333589,1.3733119707026162
1539731984201632,-4.547188525215461,0.8850232700083325,0.6408789196611906
1539731984217635,-9.063859006637585,-0.2746623941404778,0.45777065690094787
1539731984233638,-8.941786831464015,-0.8239871824216607,1.2512397955290453
1539731984249641,-8.33142595559616,-1.1291676203554744,2.227817196917613
1539731984265644,-7.4158846417944915,-1.0681315327688026,3.2043945983061803
1539731984281647,-6.683451590753066,-2.288853284504512,3.5095750362402214
1539731984297650,-5.3406576638437855,-4.180971999694748,3.2654306858930795
1539731984313751,1.4343480582895154,-4.9134050507361735,4.180971999694748
1539731984329754,-0.8239871824216607,-6.927595941100208,4.669260700389032
1539731984345758,-5.889982452124741,-9.55214770733187,4.791332875562603
1539731984361762,-15.838864728770886,-11.07804989700162,2.288853284504512
1539731984377765,-15.777828641183987,-10.711833371480907,1.0681315327688026
1539731984393769,-6.195162890058782,-9.185931181811156,1.8616006713969
1539731984409772,9.979400320439481,-7.476920729381163,3.0212863355459376
1539731984425776,27.008468757152514,-6.195162890058782,4.42511635004189
1539731984441780,36.591134508277946,-5.584802014190927,4.60822461280236
1539731984457783,36.89631494621176,-5.0354772259097444,2.7161058976118966
1539731984473787,31.52513923857464,-5.279621576256886,0.7019150072480898
1539731984489791,18.463416495002548,-6.927595941100208,-1.6174563210497581
1539731984505794,2.288853284504512,-7.965209430075447,-3.875791561760934
1539731984521798,-8.880750743877343,-7.537956816968062,-4.730296787975931
1539731984537801,-14.92332341496899,-6.561379415579495,-4.180971999694748
1539731984553805,-18.036163881895163,-5.645838101777599,-3.570611123826893
1539731984569809,-18.524452582589447,-5.828946364538069,-2.5940337224383256
1539731984585812,-19.439993896391115,-6.500343327992596,-1.8616006713969
1539731984601816,-20.477607385366582,-6.561379415579495,-2.288853284504512
1539731984617819,-19.195849546043974,-5.645838101777599,-2.410925459678083
1539731984633880,-16.937514305333025,-5.157549401083315,-1.8616006713969
1539731984649884,-14.92332341496899,-4.730296787975931,-1.9226367589837992
1539731984665887,-9.73525597009234,-4.486152437628789,-1.4953841458761872
1539731984681891,-7.904173342488775,-3.692683299000464,-1.4343480582895154
1539731984697895,-11.627374685282575,-3.2043945983061803,-2.655069810025225
1539731984713898,-16.510261692225413,-3.0212863355459376,-2.7161058976118966
1539731984729902,-20.23346303501944,-3.3875028610666504,-2.3498893720911838
1539731984745906,-16.693369954985883,-3.2043945983061803,-1.0681315327688026
1539731984761909,-12.726024261844714,-3.3875028610666504,0.5188067444876197
1539731984777913,-9.613183794918768,-2.4719615472647547,1.4953841458761872
1539731984793916,-7.11070420386045,-1.8616006713969,2.227817196917613
1539731984809920,-5.706874189364498,-1.0070954451819034,2.655069810025225
1539731984825924,-7.049668116273779,-0.213626306553806,2.288853284504512
1539731984841927,-8.270389868009488,0.2746623941404778,1.739528496223329
1539731984857931,-5.76791027695117,0.6408789196611906,1.6174563210497581
1539731984873934,-0.7019150072480898,0.8850232700083325,1.9226367589837992
1539731984889938,3.7537193865873633,0.8850232700083325,2.4719615472647547
1539731984905942,3.997863736934505,0.8850232700083325,2.166781109330941
1539731984921945,1.4953841458761872,0.33569848172737693,1.9226367589837992
1539731984937949,-3.0823224231326094,-0.3967345693140487,1.3122758831159445
1539731984954040,-6.561379415579495,-0.6408789196611906,0.5798428320745188
1539731984970044,-5.401693751430457,-0.8239871824216607,0.5798428320745188
1539731984986048,-2.532997634851654,-0.7629510948347615,0.8850232700083325
1539731985002052,-2.7771419851987957,-1.1291676203554744,0.45777065690094787
1539731985018056,-5.828946364538069,-2.227817196917613,-0.2746623941404778
1539731985034061,-8.148317692835917,-3.1433585107195086,-1.0681315327688026
1539731985050065,-7.2938124666209205,-3.4485389486533222,-1.0681315327688026
1539731985066069,-6.012054627298312,-3.1433585107195086,-0.8850232700083325
1539731985082073,-5.401693751430457,-2.4719615472647547,-0.5798428320745188
1539731985098077,-5.279621576256886,-1.8005645838102282,-0.213626306553806
1539731985114081,-6.134126802471883,-1.3122758831159445,-0.2746623941404778
1539731985130085,-7.2938124666209205,-1.1291676203554744,-0.213626306553806
1539731985146089,-6.8665598535133086,-1.0070954451819034,-0.03051804379333589
1539731985162093,-4.058899824521177,-0.9460593575952316,0.33569848172737693
1539731985178097,-1.0681315327688026,-1.0070954451819034,0.5798428320745188
1539731985194101,-0.8850232700083325,-1.1291676203554744,0.2746623941404778
1539731985210106,-2.655069810025225,-1.4953841458761872,-0.213626306553806
1539731985226110,-3.875791561760934,-1.8616006713969,-0.7629510948347615
1539731985242114,-1.8005645838102282,-1.8005645838102282,-0.7629510948347615
1539731985258118,0.8239871824216607,-1.6174563210497581,-0.7019150072480898
1539731985274139,0.8850232700083325,-1.5564202334630863,-0.6408789196611906
1539731985290143,-1.6784924086366573,-1.6784924086366573,-1.2512397955290453
1539731985306147,-4.791332875562603,-2.04470893415737,-1.8005645838102282
1539731985322151,-7.660028992141633,-2.105745021744042,-2.288853284504512
1539731985338155,-8.392462043183059,-2.227817196917613,-2.532997634851654
1539731985354159,-5.95101853971164,-2.288853284504512,-2.3498893720911838
1539731985370164,-2.7161058976118966,-2.3498893720911838,-2.288853284504512
1539731985386168,0.8239871824216607,-2.166781109330941,-2.227817196917613
1539731985402172,2.9602502479590385,-2.04470893415737,-1.8616006713969
1539731985418176,1.739528496223329,-1.8616006713969,-1.983672846570471
1539731985434180,-1.3733119707026162,-1.8616006713969,-2.105745021744042
1539731985450184,-2.410925459678083,-1.739528496223329,-2.105745021744042
1539731985466188,-1.3122758831159445,-1.6784924086366573,-1.6174563210497581
1539731985482192,-0.3967345693140487,-1.739528496223329,-0.9460593575952316
1539731985498196,0.8239871824216607,-1.5564202334630863,-0.09155413138023505
1539731985514200,1.5564202334630863,-1.2512397955290453,0.7019150072480898
1539731985530204,0.15259021896690683,-0.9460593575952316,1.1291676203554744
1539731985546208,-1.739528496223329,-0.7019150072480898,1.3122758831159445
1539731985562213,-2.532997634851654,-0.45777065690094787,1.5564202334630863
1539731985578217,-1.6784924086366573,-0.5798428320745188,1.8005645838102282
1539731985594268,0.3967345693140487,-0.7629510948347615,1.9226367589837992
1539731985610273,2.4719615472647547,-0.7629510948347615,1.8005645838102282
1539731985626278,2.655069810025225,-0.7629510948347615,1.3122758831159445
1539731985642282,0.7629510948347615,-1.0681315327688026,0.7629510948347615
1539731985658287,-1.0681315327688026,-1.4343480582895154,0.213626306553806
1539731985674291,-1.6784924086366573,-1.6784924086366573,-0.15259021896690683
1539731985690296,-1.1902037079423735,-1.5564202334630863,-0.3967345693140487
1539731985706300,-0.33569848172737693,-1.3122758831159445,-0.6408789196611906
1539731985722305,0.7019150072480898,-1.0681315327688026,-0.7019150072480898
1539731985738309,1.1902037079423735,-1.1902037079423735,-0.9460593575952316
1539731985754314,0.9460593575952316,-1.1902037079423735,-1.4343480582895154
1539731985770319,1.1291676203554744,-1.4343480582895154,-1.8005645838102282
1539731985786323,1.5564202334630863,-1.8616006713969,-1.6784924086366573
1539731985802328,1.6784924086366573,-2.166781109330941,-1.6784924086366573
1539731985818332,2.105745021744042,-2.105745021744042,-1.6784924086366573
1539731985834337,2.4719615472647547,-1.983672846570471,-1.5564202334630863
1539731985850341,1.0681315327688026,-2.04470893415737,-1.8005645838102282
1539731985866346,0.45777065690094787,-1.8616006713969,-1.8005645838102282
1539731985882351,1.5564202334630863,-1.3733119707026162,-1.1291676203554744
1539731985898355,1.6784924086366573,-0.8850232700083325,-0.2746623941404778
1539731985914428,-0.7629510948347615,-0.8850232700083325,0.213626306553806
1539731985930433,-5.157549401083315,-1.0681315327688026,-0.03051804379333589
1539731985946437,-7.843137254901876,-1.1291676203554744,-0.45777065690094787
1539731985962442,-6.134126802471883,-1.0681315327688026,-0.45777065690094787
1539731985978447,-1.983672846570471,-0.7019150072480898,-0.213626306553806
1539731985994451,1.5564202334630863,-0.5798428320745188,0.15259021896690683
1539731986010456,2.166781109330941,-0.7629510948347615,0.15259021896690683
1539731986026460,0.5188067444876197,-1.2512397955290453,-0.03051804379333589
1539731986042465,-1.3122758831159445,-1.739528496223329,-0.2746623941404778
1539731986058469,-2.166781109330941,-1.8005645838102282,-0.5188067444876197
1539731986074474,-2.8381780727854675,-1.8005645838102282,-0.5798428320745188
1539731986090479,-2.3498893720911838,-1.8005645838102282,-0.3967345693140487
1539731986106483,-0.7629510948347615,-1.4343480582895154,-0.09155413138023505
1539731986122488,0.15259021896690683,-1.1902037079423735,0.2746623941404778
1539731986138492,-0.213626306553806,-1.2512397955290453,0.5188067444876197
1539731986154497,-1.3122758831159445,-1.4343480582895154,0.33569848172737693
1539731986170501,-1.4343480582895154,-1.3122758831159445,0.3967345693140487
1539731986186506,-1.1291676203554744,-1.1291676203554744,0.45777065690094787
1539731986202510,-0.09155413138023505,-1.0681315327688026,0.8850232700083325
1539731986218515,0.15259021896690683,-1.1902037079423735,1.2512397955290453
1539731986234558,-0.6408789196611906,-1.3122758831159445,1.1291676203554744
1539731986250563,-1.0070954451819034,-1.4343480582895154,1.0681315327688026
1539731986266568,-1.3122758831159445,-1.3122758831159445,1.0070954451819034
1539731986282573,-1.1291676203554744,-1.1291676203554744,1.0070954451819034
1539731986298578,-0.3967345693140487,-1.0681315327688026,1.0681315327688026
1539731986314583,0.45777065690094787,-1.1902037079423735,1.1291676203554744
1539731986330588,0.8850232700083325,-1.2512397955290453,1.1902037079423735
1539731986346593,0.5798428320745188,-1.2512397955290453,1.1902037079423735
1539731986362598,0.2746623941404778,-1.1902037079423735,1.1902037079423735
1539731986378603,-0.09155413138023505,-1.0681315327688026,1.0681315327688026
1539731986394608,-0.9460593575952316,-0.9460593575952316,0.7629510948347615
1539731986410613,-1.4953841458761872,-0.8239871824216607,0.7629510948347615
1539731986426618,-1.6174563210497581,-0.5798428320745188,0.7629510948347615
1539731986442623,-2.105745021744042,-0.213626306553806,0.7019150072480898
1539731986458628,-2.3498893720911838,-0.03051804379333589,0.5798428320745188
1539731986474633,-1.8616006713969,0.213626306553806,0.5188067444876197
1539731986490638,-0.03051804379333589,0.5798428320745188,0.6408789196611906
1539731986506643,1.983672846570471,0.5188067444876197,0.7629510948347615
1539731986522648,2.532997634851654,0.09155413138023505,0.5188067444876197
1539731986538653,1.0070954451819034,-0.3967345693140487,0.03051804379333589
1539731986554718,-0.8850232700083325,-1.0681315327688026,-0.3967345693140487
1539731986570723,-1.8005645838102282,-1.739528496223329,-0.5798428320745188
1539731986586728,-1.5564202334630863,-2.105745021744042,-0.7019150072480898
1539731986602733,-0.45777065690094787,-2.105745021744042,-0.7629510948347615
1539731986618738,1.1902037079423735,-2.105745021744042,-0.7019150072480898
1539731986634743,1.0681315327688026,-2.227817196917613,-0.45777065690094787
1539731986650748,-0.8850232700083325,-2.410925459678083,-0.6408789196611906
1539731986666753,-2.4719615472647547,-2.4719615472647547,-0.7629510948347615
1539731986682758,-2.227817196917613,-2.166781109330941,-0.5798428320745188
1539731986698763,-1.1291676203554744,-1.5564202334630863,-0.2746623941404778
1539731986714768,-0.7019150072480898,-1.1902037079423735,0.03051804379333589
1539731986730773,-1.4953841458761872,-1.3733119707026162,-0.09155413138023505
1539731986746778,-1.8005645838102282,-1.6784924086366573,-0.15259021896690683
1539731986762783,-0.7019150072480898,-1.6174563210497581,-0.03051804379333589
1539731986778788,0.2746623941404778,-1.5564202334630863,0.15259021896690683
1539731986794793,0.6408789196611906,-1.4953841458761872,0.213626306553806
1539731986810798,0.3967345693140487,-1.4953841458761872,0.2746623941404778
1539731986826803,-0.8239871824216607,-1.6174563210497581,0.09155413138023505
1539731986842808,-2.227817196917613,-1.4953841458761872,-0.33569848172737693
1539731986858813,-1.739528496223329,-1.4343480582895154,-0.33569848172737693
1539731986874847,-0.213626306553806,-1.1902037079423735,-0.213626306553806
1539731986890852,0.6408789196611906,-0.9460593575952316,-0.2746623941404778
1539731986906857,0.6408789196611906,-0.7019150072480898,-0.3967345693140487
1539731986922862,0.15259021896690683,-0.6408789196611906,-0.3967345693140487
1539731986938867,-0.5188067444876197,-0.7019150072480898,-0.2746623941404778
1539731986954872,-1.3122758831159445,-0.8239871824216607,-0.15259021896690683
1539731986970877,-1.9226367589837992,-1.0681315327688026,-0.15259021896690683
1539731986986882,-2.288853284504512,-1.0681315327688026,-0.09155413138023505
1539731987002887,-1.5564202334630863,-1.0681315327688026,0.03051804379333589
1539731987018892,0.2746623941404778,-1.0681315327688026,0.2746623941404778
1539731987034897,1.6174563210497581,-1.0681315327688026,0.5798428320745188
1539731987050902,0.45777065690094787,-1.1902037079423735,0.3967345693140487
1539731987066908,-1.3733119707026162,-1.3733119707026162,0.15259021896690683
1539731987082913,-2.166781109330941,-1.1902037079423735,0.213626306553806
1539731987098918,-1.983672846570471,-0.9460593575952316,0.2746623941404778
1539731987114923,-1.1291676203554744,-0.8239871824216607,0.33569848172737693
1539731987130928,-0.3967345693140487,-0.6408789196611906,0.213626306553806
1539731987146933,-0.45777065690094787,-0.45777065690094787,0.03051804379333589
1539731987162938,-1.3122758831159445,-0.2746623941404778,-0.15259021896690683
1539731987178943,-1.9226367589837992,-0.2746623941404778,-0.33569848172737693
1539731987195037,-1.1291676203554744,-0.3967345693140487,-0.2746623941404778
1539731987211043,-0.7629510948347615,-0.5188067444876197,-0.09155413138023505
1539731987227048,-2.04470893415737,-1.0681315327688026,-0.213626306553806
1539731987243054,-3.2654306858930795,-1.5564202334630863,-0.2746623941404778
1539731987259060,-3.3875028610666504,-1.8005645838102282,-0.3967345693140487
1539731987275065,-2.410925459678083,-1.983672846570471,-0.5188067444876197
1539731987291071,-0.9460593575952316,-2.105745021744042,-0.33569848172737693
1539731987307076,-0.6408789196611906,-2.227817196917613,-0.09155413138023505
1539731987323082,-1.5564202334630863,-2.166781109330941,-0.213626306553806
1539731987339087,-2.8381780727854675,-1.983672846570471,-0.5798428320745188
1539731987355093,-2.9602502479590385,-1.9226367589837992,-0.7629510948347615
1539731987371098,-1.9226367589837992,-1.983672846570471,-0.7019150072480898
1539731987387104,-0.213626306553806,-1.8616006713969,-0.213626306553806
1539731987403109,0.7019150072480898,-1.6174563210497581,-0.09155413138023505
1539731987419115,0.2746623941404778,-1.3733119707026162,-0.213626306553806
1539731987435120,-0.5798428320745188,-1.3733119707026162,-0.15259021896690683
1539731987451126,-1.1291676203554744,-1.3122758831159445,-0.03051804379333589
1539731987467131,-0.45777065690094787,-1.4343480582895154,0.33569848172737693
1539731987483137,0.15259021896690683,-1.8616006713969,0.7629510948347615
1539731987499142,-0.213626306553806,-2.105745021744042,0.8850232700083325
1539731987515167,-1.8616006713969,-2.288853284504512,0.8239871824216607
1539731987531172,-2.7161058976118966,-2.410925459678083,0.8239871824216607
1539731987547178,-2.105745021744042,-2.227817196917613,0.9460593575952316
1539731987563183,-1.0070954451819034,-1.6784924086366573,1.0070954451819034
1539731987579189,-0.7019150072480898,-1.3122758831159445,0.9460593575952316
1539731987595194,-1.3122758831159445,-1.0070954451819034,0.7019150072480898
1539731987611200,-1.983672846570471,-0.8239871824216607,0.33569848172737693
1539731987627205,-1.983672846570471,-0.7629510948347615,0.09155413138023505
1539731987643211,-1.4343480582895154,-0.7019150072480898,0.09155413138023505
1539731987659217,-1.6784924086366573,-0.6408789196611906,-0.03051804379333589
1539731987675222,-1.6784924086366573,-0.8239871824216607,-0.03051804379333589
1539731987691228,-1.1291676203554744,-1.0070954451819034,0.2746623941404778
1539731987707233,-1.0070954451819034,-1.2512397955290453,0.5798428320745188
1539731987723239,-2.227817196917613,-1.6174563210497581,0.5188067444876197
1539731987739244,-3.3875028610666504,-2.04470893415737,0.5188067444876197
1539731987755250,-4.852368963149502,-2.410925459678083,0.45777065690094787
1539731987771255,-7.721065079728305,-3.1433585107195086,0.33569848172737693
1539731987787261,-10.467689021133765,-3.5095750362402214,-0.03051804379333589
1539731987803266,-10.89494163424115,-3.570611123826893,-0.09155413138023505
1539731987819272,-10.711833371480907,-4.242008087281647,-0.09155413138023505
1539731987835296,-8.697642481116873,-5.3406576638437855,-0.09155413138023505
1539731987851302,-2.5940337224383256,-6.439307240405924,0.5188067444876197
1539731987867307,4.058899824521177,-7.2938124666209205,1.0681315327688026
1539731987883313,6.561379415579495,-7.476920729381163,0.8850232700083325
1539731987899318,4.60822461280236,-7.232776379034021,0.15259021896690683
1539731987915324,1.9226367589837992,-7.17174029144735,-0.09155413138023505
1539731987931329,2.532997634851654,-6.9886320286868795,0.15259021896690683
1539731987947335,3.814755474174035,-7.17174029144735,0.5798428320745188
1539731987963340,3.4485389486533222,-7.476920729381163,0.9460593575952316
1539731987979346,1.3122758831159445,-7.476920729381163,0.8239871824216607
1539731987995351,0.7019150072480898,-7.232776379034021,0.8239871824216607
1539731988011357,3.0823224231326094,-6.805523765926637,1.3122758831159445
1539731988027362,6.500343327992596,-6.256198977645454,1.739528496223329
1539731988043368,8.6366063935302,-5.889982452124741,1.8005645838102282
1539731988059373,10.406652933546866,-5.2185854886702145,1.8005645838102282
1539731988075379,10.650797283894008,-4.242008087281647,1.4953841458761872
1539731988091385,11.20012207217519,-3.3264667734797513,1.4343480582895154
1539731988107390,13.946746013580423,-1.8616006713969,1.8616006713969
1539731988123396,17.059586480506596,-0.33569848172737693,2.9602502479590385
1539731988139401,17.120622568093268,0.45777065690094787,3.875791561760934
1539731988155426,14.129854276340893,0.33569848172737693,3.875791561760934
1539731988171432,10.101472495613052,0.213626306553806,3.875791561760934
1539731988187438,4.60822461280236,0.33569848172737693,3.0212863355459376
1539731988203444,0.6408789196611906,0.7019150072480898,2.7771419851987957
1539731988219450,-4.364080262455218,1.3122758831159445,2.288853284504512
1539731988235456,-11.139085984588291,2.04470893415737,1.0070954451819034
1539731988251462,-17.60891126878755,1.8005645838102282,0.09155413138023505
1539731988267468,-22.980086976424673,1.0681315327688026,-0.7629510948347615
1539731988283474,-22.247653925383247,1.0681315327688026,-1.0681315327688026
1539731988299480,-12.298771648737329,1.6174563210497581,-0.33569848172737693
1539731988315486,-1.0070954451819034,2.105745021744042,0.8239871824216607
1539731988331492,-1.1291676203554744,1.739528496223329,0.7629510948347615
1539731988347498,-9.491111619745197,0.3967345693140487,0.09155413138023505
1539731988363504,-15.838864728770886,-0.7629510948347615,-0.33569848172737693
1539731988379510,-14.068818188753994,-1.3122758831159445,0.5798428320745188
1539731988395516,-7.721065079728305,-1.5564202334630863,2.4719615472647547
1539731988411522,-1.3122758831159445,-1.6174563210497581,3.7537193865873633
1539731988427528,3.2043945983061803,-1.5564202334630863,4.242008087281647
1539731988443534,3.570611123826893,-1.739528496223329,3.7537193865873633
1539731988459540,-1.3733119707026162,-2.04470893415737,2.7161058976118966
1539731988475555,-7.843137254901876,-2.532997634851654,1.3733119707026162
1539731988491561,-9.613183794918768,-2.7161058976118966,0.8239871824216607
1539731988507567,-8.941786831464015,-2.4719615472647547,0.5798428320745188
1539731988523573,-3.3875028610666504,-1.5564202334630863,0.2746623941404778
1539731988539579,4.364080262455218,-0.213626306553806,0.7629510948347615
1539731988555585,8.6366063935302,0.7629510948347615,1.1291676203554744
1539731988571591,6.378271152819025,0.8850232700083325,0.8239871824216607
1539731988587597,2.105745021744042,0.7019150072480898,-0.03051804379333589
1539731988603603,0.5798428320745188,0.6408789196611906,-0.213626306553806
1539731988619609,0.7019150072480898,0.5188067444876197,-0.09155413138023505
1539731988635615,1.1291676203554744,-0.03051804379333589,0.03051804379333589
1539731988651621,1.9226367589837992,-0.3967345693140487,-0.09155413138023505
1539731988667627,4.730296787975931,-0.5798428320745188,0.213626306553806
1539731988683633,10.040436408026153,-0.213626306553806,0.8239871824216607
1539731988699639,15.10643167772946,0.5188067444876197,1.8005645838102282
1539731988715645,16.510261692225413,1.2512397955290453,2.04470893415737
1539731988731651,12.298771648737329,1.983672846570471,1.4953841458761872
1539731988747657,1.983672846570471,1.8005645838102282,0.03051804379333589
1539731988763663,-7.598992904554734,0.6408789196611906,-1.4953841458761872
1539731988779669,-8.026245517662346,-0.5188067444876197,-1.8005645838102282
1539731988795715,0.9460593575952316,-1.0681315327688026,-0.6408789196611906
1539731988811721,11.505302510109004,-1.1902037079423735,0.8239871824216607
1539731988827727,14.251926451514464,-1.5564202334630863,1.3733119707026162
1539731988843733,5.279621576256886,-2.5940337224383256,0.5188067444876197
1539731988859739,-9.73525597009234,-3.814755474174035,-1.1902037079423735
1539731988875745,-19.378957808804444,-4.60822461280236,-2.288853284504512
1539731988891751,-16.632333867398984,-4.42511635004189,-1.8616006713969
1539731988907757,-6.622415503166167,-4.058899824521177,-0.3967345693140487
1539731988923763,0.03051804379333589,-3.7537193865873633,0.45777065690094787
1539731988939769,-0.7629510948347615,-3.875791561760934,0.15259021896690683
1539731988955775,-4.364080262455218,-4.303044174868319,-0.6408789196611906
1539731988971781,-2.166781109330941,-4.730296787975931,-0.7629510948347615
1539731988987787,7.843137254901876,-4.974441138323073,0.5188067444876197
1539731989003793,20.660715648126825,-4.364080262455218,2.5940337224383256
1539731989019799,27.130540932326085,-3.4485389486533222,4.058899824521177
1539731989035805,24.444953078507524,-2.4719615472647547,4.730296787975931
1539731989051811,13.885709925993751,-2.655069810025225,4.303044174868319
1539731989067817,2.04470893415737,-4.119935912108076,3.814755474174035
1539731989083823,-5.645838101777599,-5.096513313496644,3.570611123826893
1539731989099829,-5.279621576256886,-5.462729839017356,3.997863736934505
1539731989115844,-3.997863736934505,-4.60822461280236,3.6316472114137923
1539731989131850,-4.303044174868319,-4.058899824521177,2.5940337224383256
1539731989147856,-4.486152437628789,-3.4485389486533222,1.8005645838102282
1539731989163862,-2.166781109330941,-2.655069810025225,1.6784924086366573
1539731989179868,0.7629510948347615,-1.6784924086366573,1.8005645838102282
1539731989195874,3.2043945983061803,-0.8239871824216607,1.8616006713969
1539731989211880,4.119935912108076,-0.7629510948347615,1.8616006713969
1539731989227886,1.3733119707026162,-0.7019150072480898,1.3122758831159445
1539731989243892,-1.4953841458761872,-0.8239871824216607,0.6408789196611906
1539731989259898,-1.3733119707026162,-1.4953841458761872,0.6408789196611906
1539731989275904,1.3733119707026162,-2.8992141603723667,0.8239871824216607
1539731989291910,2.5940337224383256,-4.547188525215461,1.3122758831159445
1539731989307916,-1.0681315327688026,-5.95101853971164,1.8005645838102282
1539731989323922,-7.354848554207592,-7.782101167315204,1.983672846570471
1539731989339928,-12.664988174258042,-10.955977721828049,2.5940337224383256
1539731989355934,-17.66994735637445,-14.92332341496899,2.166781109330941
1539731989371940,-23.346303501945386,-19.439993896391115,1.0070954451819034
1539731989387946,-29.755092698557974,-23.041123064011572,0.3967345693140487
1539731989403952,-34.149691004806755,-24.01770046540014,-0.5188067444876197
1539731989419958,-14.129854276340893,-20.538643472953254,-1.6174563210497581
1539731989436004,-16.32715342946517,-12.603952086671143,-2.04470893415737
1539731989452010,-34.63797970550104,3.7537193865873633,-1.3733119707026162
1539731989468016,-35.370412756542464,32.86793316548392,1.8005645838102282
1539731989484022,-29.449912260623933,66.25467307545614,5.889982452124741
1539731989500028,-23.224231326771815,94.5754177157246,9.796292057679011
1539731989516034,-29.38887617303726,113.8628213931488,15.289539940489703
1539731989532040,-32.07446402685605,124.78828107118352,20.416571297779683
1539731989548046,-26.031891355763946,125.52071412222494,24.567025253681095
1539731989564052,-19.623102159151586,116.73151750972784,25.787747005416804
1539731989580058,-13.946746013580423,107.82024872205693,26.6422522316318
1539731989596064,-7.598992904554734,98.54276340886554,26.459143968871558
1539731989612070,-1.1291676203554744,88.53284504463272,26.82536049439227
1539731989628076,6.622415503166167,77.97360189211895,26.031891355763946
1539731989644082,15.838864728770886,68.20782787823327,24.505989166094423
1539731989660088,21.210040436408008,66.13260090028234,22.67490653849086
1539731989676094,20.965896086060866,62.53147173266234,21.026932173647538
1539731989692100,25.29945830472252,56.97718776226429,20.17242694743254
1539731989708106,27.191577019912984,50.446326390478134,18.036163881895163
1539731989724112,29.938200961318216,43.18303196765078,15.472648203250174
1539731989740118,35.065232318608196,35.85870145723652,14.190890363927565
1539731989756134,37.689784084840085,24.444953078507524,10.833905546654478
1539731989772140,38.66636148622865,5.889982452124741,6.256198977645454
1539731989788146,42.633707179369594,-14.129854276340893,1.6174563210497581
1539731989804152,44.098573281452445,-31.89135576409558,-1.9226367589837992
1539731989820158,43.54924849317149,-49.22560463874265,-4.180971999694748
1539731989836164,59.60173952849618,-68.08575570305948,-6.9886320286868795
1539731989852170,66.19363698786947,-107.0878156710155,-9.55214770733187
1539731989868176,35.67559319447605,-189.1203173876554,-7.843137254901876
1539731989884182,36.89631494621176,-307.59136339360657,4.42511635004189
1539731989900188,116.30426489662023,-420.7522697795073,31.097886625467254
1539731989916194,-89.99771114671535,-249.48500801098658,12.359807736324
1539731989932200,-180.51422903791877,-44.647898069733856,25.116350041962278
1539731989948206,170.13809414816478,-19.1348134584573,-7.4158846417944915
1539731989964212,24.07873655298681,-75.04386968795302,-18.58548867017612
1539731989980218,-141.87838559548322,-51.72808422980097,-21.759365224688963
1539731989996224,-15.960936903944457,-0.5798428320745188,-44.58686198214696
1539731990012230,-25.116350041962278,34.39383535515367,-49.469748989089794
1539731990028236,-42.26749065384911,73.76211184863087,-38.78843366140245
1539731990044242,-33.5393301289389,96.95582513160934,-18.097199969481835
1539731990060248,-22.8580148012511,96.83375295643555,3.1433585107195086
1539731990076294,-10.650797283894008,82.55130846112797,17.24269474326684
1539731990092300,2.532997634851654,62.897688258182825,25.23842221713585
1539731990108307,11.261158159761862,41.535057602807456,26.6422522316318
1539731990124313,12.909132524605184,20.11139085984587,25.23842221713585
1539731990140319,5.401693751430457,-1.0681315327688026,22.003509575036105
1539731990156326,1.983672846570471,-15.594720378423744,18.158236057068734
1539731990172332,2.4719615472647547,-23.163195239185143,13.519493400473038
1539731990188339,7.354848554207592,-28.534370946822264,7.904173342488775
1539731990204345,9.430075532158298,-31.525139238574866,3.0823224231326094
1539731990220352,5.2185854886702145,-30.4875257495994,1.4953841458761872
1539731990236358,3.6316472114137923,-29.51094834821083,2.227817196917613
1539731990252365,3.936827649347606,-29.08369573510322,3.570611123826893
1539731990268371,9.185931181811156,-27.86297398336751,4.547188525215461
1539731990284378,11.871519035629717,-23.7125200274661,4.9134050507361735
1539731990300384,5.462729839017356,-18.036163881895163,4.9134050507361735
1539731990316391,-3.7537193865873633,-12.481879911497572,5.157549401083315
1539731990332397,-4.486152437628789,-8.880750743877343,3.936827649347606
1539731990348404,-2.7771419851987957,-8.209353780422589,2.5940337224383256
1539731990364410,1.5564202334630863,-9.063859006637585,2.3498893720911838
1539731990380416,3.3264667734797513,-8.819714656290444,1.9226367589837992
1539731990396453,-0.7019150072480898,-8.026245517662346,1.6784924086366573
1539731990412460,-1.5564202334630863,-8.880750743877343,1.8005645838102282
1539731990428466,2.288853284504512,-10.772869459067579,2.04470893415737
1539731990444473,2.166781109330941,-10.89494163424115,1.6784924086366573
1539731990460479,3.1433585107195086,-9.85732814526591,0.7629510948347615
1539731990476486,-1.4343480582895154,-11.627374685282575,-0.5188067444876197
1539731990492492,-4.9134050507361735,-14.129854276340893,-0.8239871824216607
1539731990508499,-3.692683299000464,-15.350576028076603,-0.45777065690094787
1539731990524505,2.166781109330941,-15.411612115663274,1.1291676203554744
1539731990540512,7.843137254901876,-15.228503852903032,2.8381780727854675
1539731990556518,9.002822919050914,-16.32715342946517,4.180971999694748
1539731990572525,4.486152437628789,-17.79201953154802,5.76791027695117
1539731990588531,4.303044174868319,-18.219272144655406,6.561379415579495
1539731990604538,6.744487678339738,-16.571297779812312,5.95101853971164
1539731990620544,5.157549401083315,-14.312962539101136,4.669260700389032
1539731990636551,3.0823224231326094,-12.603952086671143,3.6316472114137923
1539731990652557,1.6784924086366573,-11.139085984588291,2.5940337224383256
1539731990668563,-0.7019150072480898,-9.979400320439481,1.3122758831159445
1539731990684570,-3.2043945983061803,-9.002822919050914,-1.4343480582895154
1539731990700576,-1.0070954451819034,-3.6316472114137923,-4.730296787975931
1539731990716583,-14.373998626688035,6.805523765926637,-6.012054627298312
1539731990732589,-9.73525597009234,3.2654306858930795,-6.195162890058782
1539731990748596,-2.166781109330941,-4.42511635004189,-6.8665598535133086
1539731990764602,-2.4719615472647547,-4.730296787975931,-4.486152437628789
1539731990780609,3.3875028610666504,-0.15259021896690683,-2.5940337224383256
1539731990796615,8.087281605249018,1.3733119707026162,-2.04470893415737
1539731990812622,6.8665598535133086,2.8381780727854675,-2.3498893720911838
1539731990828628,2.8992141603723667,5.401693751430457,-2.532997634851654
1539731990844635,2.105745021744042,7.598992904554734,-2.166781109330941
1539731990860641,3.5095750362402214,8.575570305943302,-1.6174563210497581
1539731990876648,3.0823224231326094,7.843137254901876,-1.3733119707026162
1539731990892654,1.0681315327688026,6.012054627298312,-1.8005645838102282
1539731990908661,1.9226367589837992,3.570611123826893,-1.8616006713969
1539731990924667,5.584802014190927,1.4343480582895154,-1.6784924086366573
1539731990940673,8.392462043183059,-0.7629510948347615,-1.5564202334630863
1539731990956680,8.6366063935302,-3.2043945983061803,-1.6784924086366573
1539731990972686,7.660028992141633,-5.2185854886702145,-2.227817196917613
1539731990988693,8.6366063935302,-6.439307240405924,-2.7771419851987957
1539731991004699,12.115663385976859,-5.3406576638437855,-2.655069810025225
1539731991020706,13.702601663233281,-2.4719615472647547,-1.983672846570471
1539731991036743,10.223544670786623,1.3122758831159445,-1.739528496223329
1539731991052749,4.60822461280236,4.974441138323073,-1.4953841458761872
1539731991068756,0.45777065690094787,7.232776379034021,-0.6408789196611906
1539731991084762,-2.04470893415737,8.575570305943302,0.15259021896690683
1539731991100769,-3.7537193865873633,8.941786831464015,0.2746623941404778
1539731991116775,-8.209353780422589,6.073090714885211,-0.6408789196611906
1539731991132782,-12.909132524605184,1.3733119707026162,-2.7771419851987957
1539731991148788,-9.308003356984727,-2.532997634851654,-4.486152437628789
1539731991164795,6.012054627298312,-3.875791561760934,-4.486152437628789
1539731991180801,23.346303501945386,-4.058899824521177,-3.5095750362402214
1539731991196807,32.257572289616064,-3.5095750362402214,-2.532997634851654
1539731991212814,28.229190508888223,-1.8616006713969,-2.5940337224383256
1539731991228820,16.632333867398984,0.33569848172737693,-3.2654306858930795
1539731991244827,7.354848554207592,2.4719615472647547,-2.8992141603723667
1539731991260833,2.9602502479590385,4.119935912108076,-1.9226367589837992
1539731991276840,-0.213626306553806,3.814755474174035,-1.0070954451819034
1539731991292846,-3.692683299000464,1.8005645838102282,-1.1291676203554744
1539731991308853,-3.570611123826893,-1.0070954451819034,-1.4343480582895154
1539731991324859,-0.3967345693140487,-3.3875028610666504,-1.3122758831159445
1539731991340866,2.5940337224383256,-4.974441138323073,-0.9460593575952316
1539731991356872,3.0823224231326094,-5.76791027695117,-0.7019150072480898
1539731991372879,1.3733119707026162,-5.76791027695117,-0.6408789196611906
1539731991388885,-1.4343480582895154,-5.706874189364498,-0.7019150072480898
1539731991404892,-3.692683299000464,-5.889982452124741,-0.8850232700083325
1539731991420898,-4.486152437628789,-5.645838101777599,-1.1902037079423735
1539731991436905,-2.227817196917613,-4.242008087281647,-0.8239871824216607
1539731991452911,2.410925459678083,-1.983672846570471,0.33569848172737693
1539731991468917,5.95101853971164,0.5798428320745188,1.6174563210497581
1539731991484924,5.096513313496644,2.105745021744042,2.4719615472647547
1539731991500930,0.2746623941404778,2.4719615472647547,2.5940337224383256
1539731991516937,-4.730296787975931,1.5564202334630863,2.288853284504512
1539731991532943,-7.660028992141633,-0.03051804379333589,1.5564202334630863
1539731991548950,-5.76791027695117,-1.6784924086366573,1.4343480582895154
1539731991564956,-0.7019150072480898,-2.7771419851987957,1.4343480582895154
1539731991580963,4.058899824521177,-3.3875028610666504,1.2512397955290453
1539731991596969,4.60822461280236,-3.3875028610666504,0.7019150072480898
1539731991612976,1.8005645838102282,-3.0823224231326094,-0.33569848172737693
1539731991628982,-0.33569848172737693,-2.655069810025225,-0.5798428320745188
1539731991644989,-0.7629510948347615,-1.5564202334630863,-0.6408789196611906
1539731991660995,-0.7019150072480898,0.03051804379333589,-0.6408789196611906
1539731991677032,-1.3122758831159445,1.6784924086366573,-0.3967345693140487
1539731991693039,-1.8616006713969,2.9602502479590385,-0.213626306553806
1539731991709045,-1.8005645838102282,3.692683299000464,0.03051804379333589
1539731991725052,-2.227817196917613,3.2654306858930795,0.213626306553806
1539731991741058,-3.6316472114137923,1.739528496223329,0.03051804379333589
1539731991757064,-5.645838101777599,-0.213626306553806,-0.45777065690094787
1539731991773071,-6.012054627298312,-1.6174563210497581,-0.8239871824216607
1539731991789077,-3.5095750362402214,-2.288853284504512,-0.8239871824216607
1539731991805084,-0.03051804379333589,-2.288853284504512,-0.5188067444876197
1539731991821090,1.983672846570471,-2.105745021744042,-0.45777065690094787
1539731991837097,1.8005645838102282,-2.166781109330941,-0.6408789196611906
1539731991853103,0.7629510948347615,-2.288853284504512,-0.7629510948347615
1539731991869110,-0.03051804379333589,-2.3498893720911838,-0.5188067444876197
1539731991885116,-0.7629510948347615,-1.739528496223329,-0.09155413138023505
1539731991901123,-1.8005645838102282,-1.0681315327688026,0.2746623941404778
1539731991917129,-1.983672846570471,-0.6408789196611906,0.8239871824216607
1539731991933136,-2.227817196917613,-0.45777065690094787,1.3733119707026162
1539731991949142,-2.7771419851987957,-0.45777065690094787,1.6784924086366573
1539731991965149,-2.3498893720911838,-0.213626306553806,1.9226367589837992
1539731991981155,-1.8616006713969,-0.7629510948347615,2.105745021744042
1539731991997161,-2.105745021744042,-1.8616006713969,2.04470893415737
1539731992013168,-1.739528496223329,-2.8381780727854675,1.983672846570471
1539731992029174,-1.4953841458761872,-3.1433585107195086,1.8616006713969
1539731992045181,-1.8616006713969,-3.3875028610666504,1.6784924086366573
1539731992061187,-2.3498893720911838,-3.2043945983061803,1.6784924086366573
1539731992077194,-2.8381780727854675,-2.4719615472647547,1.4953841458761872
1539731992093200,-2.5940337224383256,-1.8616006713969,1.2512397955290453
1539731992109207,-1.6784924086366573,-1.3122758831159445,1.3733119707026162
1539731992125213,-1.6784924086366573,-0.8239871824216607,1.1902037079423735
1539731992141220,-1.9226367589837992,-0.7629510948347615,1.1902037079423735
1539731992157226,-2.105745021744042,-1.0070954451819034,1.3733119707026162
1539731992173233,-2.7161058976118966,-1.2512397955290453,1.2512397955290453
1539731992189239,-3.7537193865873633,-1.4953841458761872,1.0070954451819034
1539731992205246,-4.42511635004189,-1.8005645838102282,0.5798428320745188
1539731992221252,-4.486152437628789,-1.9226367589837992,0.15259021896690683
1539731992237259,-3.3264667734797513,-1.8616006713969,-0.09155413138023505
1539731992253265,-2.288853284504512,-1.739528496223329,-0.5188067444876197
1539731992269271,-1.4343480582895154,-1.8005645838102282,-0.6408789196611906
1539731992285278,-0.7629510948347615,-2.04470893415737,-0.5188067444876197
1539731992301284,-1.4953841458761872,-2.105745021744042,-0.6408789196611906
1539731992317321,-3.0212863355459376,-1.983672846570471,-0.8850232700083325
1539731992333328,-3.997863736934505,-1.8005645838102282,-0.8239871824216607
1539731992349335,-4.60822461280236,-1.4343480582895154,-0.8239871824216607
1539731992365342,-3.814755474174035,-0.8850232700083325,-0.7019150072480898
1539731992381349,-3.936827649347606,-0.5188067444876197,-0.5188067444876197
1539731992397356,-6.439307240405924,-0.5188067444876197,-0.5188067444876197
1539731992413363,-9.613183794918768,-0.6408789196611906,-0.5798428320745188
1539731992429370,-11.383230334935433,-0.7019150072480898,-0.5798428320745188
1539731992445377,-10.284580758373295,-0.7019150072480898,-0.45777065690094787
1539731992461384,-6.9886320286868795,-0.09155413138023505,0.15259021896690683
1539731992477391,-4.119935912108076,0.33569848172737693,-0.09155413138023505
1539731992493398,-1.3122758831159445,0.6408789196611906,-0.3967345693140487
1539731992509405,0.09155413138023505,0.2746623941404778,-0.7019150072480898
1539731992525412,0.03051804379333589,-0.45777065690094787,-1.0070954451819034
1539731992541419,0.6408789196611906,-0.8850232700083325,-1.1291676203554744
1539731992557426,2.5940337224383256,-1.3122758831159445,-0.7019150072480898
1539731992573433,3.936827649347606,-1.5564202334630863,-0.213626306553806
1539731992589439,3.875791561760934,-1.6174563210497581,-0.15259021896690683
1539731992605446,4.058899824521177,-1.8616006713969,0.2746623941404778
1539731992621453,2.532997634851654,-2.166781109330941,0.45777065690094787
1539731992637451,-1.1291676203554744,-2.532997634851654,0.15259021896690683
1539731992653458,-3.2654306858930795,-2.5940337224383256,-0.3967345693140487
1539731992669465,-1.1291676203554744,-2.3498893720911838,-0.33569848172737693
1539731992685472,1.983672846570471,-2.04470893415737,-0.33569848172737693
1539731992701479,3.3264667734797513,-1.9226367589837992,-0.5798428320745188
1539731992717486,3.0212863355459376,-2.227817196917613,-0.7629510948347615
1539731992733492,1.5564202334630863,-2.105745021744042,-1.1291676203554744
1539731992749499,0.7629510948347615,-1.6784924086366573,-1.2512397955290453
1539731992765506,0.2746623941404778,-1.3733119707026162,-1.1902037079423735
1539731992781513,0.3967345693140487,-1.3122758831159445,-0.8850232700083325
1539731992797520,1.983672846570471,-1.4343480582895154,-0.45777065690094787
1539731992813527,3.875791561760934,-1.2512397955290453,0.09155413138023505
1539731992829534,4.42511635004189,-1.3122758831159445,0.45777065690094787
1539731992845541,3.2043945983061803,-1.3733119707026162,0.8239871824216607
1539731992861548,0.7019150072480898,-1.6174563210497581,0.7019150072480898
1539731992877555,0.3967345693140487,-1.9226367589837992,0.213626306553806
1539731992893562,7.476920729381163,-1.8005645838102282,0.5188067444876197
1539731992909569,18.70756084534969,-0.5798428320745188,1.6784924086366573
1539731992925576,20.599679560540153,0.2746623941404778,1.739528496223329
1539731992941583,11.01701380941472,-0.15259021896690683,0.213626306553806
1539731992957611,-0.33569848172737693,-0.7629510948347615,-1.4953841458761872
1539731992973618,-5.0354772259097444,-1.3122758831159445,-2.3498893720911838
1539731992989625,-2.3498893720911838,-1.4343480582895154,-1.9226367589837992
1539731993005632,3.692683299000464,-1.6174563210497581,-0.8850232700083325
1539731993021638,7.2938124666209205,-1.739528496223329,-0.213626306553806
1539731993037645,4.730296787975931,-2.3498893720911838,-0.5188067444876197
1539731993053652,-1.4343480582895154,-3.0823224231326094,-1.3122758831159445
1539731993069659,-5.2185854886702145,-3.570611123826893,-1.8616006713969
1539731993085666,-1.6784924086366573,-3.570611123826893,-1.4343480582895154
1539731993101673,5.76791027695117,-2.9602502479590385,-0.33569848172737693
1539731993117680,9.85732814526591,-2.4719615472647547,0.3967345693140487
1539731993133687,6.500343327992596,-2.532997634851654,-0.03051804379333589
1539731993149694,-0.7019150072480898,-2.655069810025225,-1.0070954451819034
1539731993165701,-6.317235065232353,-2.410925459678083,-1.5564202334630863
1539731993181708,-7.049668116273779,-1.8005645838102282,-1.2512397955290453
1539731993197715,-3.3264667734797513,-1.3122758831159445,-0.8850232700083325
1539731993213722,2.04470893415737,-0.8850232700083325,-0.45777065690094787
1539731993229729,4.60822461280236,-0.8850232700083325,-0.3967345693140487
1539731993245736,1.3122758831159445,-1.5564202334630863,-1.0681315327688026
1539731993261743,-4.180971999694748,-2.227817196917613,-2.166781109330941
1539731993277771,-5.706874189364498,-2.227817196917613,-2.5940337224383256
1539731993293778,-1.6784924086366573,-1.6784924086366573,-2.410925459678083
1539731993309785,3.5095750362402214,-1.1291676203554744,-1.983672846570471
1539731993325791,4.364080262455218,-1.1291676203554744,-1.8005645838102282
1539731993341798,0.2746623941404778,-1.739528496223329,-2.288853284504512
1539731993357805,-4.42511635004189,-2.4719615472647547,-2.8381780727854675
1539731993373812,-4.242008087281647,-2.7771419851987957,-2.9602502479590385
1539731993389819,-0.03051804379333589,-2.288853284504512,-2.410925459678083
1539731993405826,3.0823224231326094,-1.6174563210497581,-1.5564202334630863
1539731993421833,0.8239871824216607,-1.3122758831159445,-1.4953841458761872
1539731993437840,-4.9134050507361735,-1.3122758831159445,-1.9226367589837992
1539731993453847,-8.33142595559616,-1.6784924086366573,-2.288853284504512
1539731993469854,-4.364080262455218,-1.4953841458761872,-1.8005645838102282
1539731993485861,2.7771419851987957,-0.8850232700083325,-0.8239871824216607
1539731993501868,4.9134050507361735,-1.0070954451819034,-0.5188067444876197
1539731993517875,2.410925459678083,-1.2512397955290453,-0.8850232700083325
1539731993533882,-0.9460593575952316,-1.4343480582895154,-1.3733119707026162
1539731993549889,-3.1433585107195086,-1.2512397955290453,-1.8616006713969
1539731993565896,-2.04470893415737,-1.3122758831159445,-1.983672846570471
1539731993581903,0.9460593575952316,-1.3122758831159445,-1.6174563210497581
1539731993597900,2.166781109330941,-1.4343480582895154,-1.4953841458761872
1539731993613907,0.5798428320745188,-1.6784924086366573,-2.04470893415737
1539731993629914,-1.3122758831159445,-1.6784924086366573,-2.5940337224383256
1539731993645921,-1.3733119707026162,-1.8616006713969,-2.655069810025225
1539731993661928,-0.03051804379333589,-1.8005645838102282,-2.105745021744042
1539731993677935,1.0070954451819034,-1.8616006713969,-1.6784924086366573
1539731993693942,1.8616006713969,-1.983672846570471,-1.6784924086366573
1539731993709949,2.410925459678083,-2.04470893415737,-1.4343480582895154
1539731993725956,0.7629510948347615,-1.983672846570471,-1.4953841458761872
1539731993741963,-2.227817196917613,-2.04470893415737,-1.6784924086366573
1539731993757969,-4.303044174868319,-2.227817196917613,-1.8616006713969
1539731993773976,-2.166781109330941,-2.288853284504512,-1.6174563210497581
1539731993789983,2.288853284504512,-1.8616006713969,-1.1291676203554744
1539731993805990,4.364080262455218,-1.9226367589837992,-1.0070954451819034
1539731993821997,3.2043945983061803,-2.166781109330941,-1.3122758831159445
1539731993838004,1.3122758831159445,-2.3498893720911838,-1.5564202334630863
1539731993854011,0.7019150072480898,-2.410925459678083,-1.6174563210497581
1539731993870018,1.983672846570471,-2.532997634851654,-1.3122758831159445
1539731993886025,4.242008087281647,-2.3498893720911838,-1.1291676203554744
1539731993902032,5.096513313496644,-2.227817196917613,-1.0070954451819034
1539731993918060,3.692683299000464,-2.166781109330941,-1.1902037079423735
1539731993934067,1.3733119707026162,-2.288853284504512,-1.4343480582895154
1539731993950074,-0.45777065690094787,-2.3498893720911838,-1.4953841458761872
1539731993966081,-0.5798428320745188,-2.227817196917613,-1.5564202334630863
1539731993982088,1.6784924086366573,-1.8616006713969,-1.2512397955290453
1539731993998095,3.875791561760934,-1.4343480582895154,-0.8850232700083325
1539731994014102,3.2654306858930795,-1.1902037079423735,-1.0070954451819034
1539731994030109,1.0070954451819034,-1.0681315327688026,-1.4953841458761872
1539731994046116,-0.2746623941404778,-0.8239871824216607,-1.8616006713969
1539731994062122,0.5798428320745188,-0.7019150072480898,-1.739528496223329
1539731994078129,2.288853284504512,-0.5798428320745188,-1.1902037079423735
1539731994094136,2.410925459678083,-0.8239871824216607,-1.0070954451819034
1539731994110143,1.0070954451819034,-1.1291676203554744,-1.3122758831159445
1539731994126150,0.213626306553806,-1.2512397955290453,-1.5564202334630863
1539731994142157,0.45777065690094787,-1.0681315327688026,-1.3122758831159445
1539731994158164,0.7629510948347615,-1.0070954451819034,-0.9460593575952316
1539731994174171,1.0070954451819034,-0.8850232700083325,-0.5798428320745188
1539731994190178,1.8005645838102282,-1.1902037079423735,-0.2746623941404778
1539731994206185,2.410925459678083,-1.5564202334630863,0.03051804379333589
1539731994222192,2.166781109330941,-1.8616006713969,0.213626306553806
1539731994238189,1.3733119707026162,-1.8005645838102282,0.5188067444876197
1539731994254196,0.15259021896690683,-1.6174563210497581,0.5798428320745188
1539731994270203,-0.33569848172737693,-1.2512397955290453,0.7019150072480898
1539731994286210,0.09155413138023505,-1.2512397955290453,0.6408789196611906
1539731994302217,0.5188067444876197,-1.3733119707026162,0.7019150072480898
1539731994318224,0.33569848172737693,-1.6174563210497581,0.6408789196611906
1539731994334231,0.09155413138023505,-2.04470893415737,0.5798428320745188
1539731994350238,1.0070954451819034,-2.166781109330941,0.5188067444876197
1539731994366245,2.227817196917613,-1.9226367589837992,0.6408789196611906
1539731994382252,1.6174563210497581,-1.2512397955290453,0.5798428320745188
1539731994398259,-0.7629510948347615,-0.7629510948347615,0.33569848172737693
1539731994414266,-2.7161058976118966,-0.6408789196611906,0.03051804379333589
1539731994430273,-1.739528496223329,-0.6408789196611906,-0.15259021896690683
1539731994446280,0.8850232700083325,-0.8850232700083325,-0.03051804379333589
1539731994462287,2.04470893415737,-0.7629510948347615,0.09155413138023505
1539731994478294,1.9226367589837992,-0.7629510948347615,0.2746623941404778
1539731994494300,0.9460593575952316,-0.5798428320745188,0.33569848172737693
1539731994510307,-0.213626306553806,-0.45777065690094787,0.45777065690094787
1539731994526314,-1.8616006713969,-0.45777065690094787,0.3967345693140487
1539731994542321,-3.0823224231326094,-0.7629510948347615,0.33569848172737693
1539731994558349,-2.7161058976118966,-1.1902037079423735,0.2746623941404778
1539731994574356,-0.3967345693140487,-1.5564202334630863,0.2746623941404778
1539731994590363,0.8850232700083325,-1.5564202334630863,0.2746623941404778
1539731994606370,0.213626306553806,-1.8616006713969,-0.09155413138023505
1539731994622377,-0.213626306553806,-2.04470893415737,-0.15259021896690683
1539731994638384,0.15259021896690683,-2.105745021744042,-0.03051804379333589
1539731994654391,1.6784924086366573,-1.9226367589837992,0.2746623941404778
1539731994670398,3.2043945983061803,-1.739528496223329,0.5188067444876197
1539731994686405,2.9602502479590385,-1.8005645838102282,0.3967345693140487
1539731994702412,1.1291676203554744,-2.105745021744042,0.09155413138023505
1539731994718419,-0.45777065690094787,-2.04470893415737,-0.03051804379333589
1539731994734426,-0.03051804379333589,-1.8616006713969,-0.03051804379333589
1539731994750433,1.4343480582895154,-1.3733119707026162,0.03051804379333589
1539731994766440,1.4953841458761872,-1.1291676203554744,-0.09155413138023505
1539731994782446,-0.03051804379333589,-1.0070954451819034,-0.5798428320745188
1539731994798453,-0.9460593575952316,-0.8239871824216607,-0.9460593575952316
1539731994814460,-1.1902037079423735,-0.5798428320745188,-1.1902037079423735
1539731994830467,-2.7161058976118966,-0.3967345693140487,-1.5564202334630863
1539731994846474,-3.6316472114137923,-0.5188067444876197,-1.5564202334630863
1539731994862481,-4.60822461280236,-0.5798428320745188,-1.6174563210497581
1539731994878479,-3.2654306858930795,-0.5798428320745188,-1.6174563210497581
1539731994894486,-0.03051804379333589,-0.213626306553806,-1.2512397955290453
1539731994910493,3.4485389486533222,-0.09155413138023505,-0.8239871824216607
1539731994926499,4.180971999694748,-0.45777065690094787,-0.3967345693140487
1539731994942506,3.1433585107195086,-0.7629510948347615,-0.5798428320745188
1539731994958513,2.8992141603723667,-0.8850232700083325,-0.5188067444876197
1539731994974520,2.7771419851987957,-1.1291676203554744,-0.5188067444876197
1539731994990527,1.4953841458761872,-1.4343480582895154,-0.6408789196611906
1539731995006534,-0.213626306553806,-2.04470893415737,-0.8239871824216607
1539731995022541,1.0070954451819034,-2.410925459678083,-0.7629510948347615
1539731995038548,3.3264667734797513,-2.227817196917613,-0.5188067444876197
1539731995054555,3.3264667734797513,-2.04470893415737,-0.45777065690094787
1539731995070562,1.3733119707026162,-2.166781109330941,-0.6408789196611906
1539731995086569,1.2512397955290453,-2.04470893415737,-0.5798428320745188
1539731995102576,1.6784924086366573,-1.6784924086366573,-0.45777065690094787
1539731995118583,0.5188067444876197,-1.739528496223329,-0.5798428320745188
1539731995134590,-0.09155413138023505,-1.6784924086366573,-0.5798428320745188
1539731995150597,1.3122758831159445,-1.3122758831159445,-0.3967345693140487
1539731995166604,2.4719615472647547,-0.9460593575952316,-0.2746623941404778
1539731995182611,1.6784924086366573,-0.7629510948347615,-0.33569848172737693
1539731995198639,-0.15259021896690683,-0.8850232700083325,-0.7019150072480898
1539731995214645,-0.3967345693140487,-0.7629510948347615,-0.7629510948347615
1539731995230652,0.6408789196611906,-0.6408789196611906,-0.6408789196611906
1539731995246659,0.7629510948347615,-0.7019150072480898,-0.8239871824216607
1539731995262666,-0.33569848172737693,-1.1902037079423735,-0.9460593575952316
1539731995278673,-0.7019150072480898,-1.5564202334630863,-1.1902037079423735
1539731995294680,-0.33569848172737693,-1.739528496223329,-1.2512397955290453
1539731995310687,0.5188067444876197,-1.8005645838102282,-1.1902037079423735
1539731995326694,1.1291676203554744,-1.8005645838102282,-0.9460593575952316
1539731995342701,0.3967345693140487,-1.8005645838102282,-1.0070954451819034
1539731995358708,-0.7019150072480898,-1.8005645838102282,-1.0070954451819034
1539731995374715,-1.0070954451819034,-1.6784924086366573,-0.8239871824216607
1539731995390722,-0.8850232700083325,-1.4343480582895154,-0.5798428320745188
1539731995406729,-2.3498893720911838,-1.3122758831159445,-0.6408789196611906
1539731995422736,-5.95101853971164,-1.3122758831159445,-0.8850232700083325
1539731995438743,-9.308003356984727,-1.3733119707026162,-0.9460593575952316
1539731995454750,-12.298771648737329,-1.3733119707026162,-1.2512397955290453
1539731995470757,-12.909132524605184,-1.4343480582895154,-1.6174563210497581
1539731995486764,-8.819714656290444,-1.2512397955290453,-1.4953841458761872
1539731995502771,-1.8616006713969,-1.0681315327688026,-1.1291676203554744
1539731995518768,2.4719615472647547,-0.9460593575952316,-1.1291676203554744
1539731995534775,2.7771419851987957,-1.1291676203554744,-1.6174563210497581
1539731995550782,1.0681315327688026,-1.2512397955290453,-2.105745021744042
1539731995566789,0.2746623941404778,-1.2512397955290453,-2.166781109330941
1539731995582796,1.0681315327688026,-0.9460593575952316,-1.739528496223329
1539731995598803,2.410925459678083,-0.8850232700083325,-1.1902037079423735
1539731995614810,2.8381780727854675,-1.0070954451819034,-0.9460593575952316
1539731995630817,2.5940337224383256,-1.2512397955290453,-0.9460593575952316
1539731995646824,2.105745021744042,-1.6174563210497581,-1.0070954451819034
1539731995662830,1.8616006713969,-1.8616006713969,-0.9460593575952316
1539731995678837,2.5940337224383256,-1.8005645838102282,-0.6408789196611906
1539731995694844,3.2043945983061803,-1.8005645838102282,-0.213626306553806
1539731995710851,2.5940337224383256,-1.6784924086366573,0.03051804379333589
1539731995726858,0.5798428320745188,-1.8616006713969,-0.03051804379333589
1539731995742865,-0.8850232700083325,-2.04470893415737,-0.213626306553806
1539731995758872,-0.8239871824216607,-2.04470893415737,-0.2746623941404778
1539731995774879,-0.09155413138023505,-1.983672846570471,-0.213626306553806
1539731995790886,0.33569848172737693,-1.9226367589837992,-0.33569848172737693
1539731995806893,0.5798428320745188,-1.6784924086366573,-0.45777065690094787
1539731995822900,1.1902037079423735,-1.6784924086366573,-0.3967345693140487
1539731995838928,1.5564202334630863,-1.739528496223329,-0.213626306553806
1539731995854935,1.3122758831159445,-1.8616006713969,-0.213626306553806
1539731995870942,0.8239871824216607,-1.8616006713969,-0.15259021896690683
1539731995886949,0.5188067444876197,-1.5564202334630863,-0.2746623941404778
1539731995902956,0.8239871824216607,-1.2512397955290453,-0.213626306553806
1539731995918963,0.7019150072480898,-1.0070954451819034,-0.03051804379333589
1539731995934970,-0.8239871824216607,-0.7019150072480898,-0.213626306553806
1539731995950976,-1.6174563210497581,-0.5798428320745188,-0.2746623941404778
1539731995966983,-0.33569848172737693,-0.45777065690094787,-0.15259021896690683
1539731995982990,0.8850232700083325,-0.3967345693140487,-0.15259021896690683
1539731995998997,-0.15259021896690683,-0.5188067444876197,-0.6408789196611906
1539731996015004,-1.8616006713969,-0.8850232700083325,-1.0681315327688026
1539731996031011,-1.983672846570471,-1.2512397955290453,-1.3122758831159445
1539731996047018,0.3967345693140487,-1.4343480582895154,-1.3733119707026162
1539731996063025,2.105745021744042,-1.1902037079423735,-1.3733119707026162
1539731996079032,1.739528496223329,-1.2512397955290453,-1.4953841458761872
1539731996095039,-0.15259021896690683,-1.6174563210497581,-1.8616006713969
1539731996111046,-0.8239871824216607,-2.04470893415737,-1.983672846570471
1539731996127053,0.09155413138023505,-2.3498893720911838,-1.6784924086366573
1539731996143060,0.5188067444876197,-2.3498893720911838,-1.3122758831159445
1539731996159057,-0.9460593575952316,-2.4719615472647547,-1.0681315327688026
1539731996175064,-3.997863736934505,-2.5940337224383256,-0.8850232700083325
1539731996191071,-6.317235065232353,-2.655069810025225,-0.7019150072480898
1539731996207078,-7.354848554207592,-2.655069810025225,-0.7019150072480898
1539731996223085,-6.805523765926637,-2.532997634851654,-0.45777065690094787
1539731996239092,-4.730296787975931,-2.3498893720911838,0.09155413138023505
1539731996255099,-1.6784924086366573,-1.9226367589837992,0.7019150072480898
1539731996271106,0.33569848172737693,-1.4953841458761872,1.0681315327688026
1539731996287113,0.3967345693140487,-1.1291676203554744,1.0070954451819034
1539731996303120,-0.2746623941404778,-0.8850232700083325,0.7019150072480898
1539731996319127,-0.8850232700083325,-0.6408789196611906,0.3967345693140487
1539731996335134,-0.45777065690094787,-0.7019150072480898,0.2746623941404778
1539731996351141,1.0070954451819034,-0.9460593575952316,0.45777065690094787
1539731996367148,1.6174563210497581,-1.3122758831159445,0.5188067444876197
1539731996383154,0.5188067444876197,-1.6784924086366573,0.3967345693140487
1539731996399161,-1.3733119707026162,-1.6174563210497581,0.213626306553806
1539731996415168,-2.227817196917613,-1.3733119707026162,0.15259021896690683
1539731996431175,-1.4953841458761872,-1.0070954451819034,0.33569848172737693
1539731996447182,-0.2746623941404778,-0.6408789196611906,0.5188067444876197
1539731996463189,-0.213626306553806,-0.5188067444876197,0.33569848172737693
1539731996479217,-1.1291676203554744,-0.7019150072480898,0.03051804379333589
1539731996495224,-1.983672846570471,-1.0681315327688026,-0.45777065690094787
1539731996511231,-1.3122758831159445,-1.4343480582895154,-0.3967345693140487
1539731996527238,-0.213626306553806,-1.6784924086366573,-0.2746623941404778
1539731996543245,-0.09155413138023505,-1.6174563210497581,-0.2746623941404778
1539731996559252,-0.8239871824216607,-1.3733119707026162,-0.5188067444876197
1539731996575259,-1.6784924086366573,-1.3733119707026162,-0.8239871824216607
1539731996591266,-1.4953841458761872,-1.3122758831159445,-0.9460593575952316
1539731996607273,-0.8850232700083325,-1.3733119707026162,-0.7629510948347615
1539731996623280,-1.1902037079423735,-1.4343480582895154,-0.7019150072480898
1539731996639287,-1.739528496223329,-1.4953841458761872,-0.5188067444876197
1539731996655294,-2.166781109330941,-1.4953841458761872,-0.2746623941404778
1539731996671301,-2.3498893720911838,-1.4953841458761872,0.09155413138023505
1539731996687307,-2.7771419851987957,-1.5564202334630863,0.15259021896690683
1539731996703314,-3.2043945983061803,-1.8005645838102282,0.213626306553806
1539731996719321,-3.0823224231326094,-1.9226367589837992,0.2746623941404778
1539731996735328,-2.7161058976118966,-2.166781109330941,0.33569848172737693
1539731996751335,-2.3498893720911838,-2.4719615472647547,0.15259021896690683
1539731996767342,-2.04470893415737,-2.532997634851654,-0.03051804379333589
1539731996783349,-1.1902037079423735,-2.7161058976118966,-0.09155413138023505
1539731996799377,-0.8239871824216607,-2.7771419851987957,-0.09155413138023505
1539731996815384,-0.3967345693140487,-2.5940337224383256,-0.03051804379333589
1539731996831391,0.15259021896690683,-2.288853284504512,0.15259021896690683
1539731996847398,0.213626306553806,-2.04470893415737,0.33569848172737693
1539731996863405,-0.15259021896690683,-1.739528496223329,0.5188067444876197
1539731996879412,-0.5798428320745188,-1.4953841458761872,0.6408789196611906
1539731996895419,-0.7019150072480898,-1.3122758831159445,0.7019150072480898
1539731996911426,-0.6408789196611906,-1.2512397955290453,0.8850232700083325
1539731996927433,-0.213626306553806,-1.2512397955290453,1.1291676203554744
1539731996943440,0.09155413138023505,-1.0070954451819034,1.1291676203554744
1539731996959447,0.6408789196611906,-0.7629510948347615,1.0070954451819034
1539731996975453,1.9226367589837992,-0.5798428320745188,1.0681315327688026
1539731996991460,2.655069810025225,-0.7019150072480898,1.0070954451819034
1539731997007467,2.227817196917613,-0.8239871824216607,0.7629510948347615
1539731997023474,0.33569848172737693,-0.7629510948347615,0.33569848172737693
1539731997039481,-1.5564202334630863,-0.7629510948347615,-0.213626306553806
1539731997055488,-1.739528496223329,-0.6408789196611906,-0.45777065690094787
1539731997071495,0.15259021896690683,-0.2746623941404778,-0.5188067444876197
1539731997087502,2.227817196917613,-0.09155413138023505,-0.213626306553806
1539731997103509,2.410925459678083,-0.03051804379333589,-0.09155413138023505
1539731997119506,1.3733119707026162,-0.03051804379333589,0.03051804379333589
1539731997135513,0.3967345693140487,-0.3967345693140487,0.15259021896690683
1539731997151520,-0.9460593575952316,-1.0070954451819034,0.15259021896690683
1539731997167527,-1.4343480582895154,-1.4953841458761872,0.213626306553806
1539731997183534,-0.15259021896690683,-1.5564202334630863,0.5798428320745188
1539731997199541,1.6784924086366573,-1.3122758831159445,0.8239871824216607
1539731997215548,1.983672846570471,-1.2512397955290453,1.0681315327688026
1539731997231555,0.8239871824216607,-1.1902037079423735,1.0070954451819034
1539731997247562,-0.45777065690094787,-1.1902037079423735,1.0681315327688026
1539731997263569,-0.8850232700083325,-1.4343480582895154,1.1902037079423735
1539731997279576,-0.8239871824216607,-1.6174563210497581,1.3122758831159445
1539731997295583,-0.2746623941404778,-1.8005645838102282,1.4343480582895154
1539731997311590,0.5798428320745188,-1.8616006713969,1.4953841458761872
1539731997327597,1.1291676203554744,-1.9226367589837992,1.6174563210497581
1539731997343604,0.6408789196611906,-2.04470893415737,1.4343480582895154
1539731997359611,-0.2746623941404778,-2.105745021744042,1.0070954451819034
1539731997375618,0.03051804379333589,-2.04470893415737,0.7629510948347615
1539731997391625,1.3122758831159445,-2.105745021744042,0.8239871824216607
1539731997407631,2.7771419851987957,-2.227817196917613,1.0070954451819034
1539731997423638,3.2654306858930795,-2.3498893720911838,1.1902037079423735
1539731997439666,2.5940337224383256,-2.288853284504512,1.3122758831159445
1539731997455673,1.9226367589837992,-2.166781109330941,1.0070954451819034
1539731997471680,1.2512397955290453,-1.8616006713969,0.8850232700083325
1539731997487687,0.5798428320745188,-1.4343480582895154,0.7629510948347615
1539731997503694,0.03051804379333589,-1.3733119707026162,0.7019150072480898
1539731997519701,-0.8850232700083325,-1.3122758831159445,0.5188067444876197
1539731997535708,-1.8005645838102282,-1.5564202334630863,0.2746623941404778
1539731997551715,-2.288853284504512,-1.9226367589837992,-0.03051804379333589
1539731997567722,-1.983672846570471,-2.410925459678083,-0.6408789196611906
1539731997583729,-0.7629510948347615,-2.655069810025225,-1.0070954451819034
1539731997599736,1.5564202334630863,-2.4719615472647547,-0.8850232700083325
1539731997615743,3.875791561760934,-1.6174563210497581,-0.7019150072480898
1539731997631750,4.974441138323073,-0.45777065690094787,-0.45777065690094787
1539731997647757,4.058899824521177,-0.15259021896690683,-0.213626306553806
1539731997663764,2.04470893415737,-0.6408789196611906,-0.213626306553806
1539731997679771,1.6784924086366573,-1.3733119707026162,0.09155413138023505
1539731997695778,2.7771419851987957,-2.105745021744042,0.45777065690094787
1539731997711784,3.570611123826893,-2.7771419851987957,0.7629510948347615
1539731997727791,2.7161058976118966,-2.9602502479590385,0.6408789196611906
1539731997743798,1.4343480582895154,-2.410925459678083,0.15259021896690683
1539731997759796,2.04470893415737,-1.2512397955290453,-0.09155413138023505
1539731997775803,4.180971999694748,-0.2746623941404778,-0.03051804379333589
1539731997791810,5.157549401083315,0.03051804379333589,0.45777065690094787
1539731997807817,3.7537193865873633,-0.15259021896690683,0.6408789196611906
1539731997823824,1.3122758831159445,-0.2746623941404778,0.7019150072480898
1539731997839831,-1.4953841458761872,-0.15259021896690683,0.7629510948347615
1539731997855837,-3.1433585107195086,0.09155413138023505,0.8239871824216607
1539731997871844,-2.410925459678083,0.2746623941404778,1.3733119707026162
1539731997887851,-1.4953841458761872,0.45777065690094787,1.5564202334630863
1539731997903858,-2.227817196917613,0.03051804379333589,1.3122758831159445
1539731997919865,-2.9602502479590385,-0.6408789196611906,1.1291676203554744
1539731997935872,-2.9602502479590385,-1.0681315327688026,1.1902037079423735
1539731997951879,-2.5940337224383256,-1.1291676203554744,1.2512397955290453
1539731997967886,-1.3733119707026162,-1.0681315327688026,1.4343480582895154
1539731997983893,0.45777065690094787,-0.9460593575952316,1.8005645838102282
1539731997999900,0.8850232700083325,-0.9460593575952316,1.6174563210497581
1539731998015907,-1.1902037079423735,-1.1291676203554744,1.1291676203554744
1539731998031914,-3.692683299000464,-1.3733119707026162,0.3967345693140487
1539731998047921,-3.0212863355459376,-1.3122758831159445,0.5188067444876197
1539731998063928,0.8239871824216607,-1.1902037079423735,1.6174563210497581
1539731998079956,2.227817196917613,-1.1902037079423735,2.4719615472647547
1539731998095963,-0.2746623941404778,-1.4343480582895154,2.5940337224383256
1539731998111970,-3.1433585107195086,-1.6174563210497581,2.410925459678083
1539731998127977,-4.303044174868319,-1.8616006713969,2.227817196917613
1539731998143983,-3.3875028610666504,-1.983672846570471,2.105745021744042
1539731998159990,-0.7019150072480898,-2.288853284504512,2.105745021744042
1539731998175997,1.8005645838102282,-2.8381780727854675,2.3498893720911838
1539731998192004,2.655069810025225,-3.570611123826893,2.410925459678083
1539731998208011,2.410925459678083,-4.364080262455218,2.3498893720911838
1539731998224018,2.166781109330941,-5.462729839017356,2.105745021744042
1539731998240025,4.974441138323073,-7.782101167315204,2.410925459678083
1539731998256032,10.528725108720437,-12.787060349431613,3.0823224231326094
1539731998272039,12.970168612191856,-18.036163881895163,3.6316472114137923
1539731998288046,6.134126802471883,-23.346303501945386,2.532997634851654
1539731998304053,-5.2185854886702145,-29.26680399786369,0.5798428320745188
1539731998320060,-14.496070801861606,-38.97154192416269,-2.166781109330941
1539731998336067,-23.651483939879427,-48.6762798504617,-3.3264667734797513
1539731998352074,-70.28305485618375,-39.215686274509835,1.6784924086366573
1539731998368081,-42.69474326695672,-6.012054627298312,5.401693751430457
1539731998384088,-13.702601663233281,36.53009842069105,8.880750743877343
1539731998400085,-14.190890363927565,81.025406271458,9.73525597009234
1539731998416092,-27.252613107499656,122.10269321736496,9.918364232852582
1539731998432099,-30.853742275120112,158.4802014190891,11.444266422522333
1539731998448106,-23.224231326771815,187.2281986724647,10.406652933546866
1539731998464113,-17.914091706721592,200.22888532845081,9.063859006637585
1539731998480120,-16.937514305333025,200.96131837949224,10.406652933546866
1539731998496127,-8.33142595559616,196.01739528496228,11.20012207217519
1539731998512134,-4.547188525215461,182.10116731517473,11.139085984588291
1539731998528141,4.303044174868319,165.1331349660486,11.566338597695903
1539731998544148,8.819714656290444,148.95857175555057,11.322194247348762
1539731998560155,5.95101853971164,132.66193636987873,11.444266422522333
1539731998576161,5.523765926604028,110.9330891889831,12.603952086671143
1539731998592168,10.772869459067579,86.39658197909512,12.603952086671143
1539731998608175,16.693369954985883,64.42359044785235,11.261158159761862
1539731998624182,23.285267414358714,42.877851529716736,10.833905546654478
1539731998640189,32.440680552376534,21.45418478675515,11.993591210803288
1539731998656196,43.060959792477206,-7.354848554207592,12.848096437018285
1539731998672203,47.51659418631243,-48.554207675288126,16.1440451667047
1539731998688210,57.64858472571905,-88.41077286945892,21.27107652399468
1539731998704217,66.010528725109,-121.30922407873663,25.42153047989609
1539731998720245,76.5087357900361,-156.64911879148553,31.586175326161538
1539731998736252,85.11482413977274,-203.83001449607082,36.53009842069105
1539731998752259,80.2319371328299,-266.6971847104601,36.408026245517476
1539731998768266,33.17311360341796,-346.6544594491495,32.31860837720296
1539731998784273,16.693369954985883,-440.3448538948653,19.195849546043974
1539731998800280,-168.73426413366906,-385.7785915922789,-31.097886625467254
1539731998816287,-746.9291218432897,-87.6783398184175,-54.35263599603263
1539731998832294,-78.70603494316015,-55.20714122224763,-47.88281071183337
1539731998848301,308.6289768825818,-41.962310215915295,-29.32784008545036
1539731998864308,148.95857175555057,-15.838864728770886,6.622415503166167
1539731998880314,17.853055619134693,-2.7771419851987957,16.510261692225413
1539731998896321,72.48035400930803,-2.410925459678083,22.369726100556818
1539731998912328,64.97291523613376,12.664988174258042,20.660715648126825
1539731998928335,11.07804989700162,43.61028458075816,13.45845731288614
1539731998944342,-20.660715648126825,71.13756008239898,6.561379415579495
1539731998960349,-23.651483939879427,88.5938811322194,-1.4953841458761872
1539731998976356,-17.54787518120088,92.31708247501365,-7.843137254901876
1539731998992363,-8.270389868009488,86.64072632944226,-9.246967269398056
1539731999008370,-0.213626306553806,72.7855344472423,-7.049668116273779
1539731999024377,3.936827649347606,48.43213550011433,-2.227817196917613
1539731999040374,-1.0070954451819034,18.219272144655406,2.04470893415737
1539731999056381,-0.213626306553806,-5.523765926604028,3.875791561760934
1539731999072388,4.669260700389032,-22.186617837796575,3.1433585107195086
1539731999088395,11.505302510109004,-34.88212405584818,0.5188067444876197
1539731999104402,16.998550392919697,-44.95307850766767,-2.105745021744042
1539731999120409,10.772869459067579,-50.08010986495765,-4.669260700389032
1539731999136416,4.058899824521177,-49.652857251850264,-6.195162890058782
1539731999152423,2.9602502479590385,-44.892042420081,-5.096513313496644
1539731999168430,6.8665598535133086,-39.215686274509835,-2.3498893720911838
1539731999184437,7.598992904554734,-35.67559319447628,1.1291676203554744
1539731999200444,4.852368963149502,-31.280994888227724,3.3875028610666504
1539731999216451,-0.6408789196611906,-27.252613107499656,4.119935912108076
1539731999232458,-2.7161058976118966,-22.064545662623004,4.242008087281647
1539731999248465,3.2043945983061803,-16.754406042572555,4.242008087281647
1539731999264472,1.6784924086366573,-12.970168612191856,4.791332875562603
1539731999280479,-1.9226367589837992,-10.467689021133765,6.500343327992596
1539731999296486,-2.227817196917613,-10.101472495613052,7.843137254901876
1539731999312492,-0.2746623941404778,-10.223544670786623,6.744487678339738
1539731999328499,3.3264667734797513,-11.261158159761862,3.6316472114137923
1539731999344506,6.805523765926637,-13.45845731288614,1.9226367589837992
1539731999360534,6.256198977645454,-14.190890363927565,1.739528496223329
1539731999376541,6.683451590753066,-13.946746013580423,1.8005645838102282
1539731999392548,0.213626306553806,-12.359807736324,1.5564202334630863
1539731999408555,-3.692683299000464,-7.4158846417944915,1.1902037079423735
1539731999424562,-2.3498893720911838,-2.7771419851987957,0.45777065690094787
1539731999440569,-0.8239871824216607,-1.5564202334630863,-0.09155413138023505
1539731999456576,-0.5798428320745188,-4.058899824521177,-1.0070954451819034
1539731999472583,-2.227817196917613,-0.5188067444876197,-1.8005645838102282
1539731999488590,-14.129854276340893,10.040436408026153,-2.3498893720911838
1539731999504597,-12.603952086671143,6.622415503166167,-3.0212863355459376
1539731999520604,-3.570611123826893,-1.4343480582895154,-3.2043945983061803
1539731999536611,6.134126802471883,-3.875791561760934,-1.4953841458761872
1539731999552618,13.64156557564661,-3.997863736934505,-0.8850232700083325
1539731999568625,15.716792553597315,-4.547188525215461,-1.4953841458761872
1539731999584632,15.045395590142562,-3.0823224231326094,-1.8005645838102282
1539731999600638,12.726024261844714,0.213626306553806,-1.2512397955290453
1539731999616645,7.11070420386045,3.0212863355459376,-0.7629510948347615
1539731999632652,-2.532997634851654,3.6316472114137923,-1.1902037079423735
1539731999648659,-12.115663385976859,2.8381780727854675,-2.166781109330941
1539731999664666,-17.42580300602731,1.739528496223329,-3.0823224231326094
1539731999680694,-13.519493400473038,-0.03051804379333589,-2.8992141603723667
1539731999696702,-2.655069810025225,-1.4953841458761872,-2.166781109330941
1539731999712709,8.6366063935302,-2.9602502479590385,-1.4343480582895154
1539731999728716,11.749446860456146,-3.7537193865873633,-1.8616006713969
1539731999744724,9.613183794918768,-2.9602502479590385,-2.532997634851654
1539731999760731,7.965209430075447,-0.7629510948347615,-2.105745021744042
1539731999776739,5.706874189364498,1.6174563210497581,-1.0681315327688026
1539731999792746,3.3264667734797513,3.1433585107195086,-0.213626306553806
1539731999808754,1.739528496223329,3.2043945983061803,0.09155413138023505
1539731999824761,2.3498893720911838,2.227817196917613,0.8239871824216607
1539731999840768,3.814755474174035,1.5564202334630863,1.3122758831159445
1539731999856776,4.303044174868319,0.2746623941404778,1.1291676203554744
1539731999872783,4.180971999694748,-1.1291676203554744,0.7629510948347615
1539731999888791,3.5095750362402214,-1.8005645838102282,0.7629510948347615
1539731999904798,1.0681315327688026,-1.5564202334630863,0.5798428320745188
1539731999920806,-3.1433585107195086,-0.6408789196611906,0.2746623941404778
1539731999936813,-6.622415503166167,1.1291676203554744,0.03051804379333589
1539731999952820,-8.51453421835663,3.2043945983061803,0.15259021896690683
1539731999968828,-9.918364232852582,5.462729839017356,0.09155413138023505
1539731999984835,-10.223544670786623,7.4158846417944915,-0.213626306553806
1539732000000824,-7.4158846417944915,8.758678568703772,-0.33569848172737693
1539732000016831,-3.814755474174035,8.575570305943302,-0.33569848172737693
1539732000032837,-1.2512397955290453,6.927595941100208,-0.9460593575952316
1539732000048844,0.7629510948347615,4.547188525215461,-1.4343480582895154
1539732000064851,2.7771419851987957,1.739528496223329,-1.6784924086366573
1539732000080858,3.875791561760934,-1.0070954451819034,-1.8616006713969
1539732000096865,3.997863736934505,-2.9602502479590385,-2.288853284504512
1539732000112872,3.997863736934505,-4.303044174868319,-2.8992141603723667
1539732000128879,3.936827649347606,-4.303044174868319,-3.1433585107195086
1539732000144886,4.242008087281647,-3.3264667734797513,-3.3264667734797513
1539732000160893,6.256198977645454,-2.04470893415737,-3.1433585107195086
1539732000176900,8.33142595559616,-0.7019150072480898,-2.655069810025225
1539732000192907,7.17174029144735,0.213626306553806,-2.3498893720911838
1539732000208914,4.9134050507361735,0.7629510948347615,-1.9226367589837992
1539732000224921,3.4485389486533222,0.8239871824216607,-1.4343480582895154
1539732000240928,2.105745021744042,0.5798428320745188,-0.9460593575952316
1539732000256935,0.7629510948347615,0.2746623941404778,-0.7629510948347615
1539732000272942,0.7629510948347615,-0.2746623941404778,-0.2746623941404778
1539732000288949,2.655069810025225,-0.9460593575952316,0.5188067444876197
1539732000304956,4.9134050507361735,-1.1291676203554744,1.2512397955290453
1539732000320984,3.997863736934505,-1.6174563210497581,1.4953841458761872
1539732000336991,0.7019150072480898,-2.288853284504512,1.3122758831159445
1539732000352998,-3.1433585107195086,-2.532997634851654,0.8850232700083325
1539732000369006,-5.462729839017356,-2.5940337224383256,0.45777065690094787
1539732000385013,-4.791332875562603,-2.227817196917613,0.6408789196611906
1539732000401021,-3.2654306858930795,-1.5564202334630863,0.7019150072480898
1539732000417028,-1.8005645838102282,-0.9460593575952316,0.5798428320745188
1539732000433035,0.5798428320745188,-0.45777065690094787,0.7019150072480898
1539732000449043,0.8850232700083325,0.5188067444876197,0.7629510948347615
1539732000465050,-3.0823224231326094,0.6408789196611906,0.213626306553806
1539732000481058,-11.261158159761862,-0.213626306553806,-0.8850232700083325
1539732000497065,-19.378957808804444,-2.288853284504512,-1.9226367589837992
1539732000513073,-21.27107652399468,-3.814755474174035,-2.5940337224383256
1539732000529080,-16.571297779812312,-4.486152437628789,-2.227817196917613
1539732000545087,-7.17174029144735,-4.42511635004189,-1.2512397955290453
1539732000561095,3.0212863355459376,-3.2654306858930795,-0.33569848172737693
1539732000577102,9.246967269398056,-1.739528496223329,-0.09155413138023505
1539732000593110,8.758678568703772,-0.6408789196611906,-0.7019150072480898
1539732000609117,3.814755474174035,0.15259021896690683,-1.8005645838102282
1539732000625125,-0.33569848172737693,0.6408789196611906,-2.9602502479590385
1539732000641113,0.2746623941404778,1.1902037079423735,-3.3264667734797513
1539732000657120,4.242008087281647,1.5564202334630863,-2.9602502479590385
1539732000673127,8.270389868009488,1.5564202334630863,-2.04470893415737
1539732000689134,9.124895094224485,1.1291676203554744,-1.4953841458761872
1539732000705141,7.598992904554734,0.5188067444876197,-1.0681315327688026
1539732000721148,6.805523765926637,0.213626306553806,-0.5188067444876197
1539732000737155,7.17174029144735,-0.03051804379333589,0.213626306553806
1539732000753162,6.195162890058782,-0.213626306553806,0.6408789196611906
1539732000769168,3.0212863355459376,-0.33569848172737693,0.5188067444876197
1539732000785175,-0.03051804379333589,-0.33569848172737693,0.33569848172737693
1539732000801182,-0.5798428320745188,-0.09155413138023505,0.09155413138023505
1539732000817189,2.410925459678083,0.3967345693140487,0.213626306553806
1539732000833196,6.073090714885211,1.0070954451819034,0.213626306553806
1539732000849203,8.209353780422589,0.8850232700083325,0.213626306553806
1539732000865210,8.45349813076973,0.2746623941404778,0.3967345693140487
1539732000881217,6.8665598535133086,-0.6408789196611906,0.6408789196611906
1539732000897224,4.242008087281647,-1.9226367589837992,0.7629510948347615
1539732000913231,1.8616006713969,-3.2043945983061803,1.0070954451819034
1539732000929238,0.3967345693140487,-3.875791561760934,1.1291676203554744
1539732000945245,0.213626306553806,-4.058899824521177,1.1902037079423735
1539732000961273,0.5188067444876197,-3.875791561760934,1.1902037079423735
1539732000977280,1.0070954451819034,-3.3264667734797513,1.0070954451819034
1539732000993288,0.3967345693140487,-2.4719615472647547,0.6408789196611906
1539732001009295,-1.5564202334630863,-1.8616006713969,0.03051804379333589
1539732001025303,-2.166781109330941,-1.3122758831159445,-0.33569848172737693
1539732001041310,-0.45777065690094787,-0.5798428320745188,-0.213626306553806
1539732001057317,2.04470893415737,-0.03051804379333589,0.15259021896690683
1539732001073325,2.655069810025225,0.09155413138023505,0.5188067444876197
1539732001089332,0.7629510948347615,-0.3967345693140487,0.5798428320745188
1539732001105340,-2.166781109330941,-1.0681315327688026,0.5798428320745188
1539732001121347,-5.2185854886702145,-1.8005645838102282,0.45777065690094787
1539732001137354,-7.232776379034021,-2.410925459678083,0.2746623941404778
1539732001153362,-6.8665598535133086,-2.9602502479590385,0.2746623941404778
1539732001169369,-5.584802014190927,-3.0823224231326094,0.03051804379333589
1539732001185377,-4.730296787975931,-3.2043945983061803,-0.7019150072480898
1539732001201384,-3.3264667734797513,-3.3264667734797513,-1.0070954451819034
1539732001217392,-1.3122758831159445,-3.1433585107195086,-1.1291676203554744
1539732001233399,0.03051804379333589,-2.7161058976118966,-1.3122758831159445
1539732001249406,0.2746623941404778,-2.410925459678083,-1.739528496223329
1539732001265414,0.5798428320745188,-2.227817196917613,-2.04470893415737
1539732001281402,1.983672846570471,-1.9226367589837992,-1.9226367589837992
1539732001297409,1.8005645838102282,-1.739528496223329,-1.6784924086366573
1539732001313416,-0.5798428320745188,-1.739528496223329,-1.6784924086366573
1539732001329423,-1.983672846570471,-2.105745021744042,-1.5564202334630863
1539732001345430,-0.5188067444876197,-2.105745021744042,-1.1291676203554744
1539732001361437,0.8239871824216607,-2.04470893415737,-0.8850232700083325
1539732001377444,0.03051804379333589,-2.04470893415737,-1.0070954451819034
1539732001393451,-1.5564202334630863,-2.227817196917613,-1.2512397955290453
1539732001409458,-1.0681315327688026,-2.227817196917613,-1.3122758831159445
1539732001425465,0.3967345693140487,-2.04470893415737,-1.0070954451819034
1539732001441472,0.5188067444876197,-1.9226367589837992,-0.8850232700083325
1539732001457479,-0.2746623941404778,-1.6784924086366573,-1.1291676203554744
1539732001473486,-0.5798428320745188,-1.4953841458761872,-1.3122758831159445
1539732001489493,-1.8616006713969,-1.4953841458761872,-1.3733119707026162
1539732001505499,-4.791332875562603,-1.8616006713969,-1.2512397955290453
1539732001521506,-10.528725108720437,-2.4719615472647547,-1.4343480582895154
1539732001537513,-16.388189517051842,-3.2654306858930795,-1.9226367589837992
1539732001553520,-18.646524757763018,-4.180971999694748,-1.739528496223329
1539732001569527,-14.80125123979542,-4.9134050507361735,-0.8239871824216607
1539732001585534,-5.584802014190927,-4.9134050507361735,0.8850232700083325
1539732001601562,2.227817196917613,-4.547188525215461,2.532997634851654
1539732001617570,3.936827649347606,-3.997863736934505,2.532997634851654
1539732001633577,2.7161058976118966,-3.2654306858930795,1.9226367589837992
1539732001649584,1.983672846570471,-2.227817196917613,1.3733119707026162
1539732001665592,2.4719615472647547,-1.1902037079423735,1.1291676203554744
1539732001681599,3.3875028610666504,-0.33569848172737693,0.8850232700083325
1539732001697607,4.547188525215461,0.09155413138023505,0.8239871824216607
1539732001713614,5.523765926604028,0.09155413138023505,0.9460593575952316
1539732001729622,5.645838101777599,-0.03051804379333589,1.0070954451819034
1539732001745629,4.974441138323073,-0.2746623941404778,0.9460593575952316
1539732001761636,3.692683299000464,-0.5188067444876197,0.8239871824216607
1539732001777644,2.166781109330941,-0.6408789196611906,0.7019150072480898
1539732001793651,1.3122758831159445,-0.6408789196611906,0.5188067444876197
1539732001809659,1.6174563210497581,-0.5188067444876197,0.33569848172737693
1539732001825666,1.8616006713969,-0.9460593575952316,0.3967345693140487
1539732001841673,1.6784924086366573,-1.4953841458761872,0.33569848172737693
1539732001857681,1.5564202334630863,-2.410925459678083,0.2746623941404778
1539732001873688,1.3733119707026162,-3.3875028610666504,0.5188067444876197
1539732001889696,0.213626306553806,-4.180971999694748,0.45777065690094787
1539732001905703,-2.105745021744042,-4.9134050507361735,0.3967345693140487
1539732001921692,-4.852368963149502,-5.401693751430457,0.2746623941404778
1539732001937698,-7.049668116273779,-5.157549401083315,0.15259021896690683
1539732001953705,-7.17174029144735,-4.242008087281647,0.03051804379333589
1539732001969712,-4.42511635004189,-2.8992141603723667,0.3967345693140487
1539732001985719,-2.410925459678083,-1.5564202334630863,0.5188067444876197
1539732002001726,-2.3498893720911838,-0.7019150072480898,0.3967345693140487
1539732002017733,-3.570611123826893,0.03051804379333589,0.213626306553806
1539732002033740,-5.096513313496644,0.213626306553806,-0.03051804379333589
1539732002049747,-6.012054627298312,0.03051804379333589,-0.15259021896690683
1539732002065754,-5.828946364538069,-0.33569848172737693,-0.15259021896690683
1539732002081761,-5.279621576256886,-1.0070954451819034,-0.15259021896690683
1539732002097768,-4.852368963149502,-1.5564202334630863,0.03051804379333589
1539732002113775,-4.852368963149502,-2.3498893720911838,0.03051804379333589
1539732002129782,-5.2185854886702145,-2.8992141603723667,0.03051804379333589
1539732002145789,-4.669260700389032,-2.8992141603723667,0.213626306553806
1539732002161796,-2.8381780727854675,-2.227817196917613,0.45777065690094787
1539732002177803,-1.6174563210497581,-1.739528496223329,0.6408789196611906
1539732002193810,-2.288853284504512,-1.3733119707026162,0.7629510948347615
1539732002209817,-4.058899824521177,-1.1291676203554744,0.7019150072480898
1539732002225824,-5.828946364538069,-1.0070954451819034,0.3967345693140487
1539732002241821,-6.683451590753066,-0.7629510948347615,0.15259021896690683
1539732002257828,-7.17174029144735,-0.6408789196611906,-0.03051804379333589
1539732002273835,-8.148317692835917,-1.0070954451819034,-0.03051804379333589
1539732002289842,-9.67421988250544,-1.4953841458761872,-0.213626306553806
1539732002305849,-10.284580758373295,-1.8616006713969,-0.5798428320745188
1539732002321856,-9.613183794918768,-1.8005645838102282,-0.8239871824216607
1539732002337863,-6.683451590753066,-1.4953841458761872,-0.8239871824216607
1539732002353870,-3.0212863355459376,-1.0681315327688026,-0.6408789196611906
1539732002369876,0.5188067444876197,-0.8850232700083325,-0.5188067444876197
1539732002385883,3.692683299000464,-0.7629510948347615,-0.213626306553806
1539732002401890,5.95101853971164,-0.7629510948347615,0.213626306553806
1539732002417897,6.9886320286868795,-1.0681315327688026,0.45777065690094787
1539732002433904,6.073090714885211,-1.3733119707026162,0.7019150072480898
1539732002449911,6.500343327992596,-1.3733119707026162,1.0681315327688026
1539732002465918,4.303044174868319,-1.5564202334630863,1.0070954451819034
1539732002481925,2.9602502479590385,-1.3122758831159445,0.7629510948347615
1539732002497932,2.8992141603723667,-1.1902037079423735,1.0070954451819034
1539732002513939,1.9226367589837992,-1.0070954451819034,0.9460593575952316
1539732002529946,-0.213626306553806,-1.0070954451819034,0.6408789196611906
1539732002545953,-1.8616006713969,-1.0070954451819034,0.5798428320745188
1539732002561981,-1.5564202334630863,-0.9460593575952316,0.7019150072480898
1539732002577988,-0.15259021896690683,-0.8239871824216607,1.0070954451819034
1539732002593996,0.6408789196611906,-0.5798428320745188,1.3733119707026162
1539732002610003,-0.33569848172737693,-0.5798428320745188,1.2512397955290453
1539732002626011,-1.6784924086366573,-0.6408789196611906,1.0070954451819034
1539732002642018,-2.227817196917613,-0.8239871824216607,0.7629510948347615
1539732002658025,-2.105745021744042,-0.8239871824216607,0.45777065690094787
1539732002674033,-1.1291676203554744,-0.6408789196611906,0.09155413138023505
1539732002690040,0.15259021896690683,-0.5188067444876197,-0.09155413138023505
1539732002706048,1.6174563210497581,-0.45777065690094787,-0.33569848172737693
1539732002722055,3.0212863355459376,-0.213626306553806,-0.5188067444876197
1539732002738062,3.5095750362402214,-0.45777065690094787,-0.7019150072480898
1539732002754070,2.7161058976118966,-0.5798428320745188,-1.0070954451819034
1539732002770077,1.3122758831159445,-0.7019150072480898,-1.3733119707026162
1539732002786085,0.03051804379333589,-0.6408789196611906,-1.6784924086366573
1539732002802092,1.3122758831159445,-0.45777065690094787,-1.4953841458761872
1539732002818100,3.5095750362402214,-0.15259021896690683,-1.1291676203554744
1539732002834107,3.1433585107195086,-0.03051804379333589,-1.1902037079423735
1539732002850114,1.8616006713969,-0.5798428320745188,-1.4953841458761872
1539732002866122,0.9460593575952316,-0.9460593575952316,-1.6174563210497581
1539732002882110,1.4343480582895154,-1.3122758831159445,-1.6784924086366573
1539732002898118,2.655069810025225,-1.4953841458761872,-1.4343480582895154
1539732002914125,3.936827649347606,-1.8005645838102282,-1.1291676203554744
1539732002930132,3.875791561760934,-1.983672846570471,-0.9460593575952316
1539732002946140,2.532997634851654,-2.166781109330941,-0.7629510948347615
1539732002962147,0.45777065690094787,-2.288853284504512,-0.8239871824216607
1539732002978155,-0.3967345693140487,-2.3498893720911838,-0.8850232700083325
1539732002994162,0.8239871824216607,-2.3498893720911838,-0.5188067444876197
1539732003010170,3.2043945983061803,-2.04470893415737,0.03051804379333589
1539732003026177,4.852368963149502,-1.6784924086366573,0.5188067444876197
1539732003042184,4.42511635004189,-1.4953841458761872,0.7019150072480898
1539732003058192,1.6174563210497581,-1.4343480582895154,0.6408789196611906
1539732003074199,-1.8616006713969,-1.4953841458761872,0.6408789196611906
1539732003090207,-2.8381780727854675,-1.4953841458761872,0.7629510948347615
1539732003106214,-1.5564202334630863,-1.3733119707026162,1.0681315327688026
1539732003122222,0.15259021896690683,-1.3733119707026162,1.2512397955290453
1539732003138229,1.3733119707026162,-1.4343480582895154,1.0681315327688026
1539732003154236,2.410925459678083,-1.3733119707026162,0.8850232700083325
1539732003170244,2.9602502479590385,-1.1902037079423735,0.5188067444876197
1539732003186251,3.2043945983061803,-1.2512397955290453,0.15259021896690683
1539732003202270,3.570611123826893,-1.3122758831159445,-0.09155413138023505
1539732003218278,3.570611123826893,-1.3733119707026162,-0.33569848172737693
1539732003234285,2.8381780727854675,-1.4953841458761872,-0.7629510948347615
1539732003250292,1.6174563210497581,-1.9226367589837992,-1.3122758831159445
1539732003266300,1.739528496223329,-2.288853284504512,-1.1902037079423735
1539732003282307,2.04470893415737,-2.288853284504512,-1.4343480582895154
1539732003298315,2.7771419851987957,-1.983672846570471,-1.4953841458761872
1539732003314322,4.303044174868319,-1.6174563210497581,-1.5564202334630863
1539732003330330,6.805523765926637,-1.1291676203554744,-1.3122758831159445
1539732003346337,7.660028992141633,-0.8850232700083325,-1.2512397955290453
1539732003362344,4.547188525215461,-1.0681315327688026,-1.8616006713969
1539732003378352,-0.8850232700083325,-1.5564202334630863,-3.1433585107195086
1539732003394359,-4.058899824521177,-1.8616006713969,-3.936827649347606
1539732003410367,-1.6784924086366573,-1.4343480582895154,-3.6316472114137923
1539732003426374,3.875791561760934,-0.7629510948347615,-2.5940337224383256
1539732003442381,8.026245517662346,-0.2746623941404778,-1.4343480582895154
1539732003458389,8.148317692835917,-0.15259021896690683,-0.8239871824216607
1539732003474396,4.852368963149502,-0.5798428320745188,-0.7629510948347615
1539732003490404,1.3122758831159445,-1.0681315327688026,-0.8850232700083325
1539732003506411,-0.45777065690094787,-1.1291676203554744,-0.8239871824216607
1539732003522400,-0.15259021896690683,-1.0681315327688026,-0.6408789196611906
1539732003538407,1.1291676203554744,-0.7019150072480898,-0.213626306553806
1539732003554414,1.983672846570471,-0.2746623941404778,0.09155413138023505
1539732003570422,2.288853284504512,-0.09155413138023505,0.3967345693140487
1539732003586429,1.8005645838102282,-0.2746623941404778,0.5798428320745188
1539732003602437,2.227817196917613,-0.213626306553806,0.8239871824216607
1539732003618444,2.8992141603723667,-0.2746623941404778,1.0070954451819034
1539732003634451,3.2654306858930795,-0.45777065690094787,1.1291676203554744
1539732003650459,3.0212863355459376,-1.0070954451819034,1.2512397955290453
1539732003666466,2.105745021744042,-1.4343480582895154,1.1291676203554744
1539732003682474,0.03051804379333589,-1.4953841458761872,0.9460593575952316
1539732003698481,-1.983672846570471,-1.4343480582895154,0.5798428320745188
1539732003714489,-2.3498893720911838,-1.4343480582895154,0.3967345693140487
1539732003730496,-0.7629510948347615,-1.3733119707026162,0.45777065690094787
1539732003746503,0.5798428320745188,-1.1291676203554744,0.45777065690094787
1539732003762511,0.3967345693140487,-0.9460593575952316,0.213626306553806
1539732003778518,-0.5188067444876197,-1.0681315327688026,-0.213626306553806
1539732003794526,-1.6784924086366573,-1.1902037079423735,-0.7629510948347615
1539732003810533,-2.3498893720911838,-1.4343480582895154,-1.1902037079423735
1539732003826541,-1.3733119707026162,-1.739528496223329,-1.1902037079423735
1539732003842559,0.09155413138023505,-1.983672846570471,-0.8850232700083325
1539732003858567,0.3967345693140487,-2.166781109330941,-0.8850232700083325
1539732003874574,-0.33569848172737693,-2.04470893415737,-0.9460593575952316
1539732003890582,-1.6174563210497581,-1.8005645838102282,-1.1902037079423735
1539732003906589,-2.410925459678083,-1.4343480582895154,-1.2512397955290453
1539732003922597,-2.166781109330941,-1.3733119707026162,-1.0681315327688026
1539732003938604,-2.04470893415737,-1.2512397955290453,-0.9460593575952316
1539732003954611,-2.04470893415737,-1.2512397955290453,-0.8239871824216607
1539732003970619,-1.4953841458761872,-1.1902037079423735,-0.6408789196611906
1539732003986626,-0.2746623941404778,-0.9460593575952316,-0.3967345693140487
1539732004002634,0.5798428320745188,-0.5188067444876197,0.09155413138023505
1539732004018641,0.03051804379333589,-0.5188067444876197,0.3967345693140487
1539732004034649,-1.9226367589837992,-0.8239871824216607,0.5798428320745188
1539732004050656,-3.875791561760934,-1.1902037079423735,0.5798428320745188
1539732004066663,-4.058899824521177,-1.4343480582895154,0.7019150072480898
1539732004082671,-2.9602502479590385,-1.4953841458761872,0.8850232700083325
1539732004098678,-2.166781109330941,-1.4343480582895154,1.1291676203554744
1539732004114686,-2.532997634851654,-1.5564202334630863,1.1291676203554744
1539732004130693,-3.814755474174035,-1.6174563210497581,0.9460593575952316
1539732004146700,-4.486152437628789,-1.739528496223329,0.8850232700083325
1539732004162689,-3.7537193865873633,-2.166781109330941,0.8850232700083325
1539732004178696,-2.8992141603723667,-2.3498893720911838,0.8850232700083325
1539732004194704,-2.7161058976118966,-2.410925459678083,0.7019150072480898
1539732004210711,-2.7771419851987957,-2.227817196917613,0.5188067444876197
1539732004226719,-2.04470893415737,-1.8616006713969,0.5798428320745188
1539732004242726,-0.6408789196611906,-1.4953841458761872,1.0681315327688026
1539732004258733,-0.6408789196611906,-1.2512397955290453,1.5564202334630863
1539732004274741,-2.166781109330941,-1.0070954451819034,1.739528496223329
1539732004290748,-1.8005645838102282,-0.3967345693140487,1.8005645838102282
1539732004306756,1.6784924086366573,0.3967345693140487,2.105745021744042
1539732004322763,4.730296787975931,0.6408789196611906,2.410925459678083
1539732004338770,5.76791027695117,0.7019150072480898,2.288853284504512
1539732004354778,4.303044174868319,0.03051804379333589,2.105745021744042
1539732004370785,0.7629510948347615,-1.0070954451819034,1.4953841458761872
1539732004386793,-3.3875028610666504,-1.739528496223329,0.7629510948347615
1539732004402800,-5.3406576638437855,-2.166781109330941,0.03051804379333589
1539732004418808,-5.2185854886702145,-2.105745021744042,-0.33569848172737693
1539732004434815,-4.974441138323073,-2.04470893415737,-0.8239871824216607
1539732004450822,-4.9134050507361735,-2.227817196917613,-1.0070954451819034
1539732004466830,-4.364080262455218,-2.3498893720911838,-1.0681315327688026
1539732004482849,-3.2654306858930795,-2.288853284504512,-1.0681315327688026
1539732004498856,-2.5940337224383256,-2.410925459678083,-1.1902037079423735
1539732004514864,-1.4953841458761872,-2.166781109330941,-1.4343480582895154
1539732004530871,0.33569848172737693,-1.6784924086366573,-1.6784924086366573
1539732004546878,1.6784924086366573,-1.1291676203554744,-1.8005645838102282
1539732004562886,1.3122758831159445,-0.9460593575952316,-2.166781109330941
1539732004578893,0.9460593575952316,-0.8850232700083325,-2.410925459678083
1539732004594901,1.1291676203554744,-0.8850232700083325,-2.5940337224383256
1539732004610908,1.4343480582895154,-0.8239871824216607,-2.5940337224383256
1539732004626916,1.983672846570471,-0.6408789196611906,-2.410925459678083
1539732004642923,3.3875028610666504,-0.5188067444876197,-2.227817196917613
1539732004658930,4.9134050507361735,-0.33569848172737693,-2.04470893415737
1539732004674938,6.378271152819025,-0.15259021896690683,-1.8616006713969
1539732004690945,6.927595941100208,-0.15259021896690683,-1.739528496223329
1539732004706953,6.439307240405924,-0.33569848172737693,-1.6784924086366573
1539732004722960,6.561379415579495,-0.33569848172737693,-1.4343480582895154
1539732004738968,7.049668116273779,-0.15259021896690683,-0.8850232700083325
1539732004754975,6.134126802471883,-0.45777065690094787,-0.5188067444876197
1539732004770982,2.7161058976118966,-0.8850232700083325,-0.5798428320745188
1539732004786990,-0.3967345693140487,-1.2512397955290453,-0.7019150072480898
1539732004802978,-1.983672846570471,-1.4343480582895154,-0.7019150072480898
1539732004818986,-2.105745021744042,-1.4343480582895154,-0.5188067444876197
1539732004834993,-1.0681315327688026,-1.3122758831159445,-0.213626306553806
1539732004851000,0.2746623941404778,-1.6174563210497581,-0.09155413138023505
1539732004867008,0.8239871824216607,-2.04470893415737,-0.03051804379333589
1539732004883015,0.6408789196611906,-2.5940337224383256,-0.2746623941404778
1539732004899023,0.213626306553806,-3.1433585107195086,-0.5188067444876197
1539732004915030,0.8239871824216607,-3.3264667734797513,-0.5798428320745188
1539732004931038,2.227817196917613,-3.3264667734797513,-0.5188067444876197
1539732004947045,3.570611123826893,-3.0212863355459376,-0.5188067444876197
1539732004963052,3.936827649347606,-2.8992141603723667,-0.8239871824216607
1539732004979060,4.119935912108076,-2.7771419851987957,-1.0070954451819034
1539732004995067,4.242008087281647,-2.7161058976118966,-1.1291676203554744
1539732005011075,3.814755474174035,-2.8992141603723667,-1.1902037079423735
1539732005027082,2.655069810025225,-3.0212863355459376,-1.2512397955290453
1539732005043089,1.6784924086366573,-3.0823224231326094,-1.3122758831159445
1539732005059097,0.9460593575952316,-3.2043945983061803,-1.2512397955290453
1539732005075104,1.3122758831159445,-2.9602502479590385,-1.1902037079423735
1539732005091112,1.5564202334630863,-2.8992141603723667,-1.1291676203554744
1539732005107119,1.3122758831159445,-3.0212863355459376,-1.2512397955290453
1539732005123138,1.3733119707026162,-3.3264667734797513,-1.3733119707026162
1539732005139145,2.655069810025225,-3.6316472114137923,-1.2512397955290453
1539732005155153,3.692683299000464,-3.936827649347606,-1.1291676203554744
1539732005171160,4.119935912108076,-4.242008087281647,-1.0070954451819034
1539732005187168,4.303044174868319,-4.486152437628789,-0.8850232700083325
1539732005203175,4.058899824521177,-4.60822461280236,-0.8239871824216607
1539732005219183,3.814755474174035,-4.791332875562603,-0.7629510948347615
1539732005235190,3.692683299000464,-4.9134050507361735,-0.7019150072480898
1539732005251197,3.936827649347606,-5.0354772259097444,-0.7019150072480898
1539732005267205,4.364080262455218,-5.3406576638437855,-0.8850232700083325
1539732005283212,3.875791561760934,-5.584802014190927,-1.3122758831159445
1539732005299220,2.5940337224383256,-5.645838101777599,-1.5564202334630863
1539732005315227,3.6316472114137923,-5.523765926604028,-1.3733119707026162
1539732005331235,5.2185854886702145,-5.0354772259097444,-1.3122758831159445
1539732005347242,4.119935912108076,-4.42511635004189,-1.4953841458761872
1539732005363249,-0.7629510948347615,-3.692683299000464,-1.9226367589837992
1539732005379257,-6.439307240405924,-2.7771419851987957,-2.288853284504512
1539732005395264,-9.002822919050914,-1.1902037079423735,-2.166781109330941
1539732005411272,-6.805523765926637,0.9460593575952316,-1.1291676203554744
1539732005427279,-2.8992141603723667,2.5940337224383256,0.213626306553806
1539732005443298,-1.0681315327688026,2.7771419851987957,0.9460593575952316
1539732005459305,-1.6784924086366573,2.532997634851654,0.8850232700083325
1539732005475313,-2.8992141603723667,2.04470893415737,0.03051804379333589
1539732005491320,-3.3875028610666504,1.4953841458761872,-0.7019150072480898
1539732005507328,-3.875791561760934,0.45777065690094787,-1.4953841458761872
1539732005523335,-3.570611123826893,-0.8239871824216607,-2.227817196917613
1539732005539343,-1.3733119707026162,-2.04470893415737,-2.8381780727854675
1539732005555350,1.3733119707026162,-2.7161058976118966,-3.0212863355459376
1539732005571357,3.2043945983061803,-2.8992141603723667,-2.7771419851987957
1539732005587365,3.4485389486533222,-2.7161058976118966,-2.227817196917613
1539732005603372,2.105745021744042,-2.532997634851654,-1.6784924086366573
1539732005619380,0.7019150072480898,-2.288853284504512,-1.1291676203554744
1539732005635387,0.15259021896690683,-2.227817196917613,-0.3967345693140487
1539732005651394,0.15259021896690683,-2.04470893415737,0.3967345693140487
1539732005667402,-0.03051804379333589,-1.8616006713969,0.8239871824216607
1539732005683409,-0.5798428320745188,-1.8005645838102282,1.0070954451819034
1539732005699417,-1.0681315327688026,-1.739528496223329,1.1291676203554744
1539732005715424,-1.1902037079423735,-1.4343480582895154,1.2512397955290453
1539732005731432,-1.5564202334630863,-1.1291676203554744,1.2512397955290453
1539732005747439,-2.04470893415737,-1.2512397955290453,1.2512397955290453
1539732005763427,-2.532997634851654,-1.6174563210497581,1.0070954451819034
1539732005779435,-2.04470893415737,-2.04470893415737,1.0070954451819034
1539732005795442,-0.3967345693140487,-2.4719615472647547,0.9460593575952316
1539732005811450,1.5564202334630863,-2.655069810025225,1.0070954451819034
1539732005827457,2.655069810025225,-2.8381780727854675,0.7019150072480898
1539732005843464,2.655069810025225,-2.8381780727854675,0.3967345693140487
1539732005859472,2.7771419851987957,-2.4719615472647547,0.03051804379333589
1539732005875479,2.9602502479590385,-2.166781109330941,-0.213626306553806
1539732005891487,2.4719615472647547,-1.9226367589837992,-0.5188067444876197
1539732005907494,2.04470893415737,-1.739528496223329,-0.7629510948347615
1539732005923502,2.227817196917613,-1.3733119707026162,-0.7629510948347615
1539732005939509,2.4719615472647547,-1.0681315327688026,-0.7629510948347615
1539732005955516,2.166781109330941,-0.8239871824216607,-0.5798428320745188
1539732005971524,1.6784924086366573,-0.5798428320745188,-0.6408789196611906
1539732005987531,2.04470893415737,-0.33569848172737693,-0.33569848172737693
1539732006003539,3.692683299000464,0.213626306553806,-0.15259021896690683
1539732006019546,6.317235065232353,0.3967345693140487,0.213626306553806
1539732006035554,6.683451590753066,0.33569848172737693,0.2746623941404778
1539732006051561,3.2043945983061803,-0.213626306553806,0.15259021896690683
1539732006067568,-3.1433585107195086,-1.0681315327688026,-0.45777065690094787
1539732006083587,-8.270389868009488,-1.739528496223329,-0.7019150072480898
1539732006099595,-9.979400320439481,-1.983672846570471,-0.7019150072480898
1539732006115602,-8.6366063935302,-1.8616006713969,-0.2746623941404778
1539732006131610,-7.17174029144735,-1.4953841458761872,-0.03051804379333589
1539732006147617,-7.965209430075447,-1.4343480582895154,-0.2746623941404778
1539732006163624,-9.491111619745197,-1.4953841458761872,-0.8239871824216607
1539732006179632,-10.284580758373295,-1.6784924086366573,-1.0681315327688026
1539732006195639,-11.139085984588291,-1.9226367589837992,-1.1291676203554744
1539732006211647,-12.4208438239109,-2.105745021744042,-1.2512397955290453
1539732006227654,-14.496070801861606,-2.166781109330941,-1.5564202334630863
1539732006243662,-18.341344319828977,-2.410925459678083,-2.105745021744042
1539732006259669,-23.590447852292527,-2.410925459678083,-2.7161058976118966
1539732006275676,-27.80193789578084,-2.532997634851654,-2.8992141603723667
1539732006291684,-30.182345311665358,-2.7161058976118966,-3.0212863355459376
1539732006307691,-29.449912260623933,-3.0212863355459376,-2.532997634851654
1539732006323699,-24.628061341267994,-3.4485389486533222,-1.5564202334630863
1539732006339706,-16.32715342946517,-3.3264667734797513,-0.09155413138023505
1539732006355713,-7.232776379034021,-2.7771419851987957,1.3122758831159445
1539732006371721,-1.2512397955290453,-2.288853284504512,2.105745021744042
1539732006387728,0.6408789196611906,-1.9226367589837992,2.3498893720911838
1539732006403717,-1.3733119707026162,-1.983672846570471,1.8616006713969
1539732006419724,-3.2654306858930795,-2.410925459678083,1.5564202334630863
1539732006435732,-2.7771419851987957,-3.0212863355459376,1.5564202334630863
1539732006451739,-2.4719615472647547,-3.814755474174035,1.5564202334630863
1539732006467746,-6.134126802471883,-4.9134050507361735,1.0070954451819034
1539732006483754,-14.251926451514464,-6.439307240405924,-0.2746623941404778
1539732006499761,-23.529411764705856,-7.11070420386045,-1.8005645838102282
1539732006515769,-29.633020523384403,-7.11070420386045,-2.288853284504512
1539732006531776,-27.98504615854108,-6.195162890058782,-1.4343480582895154
1539732006547783,-16.44922560463874,-4.974441138323073,0.213626306553806
1539732006563791,1.983672846570471,-3.1433585107195086,2.5940337224383256
1539732006579798,16.571297779812312,-1.4953841458761872,4.303044174868319
1539732006595806,21.45418478675515,-0.5188067444876197,4.486152437628789
1539732006611813,21.210040436408008,-0.45777065690094787,3.875791561760934
1539732006627821,25.848783093003703,0.09155413138023505,4.547188525215461
1539732006643828,38.23910887312104,1.6174563210497581,6.317235065232353
1539732006659835,49.591821164263365,3.1433585107195086,8.026245517662346
1539732006675843,47.39452201113886,3.7537193865873633,7.721065079728305
1539732006691850,30.121309224078686,2.655069810025225,5.157549401083315
1539732006707858,6.9886320286868795,0.6408789196611906,2.04470893415737
1539732006723877,-9.063859006637585,-0.8239871824216607,0.03051804379333589
1539732006739884,-10.89494163424115,-1.1902037079423735,-0.213626306553806
1539732006755891,-2.4719615472647547,-0.7629510948347615,0.7019150072480898
1539732006771899,7.721065079728305,-0.09155413138023505,1.6174563210497581
1539732006787906,11.444266422522333,0.213626306553806,1.6784924086366573
1539732006803914,7.476920729381163,-0.03051804379333589,0.8239871824216607
1539732006819921,0.8239871824216607,-0.45777065690094787,0.2746623941404778
1539732006835929,-4.486152437628789,-0.5188067444876197,-0.15259021896690683
1539732006851936,-6.195162890058782,-0.33569848172737693,-0.213626306553806
1539732006867943,-5.645838101777599,0.2746623941404778,-0.15259021896690683
1539732006883951,-4.364080262455218,0.3967345693140487,-0.45777065690094787
1539732006899958,-2.655069810025225,0.2746623941404778,-0.6408789196611906
1539732006915966,-0.7629510948347615,0.15259021896690683,-0.45777065690094787
1539732006931973,1.0070954451819034,-0.09155413138023505,-0.2746623941404778
1539732006947981,2.288853284504512,-0.15259021896690683,-0.15259021896690683
1539732006963988,1.5564202334630863,-0.3967345693140487,-0.5188067444876197
1539732006979995,0.8239871824216607,-0.6408789196611906,-0.8239871824216607
1539732006996003,2.9602502479590385,-0.7019150072480898,-0.8239871824216607
1539732007012010,6.317235065232353,-0.2746623941404778,-0.213626306553806
1539732007028018,5.706874189364498,-0.33569848172737693,0.03051804379333589
1539732007044006,2.166781109330941,-0.8239871824216607,-0.2746623941404778
1539732007060013,0.8239871824216607,-1.2512397955290453,-0.45777065690094787
1539732007076021,2.655069810025225,-1.3122758831159445,-0.15259021896690683
1539732007092028,4.9134050507361735,-1.3122758831159445,0.33569848172737693
1539732007108036,5.523765926604028,-1.3733119707026162,0.45777065690094787
1539732007124043,5.2185854886702145,-1.6174563210497581,0.5798428320745188
1539732007140051,4.42511635004189,-1.739528496223329,0.7629510948347615
1539732007156058,3.936827649347606,-1.8616006713969,0.7629510948347615
1539732007172065,4.547188525215461,-1.8005645838102282,1.0681315327688026
1539732007188073,4.486152437628789,-1.6784924086366573,1.1291676203554744
1539732007204080,3.997863736934505,-1.5564202334630863,1.1902037079423735
1539732007220088,3.0212863355459376,-1.4343480582895154,1.2512397955290453
1539732007236095,2.3498893720911838,-1.3122758831159445,1.3122758831159445
1539732007252102,2.166781109330941,-1.1902037079423735,1.4343480582895154
1539732007268110,1.3733119707026162,-1.3733119707026162,1.3733119707026162
1539732007284117,-1.4953841458761872,-1.739528496223329,1.1291676203554744
1539732007300125,-5.0354772259097444,-1.9226367589837992,0.7629510948347615
1539732007316132,-7.4158846417944915,-1.3733119707026162,0.03051804379333589
1539732007332140,-5.706874189364498,-0.7629510948347615,-0.15259021896690683
