Timestamp (microseconds),Accel X (g),Accel Y (g),Accel Z (g)
1539131185661926,-0.13116655222400242,0.9586938277256429,0.2578774700541695
1539131185677928,-0.12945754177157243,0.9579613946746015,0.25848783093003735
1539131185693929,-0.1283588921950103,0.9588158999008165,0.2570229648279545
1539131185709931,-0.12774853131914243,0.9585717555504694,0.2561684596017395
1539131185725933,-0.12640573739223315,0.9574731059739072,0.2575112535286488
1539131185741934,-0.12555123216601816,0.9566186007476922,0.25690089265278093
1539131185757936,-0.126161593041886,0.9580834668497751,0.25470359349965666
1539131185773938,-0.12506294346532387,0.9582055390249486,0.2545815213244831
1539131185789940,-0.127870603494316,0.9568627450980394,0.2544594491493095
1539131185805941,-0.1257953765163653,0.9573510337987337,0.2544594491493095
1539131185821943,-0.12713817044327458,0.9572289616235601,0.2532387273975738
1539131185837945,-0.12884718089570457,0.9571068894483865,0.25177386129549095
1539131185853946,-0.12884718089570457,0.9557640955214772,0.2544594491493095
1539131185869948,-0.12921339742122528,0.9577172503242544,0.25519188220035094
1539131185885950,-0.12762645914396886,0.9575951781490808,0.25421530479896237
1539131185901951,-0.12921339742122528,0.9568627450980394,0.2556801709010452
1539131185917953,-0.12799267566948958,0.9574731059739072,0.25799954222934307
1539131185933955,-0.12848096437018386,0.9586938277256429,0.2604409857328145
1539131185949957,-0.13031204699778742,0.9577172503242544,0.2578774700541695
1539131185965958,-0.129579613946746,0.9579613946746015,0.25604638742656594
1539131185981933,-0.129579613946746,0.9568627450980394,0.25604638742656594
1539131185997935,-0.13006790264744028,0.9573510337987337,0.2566567483024338
1539131186013937,-0.1308003356984817,0.9564965285725187,0.2566567483024338
1539131186029938,-0.13189898527504385,0.9573510337987337,0.2562905317769131
1539131186045940,-0.13104448004882885,0.9584496833752958,0.2594644083314259
1539131186061942,-0.13055619134813456,0.9573510337987337,0.25763332570382236
1539131186077943,-0.13031204699778742,0.9594262607766844,0.2573891813534752
1539131186093945,-0.1290913252460517,0.9584496833752958,0.25983062485694663
1539131186109947,-0.12811474784466315,0.9573510337987337,0.2575112535286488
1539131186125949,-0.1275043869687953,0.9557640955214772,0.2573891813534752
1539131186141950,-0.12713817044327458,0.9575951781490808,0.2582436865796902
1539131186157952,-0.12738231479362172,0.9563744563973451,0.2594644083314259
1539131186173954,-0.12799267566948958,0.9575951781490808,0.2573891813534752
1539131186189955,-0.12848096437018386,0.9586938277256429,0.2573891813534752
1539131186205957,-0.1275043869687953,0.9584496833752958,0.2562905317769131
1539131186221959,-0.12799267566948958,0.9585717555504694,0.2554360265506981
1539131186237960,-0.13067826352330814,0.9572289616235601,0.2554360265506981
1539131186253962,-0.127870603494316,0.9572289616235601,0.25397116044861523
1539131186269964,-0.127016098268101,0.9560082398718244,0.2554360265506981
1539131186285966,-0.12848096437018386,0.9599145494773786,0.25555809872587165
1539131186302002,-0.1283588921950103,0.9608911268787672,0.2549477378500038
1539131186318003,-0.12774853131914243,0.9602807660028994,0.25555809872587165
1539131186334005,-0.13116655222400242,0.9582055390249486,0.2540932326237888
1539131186350007,-0.130434119172961,0.9573510337987337,0.25677882047760736
1539131186366008,-0.13141069657434956,0.9549095902952622,0.26056305790798806
1539131186382010,-0.13116655222400242,0.9545433737697415,0.2587319752803845
1539131186398012,-0.13055619134813456,0.9561303120469979,0.25897611963073164
1539131186414013,-0.13226520180056456,0.9582055390249486,0.2590981918059052
1539131186430015,-0.13141069657434956,0.9605249103532465,0.25519188220035094
1539131186446017,-0.13067826352330814,0.9608911268787672,0.2554360265506981
1539131186462019,-0.1299458304722667,0.9566186007476922,0.2578774700541695
1539131186478020,-0.1283588921950103,0.9557640955214772,0.2565346761272602
1539131186494022,-0.12726024261844815,0.9563744563973451,0.2558022430762188
1539131186510024,-0.12689402609292744,0.9562523842221715,0.25690089265278093
1539131186526025,-0.12652780956740672,0.9569848172732129,0.25397116044861523
1539131186542027,-0.1257953765163653,0.9577172503242544,0.25470359349965666
1539131186558029,-0.1249408712901503,0.9589379720759901,0.2527504386968795
1539131186574031,-0.126161593041886,0.9588158999008165,0.2536049439230945
1539131186590032,-0.12603952086671244,0.9574731059739072,0.25506981002517737
1539131186606034,-0.127016098268101,0.9585717555504694,0.2536049439230945
1539131186622192,-0.12799267566948958,0.9579613946746015,0.25433737697413594
1539131186638194,-0.12762645914396886,0.9604028381780729,0.2565346761272602
1539131186654196,-0.12823682001983672,0.9584496833752958,0.2578774700541695
1539131186670199,-0.12896925307087814,0.9588158999008165,0.2575112535286488
1539131186686201,-0.1308003356984817,0.9568627450980394,0.25848783093003735
1539131186702203,-0.13141069657434956,0.9566186007476922,0.2587319752803845
1539131186718205,-0.130434119172961,0.9569848172732129,0.2578774700541695
1539131186734207,-0.13397421225299455,0.9571068894483865,0.26178377965972377
1539131186750209,-0.132143129625391,0.9569848172732129,0.2595864805065995
1539131186766212,-0.13202105745021742,0.9573510337987337,0.2611734187838559
1539131186782214,-0.13299763485160598,0.9561303120469979,0.2578774700541695
1539131186798216,-0.13104448004882885,0.9564965285725187,0.26190585183489734
1539131186814218,-0.13202105745021742,0.9560082398718244,0.2573891813534752
1539131186830220,-0.13189898527504385,0.9566186007476922,0.25690089265278093
1539131186846223,-0.13006790264744028,0.9571068894483865,0.25604638742656594
1539131186862225,-0.1290913252460517,0.9569848172732129,0.2575112535286488
1539131186878227,-0.12774853131914243,0.9569848172732129,0.2578774700541695
1539131186894229,-0.12823682001983672,0.9571068894483865,0.25384908827344166
1539131186910231,-0.12506294346532387,0.9574731059739072,0.2570229648279545
1539131186926233,-0.12555123216601816,0.9582055390249486,0.25397116044861523
1539131186942321,-0.12481879911497673,0.9579613946746015,0.2525062943465324
1539131186958324,-0.12518501564049744,0.9586938277256429,0.25555809872587165
1539131186974327,-0.12481879911497673,0.9585717555504694,0.2554360265506981
1539131186990329,-0.1249408712901503,0.9601586938277258,0.2533607995727474
1539131187006332,-0.1266498817425803,0.9584496833752958,0.25763332570382236
1539131187022335,-0.12652780956740672,0.9566186007476922,0.25433737697413594
1539131187038337,-0.127870603494316,0.9562523842221715,0.2566567483024338
1539131187054340,-0.1275043869687953,0.9571068894483865,0.2537270160982681
1539131187070343,-0.12860303654535743,0.9589379720759901,0.2548256656748302
1539131187086345,-0.1299458304722667,0.9594262607766844,0.2565346761272602
1539131187102348,-0.13177691309987027,0.9605249103532465,0.2562905317769131
1539131187118351,-0.13153276874952313,0.9575951781490808,0.25690089265278093
1539131187134353,-0.13580529488059812,0.9553978789959565,0.2587319752803845
1539131187150356,-0.1362935835812924,0.952712291142138,0.26153963530937663
1539131187166359,-0.13690394445716025,0.9525902189669644,0.2609292744335088
1539131187182361,-0.13604943923094526,0.9555199511711301,0.2600747692072938
1539131187198364,-0.13617151140611883,0.9589379720759901,0.2594644083314259
1539131187214367,-0.1354390783550774,0.9595483329518579,0.2603189135576409
1539131187230369,-0.13299763485160598,0.9599145494773786,0.2608072022583352
1539131187246372,-0.13116655222400242,0.9599145494773786,0.2566567483024338
1539131187262512,-0.12738231479362172,0.9553978789959565,0.2573891813534752
1539131187278515,-0.12457465476462959,0.9569848172732129,0.2562905317769131
1539131187294518,-0.12420843823910888,0.954421301594568,0.2562905317769131
1539131187310521,-0.12347600518806745,0.9574731059739072,0.25262836652170595
1539131187326524,-0.1228656443121996,0.9586938277256429,0.2532387273975738
1539131187342527,-0.12152285038529032,0.9586938277256429,0.25470359349965666
1539131187358531,-0.12274357213702602,0.9585717555504694,0.2527504386968795
1539131187374534,-0.1220111390859846,0.9577172503242544,0.2533607995727474
1539131187390537,-0.1240863660639353,0.9564965285725187,0.25311665522240023
1539131187406540,-0.12738231479362172,0.9572289616235601,0.2536049439230945
1539131187422543,-0.126161593041886,0.9573510337987337,0.2525062943465324
1539131187438546,-0.1275043869687953,0.9582055390249486,0.2499427786678874
1539131187454549,-0.1283588921950103,0.9586938277256429,0.2527504386968795
1539131187470553,-0.13055619134813456,0.9574731059739072,0.2520180056458381
1539131187486556,-0.13189898527504385,0.9582055390249486,0.25592431525139236
1539131187502559,-0.13226520180056456,0.9575951781490808,0.2582436865796902
1539131187518562,-0.1328755626764324,0.9571068894483865,0.25799954222934307
1539131187534565,-0.13177691309987027,0.9561303120469979,0.26056305790798806
1539131187550568,-0.1328755626764324,0.9569848172732129,0.25983062485694663
1539131187566571,-0.13324177920195313,0.9556420233463037,0.26141756313420306
1539131187582702,-0.13348592355230027,0.9560082398718244,0.26056305790798806
1539131187598706,-0.13141069657434956,0.9567406729228658,0.26068513008316163
1539131187614709,-0.13177691309987027,0.9573510337987337,0.2620279240100709
1539131187630713,-0.131288624399176,0.9566186007476922,0.2586099031052109
1539131187646717,-0.13031204699778742,0.9572289616235601,0.2570229648279545
1539131187662720,-0.12921339742122528,0.9566186007476922,0.2599526970321202
1539131187678724,-0.1283588921950103,0.9572289616235601,0.25885404745555807
1539131187694728,-0.12677195391775387,0.9572289616235601,0.2583657587548638
1539131187710731,-0.12603952086671244,0.9578393224994279,0.25519188220035094
1539131187726735,-0.12555123216601816,0.9579613946746015,0.2571450370031281
1539131187742738,-0.12713817044327458,0.9588158999008165,0.25397116044861523
1539131187758742,-0.126161593041886,0.9604028381780729,0.25592431525139236
1539131187774746,-0.12689402609292744,0.9577172503242544,0.2536049439230945
1539131187790749,-0.127870603494316,0.9582055390249486,0.25262836652170595
1539131187806753,-0.12799267566948958,0.9567406729228658,0.2533607995727474
1539131187822756,-0.12726024261844815,0.9562523842221715,0.25397116044861523
1539131187838760,-0.12713817044327458,0.9579613946746015,0.25348287174792095
1539131187854764,-0.12762645914396886,0.9569848172732129,0.2528725108720531
1539131187870767,-0.12689402609292744,0.9599145494773786,0.25592431525139236
1539131187886771,-0.12811474784466315,0.9602807660028994,0.25433737697413594
1539131187902893,-0.1308003356984817,0.9585717555504694,0.2554360265506981
1539131187918897,-0.130434119172961,0.9541771572442208,0.2570229648279545
1539131187934901,-0.13189898527504385,0.954421301594568,0.2594644083314259
1539131187950905,-0.13189898527504385,0.9539330128938737,0.2587319752803845
1539131187966909,-0.132143129625391,0.9568627450980394,0.2592202639810788
1539131187982913,-0.13275349050125884,0.9584496833752958,0.26056305790798806
1539131187998917,-0.13177691309987027,0.9601586938277258,0.2600747692072938
1539131188014921,-0.1308003356984817,0.9600366216525522,0.26105134660868234
1539131188030925,-0.12799267566948958,0.9571068894483865,0.2578774700541695
1539131188046929,-0.12860303654535743,0.9564965285725187,0.25970855268177306
1539131188062934,-0.12713817044327458,0.9553978789959565,0.25812161440451664
1539131188078938,-0.12652780956740672,0.9566186007476922,0.2556801709010452
1539131188094942,-0.12689402609292744,0.9566186007476922,0.25506981002517737
1539131188110946,-0.12762645914396886,0.9577172503242544,0.25506981002517737
1539131188126950,-0.12762645914396886,0.9588158999008165,0.2533607995727474
1539131188142954,-0.12848096437018386,0.9583276112001222,0.2556801709010452
1539131188158958,-0.12762645914396886,0.9579613946746015,0.2532387273975738
1539131188174962,-0.12774853131914243,0.9579613946746015,0.25177386129549095
1539131188190966,-0.12823682001983672,0.9574731059739072,0.25433737697413594
1539131188206970,-0.12884718089570457,0.9590600442511636,0.2586099031052109
1539131188223022,-0.12933546959639886,0.9575951781490808,0.25384908827344166
1539131188239027,-0.12848096437018386,0.9566186007476922,0.25299458304722666
1539131188255031,-0.12921339742122528,0.9584496833752958,0.25421530479896237
1539131188271036,-0.12896925307087814,0.9584496833752958,0.2594644083314259
1539131188287040,-0.12970168612191957,0.9588158999008165,0.2594644083314259
1539131188303045,-0.12848096437018386,0.9583276112001222,0.26105134660868234
1539131188319049,-0.12738231479362172,0.9579613946746015,0.2573891813534752
1539131188335054,-0.12933546959639886,0.9584496833752958,0.2583657587548638
1539131188351059,-0.13006790264744028,0.9574731059739072,0.2590981918059052
1539131188367063,-0.12945754177157243,0.9568627450980394,0.25812161440451664
1539131188383068,-0.13006790264744028,0.9574731059739072,0.2603189135576409
1539131188399072,-0.12896925307087814,0.9585717555504694,0.25848783093003735
1539131188415077,-0.12738231479362172,0.9575951781490808,0.25897611963073164
1539131188431081,-0.128725108720531,0.9574731059739072,0.25470359349965666
1539131188447086,-0.12921339742122528,0.9571068894483865,0.25775539787899593
1539131188463091,-0.12933546959639886,0.9560082398718244,0.2578774700541695
1539131188479095,-0.12860303654535743,0.9577172503242544,0.2532387273975738
1539131188495100,-0.1290913252460517,0.9572289616235601,0.2587319752803845
1539131188511104,-0.12811474784466315,0.9562523842221715,0.2578774700541695
1539131188527109,-0.12799267566948958,0.9563744563973451,0.25677882047760736
1539131188543213,-0.12640573739223315,0.9555199511711301,0.2587319752803845
1539131188559217,-0.12738231479362172,0.9574731059739072,0.25799954222934307
1539131188575222,-0.12762645914396886,0.9583276112001222,0.25299458304722666
1539131188591226,-0.12970168612191957,0.9611352712291144,0.2549477378500038
1539131188607231,-0.13006790264744028,0.9621118486305029,0.25677882047760736
1539131188623235,-0.130434119172961,0.9615014877546351,0.25677882047760736
1539131188639240,-0.13092240787365528,0.9582055390249486,0.2540932326237888
1539131188655244,-0.13141069657434956,0.9545433737697415,0.2548256656748302
1539131188671249,-0.13116655222400242,0.9538109407187001,0.25690089265278093
1539131188687254,-0.132143129625391,0.9533226520180058,0.2554360265506981
1539131188703258,-0.13238727397573813,0.954421301594568,0.25506981002517737
1539131188719263,-0.13324177920195313,0.9546654459449151,0.2562905317769131
1539131188735267,-0.13311970702677955,0.9571068894483865,0.25677882047760736
1539131188751272,-0.1328755626764324,0.9584496833752958,0.2570229648279545
1539131188767276,-0.1316548409246967,0.9595483329518579,0.2570229648279545
1539131188783281,-0.13018997482261385,0.9590600442511636,0.25470359349965666
1539131188799286,-0.13067826352330814,0.9569848172732129,0.25812161440451664
1539131188815290,-0.12713817044327458,0.9558861676966508,0.25604638742656594
1539131188831295,-0.12640573739223315,0.9551537346456094,0.2565346761272602
1539131188847299,-0.1249408712901503,0.9558861676966508,0.2566567483024338
1539131188863403,-0.12384222171358816,0.9573510337987337,0.2595864805065995
1539131188879408,-0.12457465476462959,0.9596704051270315,0.25604638742656594
1539131188895413,-0.12445258258945602,0.9588158999008165,0.25775539787899593
1539131188911418,-0.1240863660639353,0.9566186007476922,0.2562905317769131
1539131188927423,-0.12433051041428245,0.9553978789959565,0.2570229648279545
1539131188943428,-0.127016098268101,0.9563744563973451,0.2594644083314259
1539131188959433,-0.12811474784466315,0.9568627450980394,0.2582436865796902
1539131188975438,-0.12884718089570457,0.9588158999008165,0.26056305790798806
1539131188991443,-0.129579613946746,0.9596704051270315,0.2570229648279545
1539131189007448,-0.1299458304722667,0.9594262607766844,0.2566567483024338
1539131189023453,-0.1299458304722667,0.9583276112001222,0.2558022430762188
1539131189039458,-0.130434119172961,0.9579613946746015,0.25555809872587165
1539131189055463,-0.129579613946746,0.9557640955214772,0.2548256656748302
1539131189071468,-0.12884718089570457,0.9573510337987337,0.2532387273975738
1539131189087473,-0.1290913252460517,0.9569848172732129,0.25397116044861523
1539131189103479,-0.13067826352330814,0.9589379720759901,0.2532387273975738
1539131189119484,-0.12945754177157243,0.9621118486305029,0.24982070649271382
1539131189135489,-0.13067826352330814,0.9606469825284201,0.24835584039063097
1539131189151494,-0.13055619134813456,0.9578393224994279,0.24762340733958954
1539131189167499,-0.13177691309987027,0.9588158999008165,0.25055313954375524
1539131189183593,-0.13189898527504385,0.9572289616235601,0.25018692301823453
1539131189199599,-0.1308003356984817,0.9569848172732129,0.2504310673685817
1539131189215604,-0.131288624399176,0.9573510337987337,0.2533607995727474
1539131189231610,-0.129579613946746,0.9578393224994279,0.2527504386968795
1539131189247615,-0.1290913252460517,0.9578393224994279,0.25348287174792095
1539131189263621,-0.12921339742122528,0.9593041886015108,0.2566567483024338
1539131189279626,-0.12970168612191957,0.9596704051270315,0.2590981918059052
1539131189295632,-0.128725108720531,0.9584496833752958,0.2573891813534752
1539131189311638,-0.1290913252460517,0.9556420233463037,0.2573891813534752
1539131189327643,-0.1275043869687953,0.9560082398718244,0.2570229648279545
1539131189343649,-0.12689402609292744,0.9589379720759901,0.25763332570382236
1539131189359654,-0.12848096437018386,0.9600366216525522,0.2609292744335088
1539131189375660,-0.12762645914396886,0.9593041886015108,0.26068513008316163
1539131189391665,-0.12738231479362172,0.9577172503242544,0.25983062485694663
1539131189407671,-0.1275043869687953,0.9558861676966508,0.2608072022583352
1539131189423676,-0.12921339742122528,0.9556420233463037,0.26019684138246735
1539131189439682,-0.12848096437018386,0.9578393224994279,0.25726710917830165
1539131189455687,-0.129579613946746,0.9594262607766844,0.25641260395208665
1539131189471693,-0.12921339742122528,0.9593041886015108,0.2537270160982681
1539131189487698,-0.13031204699778742,0.9575951781490808,0.2548256656748302
1539131189503753,-0.12848096437018386,0.9577172503242544,0.2506752117189288
1539131189519759,-0.12774853131914243,0.9571068894483865,0.2518959334706645
1539131189535764,-0.12652780956740672,0.9573510337987337,0.2518959334706645
1539131189551770,-0.127016098268101,0.9593041886015108,0.2510414282444495
1539131189567775,-0.12811474784466315,0.9594262607766844,0.2520180056458381
1539131189583781,-0.12652780956740672,0.9606469825284201,0.25177386129549095
1539131189599786,-0.12738231479362172,0.9595483329518579,0.25177386129549095
1539131189615792,-0.1283588921950103,0.9583276112001222,0.2504310673685817
1539131189631797,-0.127870603494316,0.9578393224994279,0.24982070649271382
1539131189647803,-0.13067826352330814,0.9580834668497751,0.25226214999618524
1539131189663808,-0.13018997482261385,0.9573510337987337,0.2518959334706645
1539131189679814,-0.12970168612191957,0.9562523842221715,0.25604638742656594
1539131189695819,-0.1308003356984817,0.9568627450980394,0.25799954222934307
1539131189711825,-0.13311970702677955,0.9553978789959565,0.25885404745555807
1539131189727831,-0.13263141832608527,0.9578393224994279,0.2603189135576409
1539131189743836,-0.13275349050125884,0.9580834668497751,0.2592202639810788
1539131189759842,-0.132143129625391,0.9590600442511636,0.2561684596017395
1539131189775847,-0.13153276874952313,0.9613794155794615,0.2594644083314259
1539131189791853,-0.132143129625391,0.9591821164263372,0.25812161440451664
1539131189807858,-0.13263141832608527,0.9582055390249486,0.25775539787899593
1539131189823913,-0.13141069657434956,0.9555199511711301,0.25690089265278093
1539131189839919,-0.13018997482261385,0.9556420233463037,0.25592431525139236
1539131189855925,-0.12933546959639886,0.9569848172732129,0.2556801709010452
1539131189871931,-0.12799267566948958,0.9562523842221715,0.2558022430762188
1539131189887937,-0.1275043869687953,0.9568627450980394,0.25299458304722666
1539131189903943,-0.12726024261844815,0.9567406729228658,0.2532387273975738
1539131189919949,-0.12518501564049744,0.9579613946746015,0.2549477378500038
1539131189935955,-0.12542915999084459,0.9608911268787672,0.2536049439230945
1539131189951961,-0.1257953765163653,0.9593041886015108,0.2515297169451438
1539131189967967,-0.12506294346532387,0.9586938277256429,0.2525062943465324
1539131189983973,-0.12420843823910888,0.9583276112001222,0.2558022430762188
1539131189999979,-0.1257953765163653,0.9586938277256429,0.2553139543755245
1539131190015985,-0.12481879911497673,0.9584496833752958,0.2583657587548638
1539131190031991,-0.12445258258945602,0.9573510337987337,0.2594644083314259
1539131190047997,-0.126161593041886,0.9564965285725187,0.25812161440451664
1539131190064003,-0.12689402609292744,0.9566186007476922,0.25799954222934307
1539131190080009,-0.1299458304722667,0.9568627450980394,0.25641260395208665
1539131190096015,-0.13104448004882885,0.955275806820783,0.25690089265278093
1539131190112021,-0.13116655222400242,0.9571068894483865,0.25812161440451664
1539131190128027,-0.1328755626764324,0.9589379720759901,0.25677882047760736
1539131190144104,-0.13238727397573813,0.9615014877546351,0.2566567483024338
1539131190160110,-0.13434042877851526,0.9613794155794615,0.2536049439230945
1539131190176116,-0.13385214007782098,0.9602807660028994,0.25604638742656594
1539131190192122,-0.13482871747920955,0.9549095902952622,0.25690089265278093
1539131190208128,-0.13385214007782098,0.9550316624704358,0.2554360265506981
1539131190224134,-0.13311970702677955,0.9569848172732129,0.2540932326237888
1539131190240140,-0.13226520180056456,0.9577172503242544,0.2558022430762188
1539131190256146,-0.13092240787365528,0.9591821164263372,0.25677882047760736
1539131190272152,-0.1290913252460517,0.9594262607766844,0.2553139543755245
1539131190288158,-0.12713817044327458,0.9600366216525522,0.2562905317769131
1539131190304164,-0.12445258258945602,0.9591821164263372,0.25470359349965666
1539131190320170,-0.12457465476462959,0.9579613946746015,0.2523842221713588
1539131190336176,-0.12225528343633174,0.9540550850690472,0.25397116044861523
1539131190352182,-0.12152285038529032,0.9561303120469979,0.2536049439230945
1539131190368188,-0.12079041733424889,0.9567406729228658,0.25262836652170595
1539131190384194,-0.12225528343633174,0.9573510337987337,0.2561684596017395
1539131190400200,-0.12298771648737317,0.9577172503242544,0.2558022430762188
1539131190416206,-0.12481879911497673,0.9573510337987337,0.25421530479896237
1539131190432212,-0.12555123216601816,0.9579613946746015,0.25519188220035094
1539131190448217,-0.1283588921950103,0.9593041886015108,0.25885404745555807
1539131190464294,-0.13067826352330814,0.9586938277256429,0.25641260395208665
1539131190480301,-0.13055619134813456,0.9577172503242544,0.2592202639810788
1539131190496307,-0.131288624399176,0.9583276112001222,0.2599526970321202
1539131190512313,-0.13067826352330814,0.9578393224994279,0.26056305790798806
1539131190528320,-0.13104448004882885,0.9582055390249486,0.2620279240100709
1539131190544326,-0.131288624399176,0.9578393224994279,0.2620279240100709
1539131190560333,-0.13299763485160598,0.9583276112001222,0.2595864805065995
1539131190576339,-0.13177691309987027,0.9580834668497751,0.2603189135576409
1539131190592346,-0.13238727397573813,0.9577172503242544,0.2590981918059052
1539131190608352,-0.13177691309987027,0.9556420233463037,0.2586099031052109
1539131190624359,-0.13104448004882885,0.9560082398718244,0.2554360265506981
1539131190640365,-0.1308003356984817,0.9582055390249486,0.2528725108720531
1539131190656372,-0.13141069657434956,0.9589379720759901,0.25555809872587165
1539131190672378,-0.12713817044327458,0.9594262607766844,0.25348287174792095
1539131190688385,-0.12689402609292744,0.9588158999008165,0.2523842221713588
1539131190704391,-0.12689402609292744,0.9578393224994279,0.25311665522240023
1539131190720398,-0.12591744869153887,0.9571068894483865,0.25140764476997024
1539131190736404,-0.12689402609292744,0.9569848172732129,0.25262836652170595
1539131190752411,-0.12542915999084459,0.9571068894483865,0.2523842221713588
1539131190768417,-0.12469672693980316,0.9580834668497751,0.2504310673685817
1539131190784484,-0.12530708781567101,0.9578393224994279,0.2528725108720531
1539131190800491,-0.1240863660639353,0.9599145494773786,0.2520180056458381
1539131190816497,-0.127016098268101,0.9586938277256429,0.2558022430762188
1539131190832504,-0.12713817044327458,0.9572289616235601,0.2548256656748302
1539131190848510,-0.1275043869687953,0.9572289616235601,0.25677882047760736
1539131190864517,-0.128725108720531,0.9564965285725187,0.26105134660868234
1539131190880523,-0.127870603494316,0.9584496833752958,0.25934233615625235
1539131190896530,-0.12921339742122528,0.9585717555504694,0.2586099031052109
1539131190912536,-0.13092240787365528,0.9578393224994279,0.25897611963073164
1539131190928543,-0.13299763485160598,0.9593041886015108,0.25506981002517737
1539131190944549,-0.13311970702677955,0.9589379720759901,0.25775539787899593
1539131190960556,-0.13519493400473026,0.9606469825284201,0.2590981918059052
1539131190976562,-0.13434042877851526,0.9618677042801558,0.2608072022583352
1539131190992569,-0.13238727397573813,0.9615014877546351,0.2592202639810788
1539131191008575,-0.1325093461509117,0.9575951781490808,0.2582436865796902
1539131191024582,-0.132143129625391,0.9546654459449151,0.2608072022583352
1539131191040588,-0.13092240787365528,0.9536888685435265,0.2604409857328145
1539131191056594,-0.12933546959639886,0.9553978789959565,0.26056305790798806
1539131191072601,-0.12860303654535743,0.9577172503242544,0.2575112535286488
1539131191088607,-0.12921339742122528,0.9607690547035936,0.2590981918059052
1539131191104644,-0.1275043869687953,0.9601586938277258,0.25470359349965666
1539131191120651,-0.1266498817425803,0.9579613946746015,0.2548256656748302
1539131191136658,-0.12713817044327458,0.9564965285725187,0.2537270160982681
1539131191152665,-0.12603952086671244,0.9563744563973451,0.25311665522240023
1539131191168672,-0.1240863660639353,0.9582055390249486,0.25397116044861523
1539131191184679,-0.12262149996185245,0.9596704051270315,0.25226214999618524
1539131191200686,-0.12359807736324102,0.9585717555504694,0.25384908827344166
1539131191216693,-0.1228656443121996,0.9608911268787672,0.25519188220035094
1539131191232700,-0.12323186083772031,0.9606469825284201,0.25348287174792095
1539131191248707,-0.1249408712901503,0.9582055390249486,0.2578774700541695
1539131191264714,-0.12542915999084459,0.9557640955214772,0.2554360265506981
1539131191280721,-0.12774853131914243,0.9556420233463037,0.2540932326237888
1539131191296728,-0.12921339742122528,0.9564965285725187,0.2573891813534752
1539131191312735,-0.131288624399176,0.9572289616235601,0.25897611963073164
1539131191328742,-0.13055619134813456,0.9575951781490808,0.2592202639810788
1539131191344749,-0.13116655222400242,0.9572289616235601,0.2575112535286488
1539131191360756,-0.13397421225299455,0.9566186007476922,0.2582436865796902
1539131191376762,-0.13470664530403598,0.9575951781490808,0.2603189135576409
1539131191392769,-0.1337300679026474,0.9566186007476922,0.25934233615625235
1539131191408776,-0.13397421225299455,0.9583276112001222,0.2612954909590295
1539131191424835,-0.13275349050125884,0.9579613946746015,0.2609292744335088
1539131191440842,-0.1316548409246967,0.9582055390249486,0.26056305790798806
1539131191456849,-0.13153276874952313,0.9585717555504694,0.2603189135576409
1539131191472856,-0.1308003356984817,0.9580834668497751,0.2583657587548638
1539131191488863,-0.1299458304722667,0.9572289616235601,0.25726710917830165
1539131191504870,-0.12970168612191957,0.9569848172732129,0.25641260395208665
1539131191520877,-0.12689402609292744,0.9585717555504694,0.2571450370031281
1539131191536883,-0.12677195391775387,0.9589379720759901,0.25519188220035094
1539131191552890,-0.12628366521705958,0.9577172503242544,0.2533607995727474
1539131191568897,-0.12469672693980316,0.9573510337987337,0.2515297169451438
1539131191584904,-0.12518501564049744,0.9564965285725187,0.25421530479896237
1539131191600911,-0.1275043869687953,0.9580834668497751,0.2510414282444495
1539131191616918,-0.12677195391775387,0.9572289616235601,0.25214007782101167
1539131191632925,-0.12445258258945602,0.9589379720759901,0.25226214999618524
1539131191648932,-0.12591744869153887,0.9586938277256429,0.2544594491493095
1539131191664939,-0.12689402609292744,0.9585717555504694,0.2548256656748302
1539131191680946,-0.1283588921950103,0.9596704051270315,0.25555809872587165
1539131191696953,-0.1275043869687953,0.9596704051270315,0.25848783093003735
1539131191712960,-0.12945754177157243,0.9585717555504694,0.2600747692072938
1539131191728967,-0.129579613946746,0.9582055390249486,0.2583657587548638
1539131191745025,-0.1308003356984817,0.9579613946746015,0.25555809872587165
1539131191761032,-0.13104448004882885,0.9569848172732129,0.25848783093003735
1539131191777039,-0.13067826352330814,0.9566186007476922,0.2573891813534752
1539131191793046,-0.12933546959639886,0.9561303120469979,0.2592202639810788
1539131191809053,-0.12884718089570457,0.9583276112001222,0.25897611963073164
1539131191825060,-0.13006790264744028,0.9599145494773786,0.2595864805065995
1539131191841067,-0.12945754177157243,0.9604028381780729,0.26105134660868234
1539131191857074,-0.130434119172961,0.9569848172732129,0.26056305790798806
1539131191873081,-0.1299458304722667,0.9557640955214772,0.2608072022583352
1539131191889088,-0.131288624399176,0.9532005798428322,0.2609292744335088
1539131191905095,-0.12945754177157243,0.9540550850690472,0.2604409857328145
1539131191921102,-0.13189898527504385,0.9574731059739072,0.25812161440451664
1539131191937109,-0.13153276874952313,0.9605249103532465,0.2599526970321202
1539131191953116,-0.12945754177157243,0.9606469825284201,0.2578774700541695
1539131191969123,-0.12945754177157243,0.9589379720759901,0.2553139543755245
1539131191985129,-0.12823682001983672,0.9575951781490808,0.25555809872587165
1539131192001136,-0.12506294346532387,0.9556420233463037,0.25214007782101167
1539131192017143,-0.12555123216601816,0.9556420233463037,0.25299458304722666
1539131192033150,-0.12396429388876173,0.9562523842221715,0.2536049439230945
1539131192049157,-0.12310978866254674,0.9585717555504694,0.25592431525139236
1539131192065185,-0.12140077821011674,0.9586938277256429,0.2533607995727474
1539131192081193,-0.12249942778667888,0.9574731059739072,0.25433737697413594
1539131192097200,-0.12445258258945602,0.9583276112001222,0.25384908827344166
1539131192113207,-0.126161593041886,0.9574731059739072,0.25433737697413594
1539131192129215,-0.12823682001983672,0.9574731059739072,0.25384908827344166
1539131192145222,-0.12823682001983672,0.9571068894483865,0.2571450370031281
1539131192161230,-0.13018997482261385,0.9566186007476922,0.25677882047760736
1539131192177237,-0.12945754177157243,0.9571068894483865,0.25592431525139236
1539131192193245,-0.1316548409246967,0.9585717555504694,0.2587319752803845
1539131192209252,-0.13189898527504385,0.9583276112001222,0.25555809872587165
1539131192225259,-0.1337300679026474,0.9575951781490808,0.26056305790798806
1539131192241267,-0.13238727397573813,0.9568627450980394,0.2570229648279545
1539131192257274,-0.1333638513771267,0.9578393224994279,0.25897611963073164
1539131192273282,-0.13348592355230027,0.9575951781490808,0.25775539787899593
1539131192289289,-0.13324177920195313,0.9593041886015108,0.2603189135576409
1539131192305297,-0.13116655222400242,0.9595483329518579,0.2575112535286488
1539131192321304,-0.13189898527504385,0.9585717555504694,0.25726710917830165
1539131192337311,-0.12933546959639886,0.9578393224994279,0.2548256656748302
1539131192353319,-0.13006790264744028,0.9557640955214772,0.2570229648279545
1539131192369326,-0.12848096437018386,0.9549095902952622,0.25433737697413594
1539131192385345,-0.1275043869687953,0.9545433737697415,0.25299458304722666
1539131192401353,-0.12689402609292744,0.9562523842221715,0.2565346761272602
1539131192417360,-0.12628366521705958,0.9560082398718244,0.25604638742656594
1539131192433367,-0.126161593041886,0.9569848172732129,0.25421530479896237
1539131192449375,-0.12677195391775387,0.9564965285725187,0.2554360265506981
1539131192465382,-0.12713817044327458,0.9568627450980394,0.2556801709010452
1539131192481390,-0.12677195391775387,0.9580834668497751,0.2532387273975738
1539131192497397,-0.12469672693980316,0.9589379720759901,0.2533607995727474
1539131192513404,-0.12591744869153887,0.9583276112001222,0.2556801709010452
1539131192529412,-0.12774853131914243,0.9590600442511636,0.25433737697413594
1539131192545419,-0.12860303654535743,0.9569848172732129,0.25506981002517737
1539131192561427,-0.12921339742122528,0.9593041886015108,0.2527504386968795
1539131192577434,-0.129579613946746,0.9617456321049822,0.25604638742656594
1539131192593442,-0.13018997482261385,0.9600366216525522,0.25604638742656594
1539131192609449,-0.131288624399176,0.9580834668497751,0.2583657587548638
1539131192625456,-0.13141069657434956,0.9561303120469979,0.2582436865796902
1539131192641464,-0.13141069657434956,0.9551537346456094,0.26068513008316163
1539131192657471,-0.13153276874952313,0.9564965285725187,0.25775539787899593
1539131192673479,-0.13067826352330814,0.9586938277256429,0.25763332570382236
1539131192689486,-0.131288624399176,0.9572289616235601,0.2592202639810788
1539131192705536,-0.13067826352330814,0.9594262607766844,0.2592202639810788
1539131192721543,-0.12896925307087814,0.9567406729228658,0.25555809872587165
1539131192737550,-0.1290913252460517,0.9563744563973451,0.25799954222934307
1539131192753558,-0.12921339742122528,0.9562523842221715,0.25677882047760736
1539131192769565,-0.12896925307087814,0.9571068894483865,0.2573891813534752
1539131192785573,-0.12677195391775387,0.9569848172732129,0.2545815213244831
1539131192801580,-0.12542915999084459,0.9583276112001222,0.2565346761272602
1539131192817587,-0.1249408712901503,0.9582055390249486,0.2558022430762188
1539131192833595,-0.12469672693980316,0.9564965285725187,0.25348287174792095
1539131192849602,-0.12591744869153887,0.9561303120469979,0.2540932326237888
1539131192865610,-0.1266498817425803,0.9560082398718244,0.2540932326237888
1539131192881617,-0.12689402609292744,0.9568627450980394,0.2520180056458381
1539131192897625,-0.12640573739223315,0.9584496833752958,0.2548256656748302
1539131192913632,-0.12726024261844815,0.9593041886015108,0.2562905317769131
1539131192929639,-0.1275043869687953,0.9583276112001222,0.25812161440451664
1539131192945647,-0.128725108720531,0.9593041886015108,0.2562905317769131
1539131192961654,-0.1299458304722667,0.9593041886015108,0.26019684138246735
1539131192977662,-0.1283588921950103,0.9593041886015108,0.25555809872587165
1539131192993669,-0.1283588921950103,0.9593041886015108,0.25885404745555807
1539131193009677,-0.12774853131914243,0.9602807660028994,0.25970855268177306
1539131193025726,-0.12921339742122528,0.9595483329518579,0.25812161440451664
1539131193041734,-0.13031204699778742,0.9578393224994279,0.2586099031052109
1539131193057742,-0.12921339742122528,0.9573510337987337,0.2608072022583352
1539131193073750,-0.12982375829709314,0.9560082398718244,0.2587319752803845
1539131193089758,-0.12799267566948958,0.9551537346456094,0.25897611963073164
1539131193105765,-0.13116655222400242,0.9564965285725187,0.2565346761272602
1539131193121773,-0.13067826352330814,0.9561303120469979,0.25763332570382236
1539131193137781,-0.13153276874952313,0.9582055390249486,0.25775539787899593
1539131193153789,-0.13226520180056456,0.9579613946746015,0.25421530479896237
1539131193169797,-0.13275349050125884,0.9586938277256429,0.2544594491493095
1539131193185805,-0.13116655222400242,0.9575951781490808,0.25690089265278093
1539131193201813,-0.12982375829709314,0.9591821164263372,0.25506981002517737
1539131193217821,-0.1266498817425803,0.9596704051270315,0.2525062943465324
1539131193233829,-0.12713817044327458,0.9591821164263372,0.25262836652170595
1539131193249837,-0.12640573739223315,0.9595483329518579,0.2525062943465324
1539131193265844,-0.126161593041886,0.9588158999008165,0.2532387273975738
1539131193281852,-0.12542915999084459,0.9585717555504694,0.25214007782101167
1539131193297860,-0.12677195391775387,0.9594262607766844,0.2548256656748302
1539131193313868,-0.12726024261844815,0.9621118486305029,0.2533607995727474
1539131193329876,-0.1283588921950103,0.9604028381780729,0.2528725108720531
1539131193345916,-0.12713817044327458,0.9583276112001222,0.25433737697413594
1539131193361924,-0.12896925307087814,0.9545433737697415,0.25604638742656594
1539131193377932,-0.12896925307087814,0.952712291142138,0.2571450370031281
1539131193393940,-0.13031204699778742,0.952712291142138,0.25799954222934307
1539131193409948,-0.13104448004882885,0.9560082398718244,0.25775539787899593
1539131193425956,-0.132143129625391,0.9591821164263372,0.25970855268177306
1539131193441964,-0.13018997482261385,0.9622339208056765,0.25934233615625235
1539131193457972,-0.13018997482261385,0.9606469825284201,0.2586099031052109
1539131193473980,-0.12933546959639886,0.9584496833752958,0.25726710917830165
1539131193489987,-0.12970168612191957,0.9582055390249486,0.25470359349965666
1539131193505995,-0.129579613946746,0.9567406729228658,0.2536049439230945
1539131193522003,-0.12738231479362172,0.9563744563973451,0.25397116044861523
1539131193538011,-0.1275043869687953,0.9577172503242544,0.2553139543755245
1539131193554019,-0.12567330434119173,0.9568627450980394,0.2516517891203174
1539131193570027,-0.12555123216601816,0.9569848172732129,0.2515297169451438
1539131193586035,-0.12481879911497673,0.9553978789959565,0.25299458304722666
1539131193602043,-0.12738231479362172,0.9567406729228658,0.25348287174792095
1539131193618051,-0.12640573739223315,0.9571068894483865,0.25262836652170595
1539131193634059,-0.12628366521705958,0.9571068894483865,0.25214007782101167
1539131193650066,-0.12591744869153887,0.9582055390249486,0.2516517891203174
1539131193666076,-0.12640573739223315,0.9589379720759901,0.25299458304722666
1539131193682084,-0.12762645914396886,0.9590600442511636,0.2499427786678874
1539131193698092,-0.1290913252460517,0.9564965285725187,0.25214007782101167
1539131193714100,-0.13006790264744028,0.9573510337987337,0.2537270160982681
1539131193730108,-0.129579613946746,0.9585717555504694,0.2545815213244831
1539131193746116,-0.12799267566948958,0.9599145494773786,0.25519188220035094
1539131193762124,-0.12896925307087814,0.9617456321049822,0.2548256656748302
1539131193778132,-0.12982375829709314,0.9619897764553293,0.25470359349965666
1539131193794139,-0.1299458304722667,0.9604028381780729,0.25897611963073164
1539131193810147,-0.12982375829709314,0.9590600442511636,0.2571450370031281
1539131193826155,-0.13006790264744028,0.9572289616235601,0.2578774700541695
1539131193842163,-0.13189898527504385,0.9569848172732129,0.2554360265506981
1539131193858171,-0.12921339742122528,0.9557640955214772,0.2556801709010452
1539131193874179,-0.1328755626764324,0.9571068894483865,0.2553139543755245
1539131193890187,-0.1316548409246967,0.9564965285725187,0.25348287174792095
1539131193906195,-0.13116655222400242,0.9557640955214772,0.25311665522240023
1539131193922203,-0.13116655222400242,0.9564965285725187,0.2548256656748302
1539131193938211,-0.13031204699778742,0.9578393224994279,0.2545815213244831
1539131193954218,-0.13055619134813456,0.9580834668497751,0.2562905317769131
1539131193970226,-0.12982375829709314,0.9582055390249486,0.25433737697413594
1539131193986267,-0.1283588921950103,0.9585717555504694,0.25690089265278093
1539131194002275,-0.12762645914396886,0.9574731059739072,0.2583657587548638
1539131194018283,-0.127016098268101,0.9580834668497751,0.25604638742656594
1539131194034290,-0.1249408712901503,0.9604028381780729,0.2562905317769131
1539131194050298,-0.12555123216601816,0.9599145494773786,0.25812161440451664
1539131194066306,-0.12726024261844815,0.9601586938277258,0.2554360265506981
1539131194082314,-0.126161593041886,0.9597924773022051,0.25421530479896237
1539131194098322,-0.127016098268101,0.9560082398718244,0.25519188220035094
1539131194114330,-0.12945754177157243,0.9553978789959565,0.2556801709010452
1539131194130338,-0.12982375829709314,0.9536888685435265,0.25763332570382236
1539131194146346,-0.1283588921950103,0.9558861676966508,0.2561684596017395
1539131194162354,-0.12933546959639886,0.9564965285725187,0.25519188220035094
1539131194178362,-0.12933546959639886,0.9611352712291144,0.2571450370031281
1539131194194369,-0.12970168612191957,0.9628442816815443,0.2533607995727474
1539131194210377,-0.12921339742122528,0.9612573434042879,0.25226214999618524
1539131194226385,-0.12970168612191957,0.9596704051270315,0.25519188220035094
1539131194242393,-0.12860303654535743,0.9575951781490808,0.2528725108720531
1539131194258401,-0.12811474784466315,0.9578393224994279,0.25775539787899593
1539131194274409,-0.12567330434119173,0.9572289616235601,0.25519188220035094
1539131194290417,-0.12567330434119173,0.9575951781490808,0.2548256656748302
1539131194306457,-0.1240863660639353,0.9571068894483865,0.2565346761272602
1539131194322465,-0.12384222171358816,0.9588158999008165,0.25519188220035094
1539131194338473,-0.12726024261844815,0.9575951781490808,0.25384908827344166
1539131194354481,-0.12811474784466315,0.9580834668497751,0.25214007782101167
1539131194370489,-0.129579613946746,0.9575951781490808,0.25226214999618524
1539131194386497,-0.13116655222400242,0.9568627450980394,0.2554360265506981
1539131194402505,-0.132143129625391,0.9577172503242544,0.25604638742656594
1539131194418512,-0.13348592355230027,0.9571068894483865,0.2549477378500038
1539131194434520,-0.13116655222400242,0.9560082398718244,0.2570229648279545
1539131194450528,-0.13055619134813456,0.9589379720759901,0.2573891813534752
1539131194466536,-0.12982375829709314,0.9596704051270315,0.25519188220035094
1539131194482544,-0.12921339742122528,0.9568627450980394,0.25726710917830165
1539131194498552,-0.12860303654535743,0.9572289616235601,0.2565346761272602
1539131194514560,-0.13018997482261385,0.9566186007476922,0.2590981918059052
1539131194530568,-0.13092240787365528,0.9593041886015108,0.2583657587548638
1539131194546576,-0.13031204699778742,0.9589379720759901,0.25726710917830165
1539131194562584,-0.12933546959639886,0.9606469825284201,0.2578774700541695
1539131194578591,-0.12896925307087814,0.9594262607766844,0.25641260395208665
1539131194594599,-0.12945754177157243,0.9574731059739072,0.2549477378500038
1539131194610607,-0.127870603494316,0.9580834668497751,0.25299458304722666
1539131194626648,-0.12689402609292744,0.9579613946746015,0.2537270160982681
1539131194642656,-0.12457465476462959,0.9564965285725187,0.25519188220035094
1539131194658664,-0.12518501564049744,0.9583276112001222,0.2558022430762188
1539131194674673,-0.12457465476462959,0.9583276112001222,0.2532387273975738
1539131194690681,-0.12603952086671244,0.9562523842221715,0.2553139543755245
1539131194706689,-0.12762645914396886,0.9546654459449151,0.25421530479896237
1539131194722698,-0.12762645914396886,0.9564965285725187,0.25128557259479667
1539131194738706,-0.12628366521705958,0.9577172503242544,0.2561684596017395
1539131194754715,-0.12799267566948958,0.9579613946746015,0.2553139543755245
1539131194770723,-0.12799267566948958,0.9589379720759901,0.2562905317769131
1539131194786731,-0.1308003356984817,0.9600366216525522,0.2582436865796902
1539131194802740,-0.12896925307087814,0.9569848172732129,0.25690089265278093
1539131194818748,-0.13006790264744028,0.9574731059739072,0.25677882047760736
1539131194834756,-0.12860303654535743,0.9555199511711301,0.2558022430762188
1539131194850765,-0.12921339742122528,0.9583276112001222,0.25763332570382236
1539131194866773,-0.12884718089570457,0.9586938277256429,0.25897611963073164
1539131194882782,-0.12933546959639886,0.9602807660028994,0.25690089265278093
1539131194898790,-0.13031204699778742,0.9613794155794615,0.2586099031052109
1539131194914798,-0.1290913252460517,0.9586938277256429,0.25848783093003735
1539131194930807,-0.13018997482261385,0.9545433737697415,0.25763332570382236
1539131194946838,-0.1316548409246967,0.9557640955214772,0.25799954222934307
1539131194962846,-0.13006790264744028,0.9567406729228658,0.25812161440451664
1539131194978855,-0.127870603494316,0.9590600442511636,0.2592202639810788
1539131194994863,-0.128725108720531,0.9618677042801558,0.25848783093003735
1539131195010872,-0.12970168612191957,0.9613794155794615,0.2548256656748302
1539131195026880,-0.12848096437018386,0.9605249103532465,0.2548256656748302
1539131195042888,-0.127870603494316,0.9575951781490808,0.25592431525139236
1539131195058897,-0.127016098268101,0.9556420233463037,0.25091935606927596
1539131195074905,-0.12713817044327458,0.9547875181200887,0.25226214999618524
1539131195090913,-0.12603952086671244,0.9566186007476922,0.2536049439230945
1539131195106922,-0.126161593041886,0.9572289616235601,0.25348287174792095
1539131195122930,-0.12567330434119173,0.9597924773022051,0.2528725108720531
1539131195138939,-0.12640573739223315,0.9582055390249486,0.2515297169451438
1539131195154947,-0.127016098268101,0.9579613946746015,0.25397116044861523
1539131195170955,-0.126161593041886,0.9573510337987337,0.2558022430762188
1539131195186964,-0.1266498817425803,0.9547875181200887,0.2554360265506981
1539131195202972,-0.12823682001983672,0.9546654459449151,0.2540932326237888
1539131195218980,-0.12677195391775387,0.9560082398718244,0.2575112535286488
1539131195234989,-0.12933546959639886,0.9594262607766844,0.2611734187838559
1539131195250997,-0.12811474784466315,0.9591821164263372,0.2599526970321202
1539131195266967,-0.12713817044327458,0.9601586938277258,0.26105134660868234
1539131195282976,-0.12848096437018386,0.9590600442511636,0.2590981918059052
1539131195298984,-0.1290913252460517,0.9579613946746015,0.2573891813534752
1539131195314993,-0.13116655222400242,0.9549095902952622,0.25897611963073164
1539131195331001,-0.13141069657434956,0.9562523842221715,0.2570229648279545
1539131195347009,-0.13311970702677955,0.9558861676966508,0.25592431525139236
1539131195363018,-0.13153276874952313,0.9582055390249486,0.2566567483024338
1539131195379026,-0.13275349050125884,0.9577172503242544,0.2548256656748302
1539131195395034,-0.1345845731288624,0.9573510337987337,0.2527504386968795
1539131195411043,-0.13397421225299455,0.9574731059739072,0.2520180056458381
1539131195427051,-0.13189898527504385,0.9567406729228658,0.25055313954375524
1539131195443060,-0.131288624399176,0.9580834668497751,0.2506752117189288
1539131195459068,-0.13202105745021742,0.9606469825284201,0.2516517891203174
1539131195475076,-0.1290913252460517,0.9627222095063708,0.25433737697413594
1539131195491085,-0.12481879911497673,0.9643091477836272,0.2537270160982681
1539131195507093,-0.12262149996185245,0.9629663538567179,0.25018692301823453
1539131195523101,-0.12152285038529032,0.9599145494773786,0.25470359349965666
1539131195539110,-0.12262149996185245,0.9561303120469979,0.25397116044861523
1539131195555118,-0.1203021286335546,0.9550316624704358,0.25799954222934307
1539131195571127,-0.12127870603494317,0.9541771572442208,0.2583657587548638
1539131195587158,-0.12310978866254674,0.9536888685435265,0.2573891813534752
1539131195603166,-0.12738231479362172,0.9547875181200887,0.2595864805065995
1539131195619175,-0.1290913252460517,0.9588158999008165,0.26190585183489734
1539131195635183,-0.128725108720531,0.9596704051270315,0.26056305790798806
1539131195651191,-0.13055619134813456,0.9569848172732129,0.2620279240100709
1539131195667200,-0.13397421225299455,0.9572289616235601,0.2609292744335088
1539131195683208,-0.1345845731288624,0.9597924773022051,0.2620279240100709
1539131195699216,-0.13678187228198668,0.9600366216525522,0.25763332570382236
1539131195715225,-0.13849088273441668,0.9602807660028994,0.2540932326237888
1539131195731233,-0.1371480888075074,0.9607690547035936,0.25519188220035094
1539131195747242,-0.13824673838406953,0.9615014877546351,0.25397116044861523
1539131195763250,-0.13482871747920955,0.9601586938277258,0.2540932326237888
1539131195779258,-0.13226520180056456,0.9588158999008165,0.2527504386968795
1539131195795267,-0.12774853131914243,0.9572289616235601,0.25433737697413594
1539131195811275,-0.1266498817425803,0.9566186007476922,0.25690089265278093
1539131195827283,-0.12542915999084459,0.953566796368353,0.2554360265506981
1539131195843292,-0.12310978866254674,0.9553978789959565,0.25726710917830165
1539131195859300,-0.12457465476462959,0.9560082398718244,0.2566567483024338
1539131195875309,-0.12433051041428245,0.9571068894483865,0.2566567483024338
1539131195891317,-0.12396429388876173,0.9584496833752958,0.2533607995727474
1539131195907348,-0.12433051041428245,0.9589379720759901,0.2520180056458381
1539131195923357,-0.1240863660639353,0.9584496833752958,0.25433737697413594
1539131195939365,-0.1257953765163653,0.9567406729228658,0.24969863431754025
1539131195955373,-0.12652780956740672,0.9555199511711301,0.24957656214236668
1539131195971382,-0.127016098268101,0.9564965285725187,0.2516517891203174
1539131195987390,-0.127870603494316,0.9585717555504694,0.2504310673685817
1539131196003399,-0.12860303654535743,0.9574731059739072,0.24969863431754025
1539131196019407,-0.12896925307087814,0.9582055390249486,0.2516517891203174
1539131196035415,-0.132143129625391,0.9569848172732129,0.2536049439230945
1539131196051424,-0.1337300679026474,0.9591821164263372,0.25506981002517737
1539131196067432,-0.13348592355230027,0.9621118486305029,0.25506981002517737
1539131196083440,-0.13275349050125884,0.9612573434042879,0.25348287174792095
1539131196099449,-0.13299763485160598,0.9616235599298086,0.25555809872587165
1539131196115457,-0.13348592355230027,0.9578393224994279,0.2575112535286488
1539131196131466,-0.1316548409246967,0.9564965285725187,0.2604409857328145
1539131196147474,-0.12823682001983672,0.9569848172732129,0.26105134660868234
1539131196163482,-0.127016098268101,0.9574731059739072,0.26019684138246735
1539131196179491,-0.12945754177157243,0.9588158999008165,0.25983062485694663
1539131196195499,-0.130434119172961,0.9585717555504694,0.2595864805065995
1539131196211507,-0.12896925307087814,0.9571068894483865,0.2594644083314259
1539131196227539,-0.12811474784466315,0.9582055390249486,0.25885404745555807
1539131196243547,-0.12640573739223315,0.9577172503242544,0.2599526970321202
1539131196259555,-0.1266498817425803,0.9574731059739072,0.25519188220035094
1539131196275564,-0.12713817044327458,0.9569848172732129,0.25763332570382236
1539131196291572,-0.12518501564049744,0.9577172503242544,0.2549477378500038
1539131196307581,-0.12542915999084459,0.9575951781490808,0.2545815213244831
1539131196323589,-0.12628366521705958,0.9579613946746015,0.2544594491493095
1539131196339597,-0.12628366521705958,0.9590600442511636,0.2537270160982681
1539131196355606,-0.12799267566948958,0.9582055390249486,0.25421530479896237
1539131196371614,-0.12884718089570457,0.9586938277256429,0.2545815213244831
1539131196387622,-0.12884718089570457,0.9575951781490808,0.24847791256580454
1539131196403631,-0.13018997482261385,0.9584496833752958,0.2520180056458381
1539131196419639,-0.12945754177157243,0.9579613946746015,0.25226214999618524
1539131196435648,-0.13067826352330814,0.9583276112001222,0.2536049439230945
1539131196451656,-0.13116655222400242,0.9604028381780729,0.25226214999618524
1539131196467664,-0.13153276874952313,0.9617456321049822,0.2506752117189288
1539131196483673,-0.13275349050125884,0.9613794155794615,0.2554360265506981
1539131196499681,-0.1316548409246967,0.9611352712291144,0.2528725108720531
1539131196515689,-0.13226520180056456,0.9586938277256429,0.2554360265506981
1539131196531698,-0.06500343327992697,1.0064240482185092,0.09649805447470783
1539131196547699,0.1071183337148085,0.9843289845120928,0.3805600061036092
1539131196563707,-0.34564736400396745,1.068802929732204,0.1738918135347527
1539131196579715,-0.08197146562905333,0.8968032349126425,0.2726482032501716
1539131196595724,-0.10553139543755252,0.9652857251850158,0.2780193789578087
1539131196611732,-0.13604943923094526,0.9395284962233923,0.24383916990920884
1539131196627740,-0.16205081254291587,0.9384298466468302,0.2667887388418402
1539131196643749,-0.12848096437018386,0.9262226291294731,0.2764324406805523
1539131196659757,-0.1455710688944838,0.9567406729228658,0.24725719081406883
1539131196675766,-0.131288624399176,0.9787136644541086,0.24957656214236668
1539131196691774,-0.12884718089570457,0.976882581826505,0.26141756313420306
1539131196707782,-0.14666971847104593,0.9727321278706036,0.2600747692072938
1539131196723791,-0.1476462958724345,0.9627222095063708,0.2528725108720531
1539131196739799,-0.13519493400473026,0.9541771572442208,0.24921034561684596
1539131196755808,-0.11895933470664533,0.9462424658579387,0.25140764476997024
1539131196771816,-0.11285572594796678,0.9425803006027316,0.2573891813534752
1539131196787824,-0.11407644769970249,0.9464866102082858,0.2599526970321202
1539131196803833,-0.12359807736324102,0.9605249103532465,0.2540932326237888
1539131196819841,-0.12603952086671244,0.9696803234912643,0.2507972838941024
1539131196835849,-0.12530708781567101,0.971755550469215,0.24884412909132525
1539131196851858,-0.12518501564049744,0.9658960860608836,0.25226214999618524
1539131196867889,-0.11456473640039677,0.9547875181200887,0.2520180056458381
1539131196883897,-0.11749446860456247,0.9502708476386665,0.2523842221713588
1539131196899906,-0.12384222171358816,0.9513694972152287,0.2499427786678874
1539131196915914,-0.12921339742122528,0.9572289616235601,0.25470359349965666
1539131196931923,-0.13031204699778742,0.9618677042801558,0.2561684596017395
1539131196947931,-0.127870603494316,0.9644312199588008,0.25311665522240023
1539131196963939,-0.12884718089570457,0.9605249103532465,0.2573891813534752
1539131196979948,-0.130434119172961,0.9569848172732129,0.2575112535286488
1539131196995956,-0.13018997482261385,0.9560082398718244,0.25470359349965666
1539131197011964,-0.13238727397573813,0.9540550850690472,0.25812161440451664
1539131197027973,-0.1316548409246967,0.9541771572442208,0.25763332570382236
1539131197043981,-0.13238727397573813,0.9539330128938737,0.2600747692072938
1539131197059990,-0.13311970702677955,0.9566186007476922,0.2599526970321202
1539131197075998,-0.13495078965438312,0.9584496833752958,0.2592202639810788
1539131197092006,-0.13360799572747384,0.9610131990539408,0.25885404745555807
1539131197108015,-0.1333638513771267,0.9596704051270315,0.25983062485694663
1539131197124023,-0.13397421225299455,0.9553978789959565,0.2600747692072938
1539131197140031,-0.1325093461509117,0.9540550850690472,0.2621499961852445
1539131197156040,-0.132143129625391,0.9539330128938737,0.2573891813534752
1539131197172048,-0.13116655222400242,0.9572289616235601,0.2592202639810788
1539131197188079,-0.1308003356984817,0.9568627450980394,0.25897611963073164
1539131197204088,-0.12921339742122528,0.9606469825284201,0.25604638742656594
1539131197220096,-0.12603952086671244,0.9616235599298086,0.2573891813534752
1539131197236105,-0.12628366521705958,0.9606469825284201,0.2571450370031281
1539131197252113,-0.12555123216601816,0.9571068894483865,0.25726710917830165
1539131197268121,-0.12567330434119173,0.9556420233463037,0.2544594491493095
1539131197284130,-0.12689402609292744,0.953566796368353,0.25555809872587165
1539131197300138,-0.1257953765163653,0.9555199511711301,0.25763332570382236
1539131197316146,-0.12555123216601816,0.9577172503242544,0.2570229648279545
1539131197332155,-0.1266498817425803,0.9595483329518579,0.25690089265278093
1539131197348163,-0.12738231479362172,0.9599145494773786,0.2573891813534752
1539131197364172,-0.12738231479362172,0.9600366216525522,0.2556801709010452
1539131197380180,-0.1257953765163653,0.9579613946746015,0.2510414282444495
1539131197396188,-0.12481879911497673,0.9555199511711301,0.25592431525139236
1539131197412197,-0.12530708781567101,0.955275806820783,0.25604638742656594
1539131197428205,-0.127016098268101,0.9573510337987337,0.25555809872587165
1539131197444213,-0.12982375829709314,0.9596704051270315,0.25775539787899593
1539131197460222,-0.12884718089570457,0.9595483329518579,0.25726710917830165
1539131197476230,-0.12921339742122528,0.9584496833752958,0.2573891813534752
1539131197492239,-0.130434119172961,0.9560082398718244,0.2594644083314259
1539131197508270,-0.129579613946746,0.9557640955214772,0.2562905317769131
1539131197524278,-0.13067826352330814,0.9550316624704358,0.25604638742656594
1539131197540287,-0.1316548409246967,0.9571068894483865,0.2590981918059052
1539131197556295,-0.13238727397573813,0.9585717555504694,0.2573891813534752
1539131197572303,-0.1316548409246967,0.9588158999008165,0.25677882047760736
1539131197588312,-0.13092240787365528,0.9583276112001222,0.2594644083314259
1539131197604320,-0.1308003356984817,0.9567406729228658,0.2592202639810788
1539131197620329,-0.13104448004882885,0.9569848172732129,0.25970855268177306
1539131197636337,-0.13104448004882885,0.9579613946746015,0.25848783093003735
1539131197652345,-0.13116655222400242,0.9579613946746015,0.25726710917830165
1539131197668354,-0.12933546959639886,0.9577172503242544,0.25934233615625235
1539131197684362,-0.13031204699778742,0.9571068894483865,0.2553139543755245
1539131197700370,-0.13006790264744028,0.9578393224994279,0.25397116044861523
1539131197716379,-0.12774853131914243,0.9572289616235601,0.2561684596017395
1539131197732387,-0.12823682001983672,0.9577172503242544,0.2565346761272602
1539131197748396,-0.1249408712901503,0.9562523842221715,0.25397116044861523
1539131197764404,-0.12567330434119173,0.9575951781490808,0.25555809872587165
1539131197780412,-0.1275043869687953,0.9579613946746015,0.2545815213244831
1539131197796421,-0.12726024261844815,0.9572289616235601,0.2537270160982681
1539131197812429,-0.12640573739223315,0.9569848172732129,0.25348287174792095
1539131197828460,-0.127870603494316,0.9566186007476922,0.2511635004196231
1539131197844469,-0.127016098268101,0.9571068894483865,0.2562905317769131
1539131197860478,-0.12811474784466315,0.9580834668497751,0.2578774700541695
1539131197876487,-0.12774853131914243,0.9585717555504694,0.2544594491493095
1539131197892496,-0.1290913252460517,0.9604028381780729,0.2561684596017395
1539131197908505,-0.128725108720531,0.9594262607766844,0.2553139543755245
1539131197924513,-0.13116655222400242,0.9586938277256429,0.2582436865796902
1539131197940522,-0.1308003356984817,0.9573510337987337,0.2573891813534752
1539131197956531,-0.13275349050125884,0.9571068894483865,0.2582436865796902
1539131197972540,-0.13202105745021742,0.9558861676966508,0.25812161440451664
1539131197988549,-0.13202105745021742,0.955275806820783,0.2578774700541695
1539131198004558,-0.13104448004882885,0.9553978789959565,0.2575112535286488
1539131198020567,-0.13092240787365528,0.9590600442511636,0.2590981918059052
1539131198036575,-0.13055619134813456,0.9600366216525522,0.2611734187838559
1539131198052584,-0.1308003356984817,0.9606469825284201,0.2583657587548638
1539131198068593,-0.12970168612191957,0.9579613946746015,0.25983062485694663
1539131198084602,-0.13055619134813456,0.9555199511711301,0.25848783093003735
1539131198100611,-0.13055619134813456,0.9539330128938737,0.25970855268177306
1539131198116620,-0.13031204699778742,0.9566186007476922,0.25970855268177306
1539131198132629,-0.12945754177157243,0.9557640955214772,0.25763332570382236
1539131198148620,-0.12884718089570457,0.9568627450980394,0.2594644083314259
1539131198164629,-0.128725108720531,0.9569848172732129,0.2582436865796902
1539131198180637,-0.12677195391775387,0.9571068894483865,0.25812161440451664
1539131198196645,-0.12591744869153887,0.9563744563973451,0.25677882047760736
1539131198212654,-0.12506294346532387,0.9550316624704358,0.25384908827344166
1539131198228662,-0.12457465476462959,0.9560082398718244,0.25519188220035094
1539131198244670,-0.12384222171358816,0.9577172503242544,0.25421530479896237
1539131198260679,-0.1249408712901503,0.9595483329518579,0.25384908827344166
1539131198276687,-0.12481879911497673,0.9600366216525522,0.25604638742656594
1539131198292696,-0.12567330434119173,0.9602807660028994,0.25397116044861523
1539131198308704,-0.1266498817425803,0.9595483329518579,0.25726710917830165
1539131198324712,-0.127870603494316,0.9571068894483865,0.2562905317769131
1539131198340721,-0.13018997482261385,0.9560082398718244,0.25897611963073164
1539131198356729,-0.13104448004882885,0.9557640955214772,0.2561684596017395
1539131198372738,-0.13141069657434956,0.9550316624704358,0.26019684138246735
1539131198388746,-0.13141069657434956,0.955275806820783,0.2611734187838559
1539131198404754,-0.13263141832608527,0.9567406729228658,0.25934233615625235
1539131198420763,-0.13202105745021742,0.9577172503242544,0.25848783093003735
1539131198436771,-0.13189898527504385,0.9580834668497751,0.2573891813534752
1539131198452779,-0.13299763485160598,0.9597924773022051,0.2592202639810788
1539131198468811,-0.13141069657434956,0.9602807660028994,0.2566567483024338
1539131198484820,-0.1328755626764324,0.9610131990539408,0.2603189135576409
1539131198500828,-0.13189898527504385,0.9599145494773786,0.25983062485694663
1539131198516837,-0.1333638513771267,0.9579613946746015,0.25848783093003735
1539131198532846,-0.1316548409246967,0.9545433737697415,0.2599526970321202
1539131198548855,-0.1328755626764324,0.9532005798428322,0.2575112535286488
1539131198564864,-0.1308003356984817,0.9517357137407494,0.25885404745555807
1539131198580873,-0.12713817044327458,0.9538109407187001,0.2570229648279545
1539131198596881,-0.12603952086671244,0.9566186007476922,0.25397116044861523
1539131198612890,-0.1257953765163653,0.9593041886015108,0.2515297169451438
1539131198628899,-0.12384222171358816,0.9562523842221715,0.24713511863889526
1539131198644908,-0.12298771648737317,0.954421301594568,0.24310673685816742
1539131198660917,-0.12567330434119173,0.9500267032883194,0.2439612420843824
1539131198676926,-0.12555123216601816,0.9499046311131458,0.24542610818646526
1539131198692935,-0.12542915999084459,0.9563744563973451,0.2490882734416724
1539131198708943,-0.12591744869153887,0.9646753643091479,0.2511635004196231
1539131198724952,-0.12481879911497673,0.9718776226443886,0.2566567483024338
1539131198740961,-0.127016098268101,0.9722438391699093,0.25897611963073164
1539131198756970,-0.12896925307087814,0.9698023956664379,0.2623941405355916
1539131198772979,-0.12799267566948958,0.9645532921339743,0.2649576562142366
1539131198789001,-0.12884718089570457,0.9586938277256429,0.2612954909590295
1539131198805010,-0.13263141832608527,0.9494163424124515,0.26556801709010447
1539131198821019,-0.13434042877851526,0.9474631876096744,0.2633707179369802
1539131198837028,-0.13519493400473026,0.9525902189669644,0.26349279011215376
1539131198853037,-0.132143129625391,0.9608911268787672,0.2628824292362859
1539131198869045,-0.1337300679026474,0.9607690547035936,0.2628824292362859
1539131198885054,-0.13263141832608527,0.9584496833752958,0.25897611963073164
1539131198901063,-0.13177691309987027,0.9532005798428322,0.2586099031052109
1539131198917072,-0.13299763485160598,0.9495384145876251,0.26019684138246735
1539131198933081,-0.13360799572747384,0.948439765011063,0.25506981002517737
1539131198949090,-0.13092240787365528,0.9516136415655758,0.2586099031052109
1539131198965098,-0.12860303654535743,0.9562523842221715,0.26068513008316163
1539131198981107,-0.1275043869687953,0.9639429312581065,0.2583657587548638
1539131198997116,-0.12713817044327458,0.9628442816815443,0.2573891813534752
1539131199013125,-0.12848096437018386,0.9628442816815443,0.25641260395208665
1539131199029134,-0.12933546959639886,0.9616235599298086,0.2554360265506981
1539131199045143,-0.12982375829709314,0.9586938277256429,0.2561684596017395
1539131199061152,-0.12738231479362172,0.9591821164263372,0.2516517891203174
1539131199077160,-0.12542915999084459,0.9591821164263372,0.2518959334706645
1539131199093169,-0.12530708781567101,0.9612573434042879,0.2503089951934081
1539131199109161,-0.1257953765163653,0.9628442816815443,0.2515297169451438
1539131199125170,-0.12433051041428245,0.9624780651560236,0.25140764476997024
1539131199141179,-0.12335393301289388,0.9615014877546351,0.25128557259479667
1539131199157188,-0.127016098268101,0.9555199511711301,0.2503089951934081
1539131199173196,-0.13067826352330814,0.9507591363393608,0.2532387273975738
1539131199189205,-0.13177691309987027,0.9491721980621044,0.25348287174792095
1539131199205214,-0.13409628442816812,0.9534447241931794,0.2575112535286488
1539131199221223,-0.13409628442816812,0.9589379720759901,0.2630045014114595
1539131199237232,-0.13360799572747384,0.9610131990539408,0.26178377965972377
1539131199253241,-0.13409628442816812,0.9627222095063708,0.26190585183489734
1539131199269250,-0.13397421225299455,0.9590600442511636,0.26141756313420306
1539131199285258,-0.13409628442816812,0.9517357137407494,0.2611734187838559
1539131199301267,-0.1328755626764324,0.9480735484855423,0.2609292744335088
1539131199317276,-0.13189898527504385,0.9474631876096744,0.2594644083314259
1539131199333285,-0.1308003356984817,0.950148775463493,0.25934233615625235
1539131199349294,-0.130434119172961,0.9532005798428322,0.2625162127107652
1539131199365303,-0.12921339742122528,0.9589379720759901,0.26263828488593877
1539131199381312,-0.12799267566948958,0.9624780651560236,0.25934233615625235
1539131199397320,-0.1290913252460517,0.9624780651560236,0.2573891813534752
1539131199413329,-0.12713817044327458,0.9610131990539408,0.25983062485694663
1539131199429321,-0.12689402609292744,0.9612573434042879,0.2592202639810788
1539131199445330,-0.1290913252460517,0.9601586938277258,0.25970855268177306
1539131199461339,-0.128725108720531,0.9607690547035936,0.2558022430762188
1539131199477347,-0.12970168612191957,0.9615014877546351,0.2575112535286488
1539131199493356,-0.12884718089570457,0.9613794155794615,0.25677882047760736
1539131199509365,-0.12823682001983672,0.9590600442511636,0.25348287174792095
1539131199525374,-0.1266498817425803,0.9579613946746015,0.2549477378500038
1539131199541383,-0.12811474784466315,0.9556420233463037,0.25641260395208665
1539131199557392,-0.12811474784466315,0.9521019302662701,0.2565346761272602
1539131199573401,-0.1283588921950103,0.951003280689708,0.25812161440451664
1539131199589409,-0.12774853131914243,0.9506370641641873,0.2582436865796902
1539131199605418,-0.12799267566948958,0.950148775463493,0.2583657587548638
1539131199621427,-0.12933546959639886,0.9529564354924851,0.2573891813534752
1539131199637436,-0.13238727397573813,0.9564965285725187,0.2570229648279545
1539131199653445,-0.13263141832608527,0.9575951781490808,0.25812161440451664
1539131199669454,-0.13263141832608527,0.9584496833752958,0.25592431525139236
1539131199685463,-0.13324177920195313,0.9596704051270315,0.2625162127107652
1539131199701471,-0.13470664530403598,0.9606469825284201,0.2594644083314259
1539131199717480,-0.13385214007782098,0.9628442816815443,0.25848783093003735
1539131199733489,-0.13324177920195313,0.9591821164263372,0.2599526970321202
1539131199749511,-0.13141069657434956,0.9571068894483865,0.26056305790798806
1539131199765520,-0.13153276874952313,0.9549095902952622,0.26141756313420306
1539131199781529,-0.13263141832608527,0.9561303120469979,0.26056305790798806
1539131199797538,-0.13092240787365528,0.9589379720759901,0.2583657587548638
1539131199813547,-0.130434119172961,0.9585717555504694,0.2612954909590295
1539131199829556,-0.131288624399176,0.9589379720759901,0.25934233615625235
1539131199845564,-0.12945754177157243,0.9578393224994279,0.2556801709010452
1539131199861573,-0.12884718089570457,0.9588158999008165,0.2561684596017395
1539131199877582,-0.1275043869687953,0.9567406729228658,0.25470359349965666
1539131199893591,-0.12738231479362172,0.9560082398718244,0.25384908827344166
1539131199909600,-0.12542915999084459,0.9540550850690472,0.25519188220035094
1539131199925609,-0.126161593041886,0.9540550850690472,0.2565346761272602
1539131199941618,-0.12591744869153887,0.9558861676966508,0.25690089265278093
1539131199957626,-0.127016098268101,0.9569848172732129,0.25799954222934307
1539131199973635,-0.12799267566948958,0.9582055390249486,0.2549477378500038
1539131199989644,-0.1283588921950103,0.9583276112001222,0.2565346761272602
1539131200005653,-0.13055619134813456,0.9571068894483865,0.2553139543755245
1539131200021662,-0.13104448004882885,0.9563744563973451,0.25812161440451664
1539131200037671,-0.13311970702677955,0.955275806820783,0.25604638742656594
1539131200053680,-0.13275349050125884,0.9558861676966508,0.2604409857328145
1539131200069702,-0.13226520180056456,0.9594262607766844,0.25726710917830165
1539131200085711,-0.13141069657434956,0.9594262607766844,0.26263828488593877
1539131200101719,-0.1337300679026474,0.9582055390249486,0.25934233615625235
1539131200117728,-0.1333638513771267,0.9582055390249486,0.26178377965972377
1539131200133737,-0.13360799572747384,0.9561303120469979,0.2621499961852445
1539131200149746,-0.132143129625391,0.9541771572442208,0.26349279011215376
1539131200165755,-0.13018997482261385,0.9558861676966508,0.2623941405355916
1539131200181764,-0.1299458304722667,0.9557640955214772,0.2630045014114595
1539131200197773,-0.12921339742122528,0.9580834668497751,0.25897611963073164
1539131200213781,-0.13018997482261385,0.9586938277256429,0.26056305790798806
1539131200229790,-0.1299458304722667,0.9588158999008165,0.26141756313420306
1539131200245799,-0.12982375829709314,0.9575951781490808,0.25726710917830165
1539131200261808,-0.1290913252460517,0.9572289616235601,0.2556801709010452
1539131200277817,-0.128725108720531,0.9563744563973451,0.2556801709010452
1539131200293826,-0.12921339742122528,0.9555199511711301,0.25604638742656594
1539131200309835,-0.1283588921950103,0.9571068894483865,0.2554360265506981
1539131200325843,-0.12848096437018386,0.9579613946746015,0.25726710917830165
1539131200341852,-0.12884718089570457,0.9567406729228658,0.25775539787899593
1539131200357861,-0.12823682001983672,0.9568627450980394,0.2570229648279545
1539131200373870,-0.13116655222400242,0.9556420233463037,0.25690089265278093
1539131200389892,-0.13104448004882885,0.9572289616235601,0.25506981002517737
1539131200405901,-0.13116655222400242,0.9571068894483865,0.25555809872587165
1539131200421910,-0.13116655222400242,0.9586938277256429,0.2548256656748302
1539131200437919,-0.13311970702677955,0.9588158999008165,0.25519188220035094
1539131200453928,-0.13141069657434956,0.9610131990539408,0.2573891813534752
1539131200469936,-0.1325093461509117,0.9584496833752958,0.25726710917830165
1539131200485945,-0.13226520180056456,0.9568627450980394,0.2575112535286488
1539131200501954,-0.132143129625391,0.9545433737697415,0.2620279240100709
1539131200517963,-0.13202105745021742,0.9572289616235601,0.2599526970321202
1539131200533972,-0.13189898527504385,0.9574731059739072,0.26056305790798806
1539131200549981,-0.12945754177157243,0.9588158999008165,0.26056305790798806
1539131200565990,-0.13031204699778742,0.9575951781490808,0.26068513008316163
1539131200581998,-0.128725108720531,0.9590600442511636,0.2604409857328145
1539131200598007,-0.12799267566948958,0.9566186007476922,0.25775539787899593
1539131200614016,-0.12860303654535743,0.9562523842221715,0.2590981918059052
1539131200630025,-0.12823682001983672,0.9546654459449151,0.25519188220035094
1539131200646034,-0.127016098268101,0.9563744563973451,0.2575112535286488
1539131200662043,-0.1275043869687953,0.9568627450980394,0.25677882047760736
1539131200678052,-0.127870603494316,0.9567406729228658,0.2565346761272602
1539131200694060,-0.12542915999084459,0.9577172503242544,0.25690089265278093
1539131200710083,-0.12726024261844815,0.9583276112001222,0.25812161440451664
1539131200726091,-0.12762645914396886,0.9571068894483865,0.25775539787899593
1539131200742100,-0.129579613946746,0.9575951781490808,0.2573891813534752
1539131200758109,-0.130434119172961,0.9555199511711301,0.25470359349965666
1539131200774118,-0.131288624399176,0.9566186007476922,0.2556801709010452
1539131200790127,-0.13202105745021742,0.9563744563973451,0.2583657587548638
1539131200806136,-0.13275349050125884,0.9577172503242544,0.2590981918059052
1539131200822145,-0.13275349050125884,0.9571068894483865,0.25897611963073164
1539131200838153,-0.13116655222400242,0.9568627450980394,0.25775539787899593
1539131200854162,-0.13189898527504385,0.9571068894483865,0.2587319752803845
1539131200870171,-0.13275349050125884,0.9573510337987337,0.26056305790798806
1539131200886180,-0.1328755626764324,0.9577172503242544,0.25970855268177306
1539131200902189,-0.13238727397573813,0.9572289616235601,0.2611734187838559
1539131200918198,-0.13263141832608527,0.9579613946746015,0.26019684138246735
1539131200934207,-0.13116655222400242,0.9572289616235601,0.2603189135576409
1539131200950215,-0.13153276874952313,0.9558861676966508,0.2592202639810788
1539131200966224,-0.13153276874952313,0.9564965285725187,0.25812161440451664
1539131200982233,-0.1316548409246967,0.9575951781490808,0.25897611963073164
1539131200998242,-0.13031204699778742,0.9577172503242544,0.2590981918059052
1539131201014251,-0.13092240787365528,0.9602807660028994,0.25506981002517737
1539131201030243,-0.13141069657434956,0.9608911268787672,0.25592431525139236
1539131201046251,-0.1325093461509117,0.9595483329518579,0.25470359349965666
1539131201062260,-0.13299763485160598,0.9546654459449151,0.2553139543755245
1539131201078269,-0.13104448004882885,0.9530785076676587,0.25775539787899593
1539131201094278,-0.13104448004882885,0.9532005798428322,0.2592202639810788
1539131201110287,-0.130434119172961,0.9564965285725187,0.2587319752803845
1539131201126296,-0.12689402609292744,0.9590600442511636,0.2578774700541695
1539131201142305,-0.12738231479362172,0.9617456321049822,0.2561684596017395
1539131201158313,-0.12823682001983672,0.9608911268787672,0.2570229648279545
1539131201174322,-0.12848096437018386,0.9577172503242544,0.2592202639810788
1539131201190331,-0.12896925307087814,0.9536888685435265,0.2583657587548638
1539131201206340,-0.1290913252460517,0.9538109407187001,0.2556801709010452
1539131201222349,-0.12921339742122528,0.9547875181200887,0.25555809872587165
1539131201238358,-0.12677195391775387,0.9558861676966508,0.25592431525139236
1539131201254366,-0.12713817044327458,0.9585717555504694,0.2571450370031281
1539131201270375,-0.12677195391775387,0.9596704051270315,0.2556801709010452
1539131201286384,-0.12738231479362172,0.9583276112001222,0.2536049439230945
1539131201302393,-0.12542915999084459,0.9566186007476922,0.25799954222934307
1539131201318402,-0.1266498817425803,0.9561303120469979,0.25848783093003735
1539131201334411,-0.12628366521705958,0.9538109407187001,0.25897611963073164
1539131201350433,-0.1283588921950103,0.9560082398718244,0.25897611963073164
1539131201366442,-0.1283588921950103,0.9585717555504694,0.2575112535286488
1539131201382451,-0.13116655222400242,0.9579613946746015,0.26227206836041805
1539131201398460,-0.13275349050125884,0.9567406729228658,0.2587319752803845
1539131201414468,-0.13482871747920955,0.9567406729228658,0.2612954909590295
1539131201430477,-0.13470664530403598,0.9557640955214772,0.2594644083314259
1539131201446486,-0.13556115053025097,0.9584496833752958,0.2599526970321202
1539131201462495,-0.1359273670557717,0.9585717555504694,0.26105134660868234
1539131201478504,-0.1345845731288624,0.9591821164263372,0.2633707179369802
1539131201494513,-0.1316548409246967,0.9580834668497751,0.2612954909590295
1539131201510522,-0.1308003356984817,0.9582055390249486,0.26105134660868234
1539131201526530,-0.129579613946746,0.9579613946746015,0.2600747692072938
1539131201542539,-0.13031204699778742,0.9582055390249486,0.26019684138246735
1539131201558548,-0.12762645914396886,0.9567406729228658,0.2616617074845502
1539131201574557,-0.12640573739223315,0.9562523842221715,0.2595864805065995
1539131201590566,-0.12530708781567101,0.9594262607766844,0.2594644083314259
1539131201606575,-0.126161593041886,0.9604028381780729,0.2603189135576409
1539131201622583,-0.126161593041886,0.9597924773022051,0.2556801709010452
1539131201638592,-0.12774853131914243,0.9604028381780729,0.2554360265506981
1539131201654601,-0.12860303654535743,0.9582055390249486,0.25299458304722666
1539131201670623,-0.13067826352330814,0.9574731059739072,0.2527504386968795
1539131201686632,-0.13018997482261385,0.9567406729228658,0.2515297169451438
1539131201702641,-0.13177691309987027,0.9560082398718244,0.24921034561684596
1539131201718650,-0.13263141832608527,0.9580834668497751,0.25299458304722666
1539131201734659,-0.13311970702677955,0.9577172503242544,0.2533607995727474
1539131201750668,-0.132143129625391,0.9560082398718244,0.2561684596017395
1539131201766677,-0.13238727397573813,0.9569848172732129,0.25555809872587165
1539131201782685,-0.13189898527504385,0.9550316624704358,0.25763332570382236
1539131201798694,-0.12982375829709314,0.9568627450980394,0.2625162127107652
1539131201814703,-0.13055619134813456,0.9586938277256429,0.2650797283894102
1539131201830712,-0.1290913252460517,0.9617456321049822,0.26642252231631947
1539131201846721,-0.12848096437018386,0.9608911268787672,0.26569008926527804
1539131201862730,-0.130434119172961,0.9590600442511636,0.2670328831921873
1539131201878739,-0.132143129625391,0.9547875181200887,0.26825360494392303
1539131201894747,-0.13360799572747384,0.953566796368353,0.26642252231631947
1539131201910756,-0.1325093461509117,0.9519798580910965,0.26727702754253446
1539131201926765,-0.13263141832608527,0.9549095902952622,0.26556801709010447
1539131201942774,-0.13275349050125884,0.9569848172732129,0.2659342336156252
1539131201958783,-0.132143129625391,0.9593041886015108,0.26520180056458376
1539131201974792,-0.13006790264744028,0.9584496833752958,0.2603189135576409
1539131201990814,-0.12860303654535743,0.9566186007476922,0.26153963530937663
1539131202006823,-0.12713817044327458,0.9562523842221715,0.2583657587548638
1539131202022832,-0.12628366521705958,0.9562523842221715,0.25641260395208665
1539131202038840,-0.12359807736324102,0.9564965285725187,0.25506981002517737
1539131202054849,-0.12347600518806745,0.9568627450980394,0.25604638742656594
1539131202070858,-0.1240863660639353,0.9572289616235601,0.25214007782101167
1539131202086867,-0.12481879911497673,0.9574731059739072,0.25397116044861523
1539131202102876,-0.12359807736324102,0.9562523842221715,0.25384908827344166
1539131202118885,-0.12506294346532387,0.9578393224994279,0.25397116044861523
1539131202134894,-0.12738231479362172,0.9568627450980394,0.25506981002517737
1539131202150902,-0.12713817044327458,0.9553978789959565,0.2518959334706645
1539131202166911,-0.12762645914396886,0.9557640955214772,0.2561684596017395
1539131202182920,-0.1299458304722667,0.9566186007476922,0.2578774700541695
1539131202198929,-0.1290913252460517,0.9574731059739072,0.2590981918059052
1539131202214938,-0.13031204699778742,0.9591821164263372,0.26141756313420306
1539131202230947,-0.13263141832608527,0.9580834668497751,0.2632486457618066
1539131202246955,-0.13360799572747384,0.9586938277256429,0.2611734187838559
1539131202262964,-0.13360799572747384,0.9580834668497751,0.26190585183489734
1539131202278973,-0.13446250095368883,0.9590600442511636,0.26276035706111234
1539131202294982,-0.1350728618295567,0.9578393224994279,0.2621499961852445
1539131202311004,-0.13482871747920955,0.9590600442511636,0.26361486228732733
1539131202327013,-0.13446250095368883,0.9545433737697415,0.26190585183489734
1539131202343022,-0.1350728618295567,0.954421301594568,0.2628824292362859
1539131202359031,-0.1350728618295567,0.9546654459449151,0.2649576562142366
1539131202375040,-0.13556115053025097,0.9539330128938737,0.2637369344625009
1539131202391049,-0.13446250095368883,0.9539330128938737,0.2653238727397573
1539131202407057,-0.13311970702677955,0.955275806820783,0.26483558403906304
1539131202423066,-0.1328755626764324,0.9566186007476922,0.2628824292362859
1539131202439075,-0.13141069657434956,0.9590600442511636,0.2638590066376745
1539131202455084,-0.12921339742122528,0.9583276112001222,0.2637369344625009
1539131202471093,-0.12896925307087814,0.9561303120469979,0.2611734187838559
1539131202487102,-0.12896925307087814,0.9541771572442208,0.25934233615625235
1539131202503111,-0.12774853131914243,0.9539330128938737,0.26105134660868234
1539131202519119,-0.12860303654535743,0.9529564354924851,0.2590981918059052
1539131202535128,-0.12811474784466315,0.9538109407187001,0.25848783093003735
1539131202551137,-0.12689402609292744,0.9560082398718244,0.25897611963073164
1539131202567146,-0.12689402609292744,0.9558861676966508,0.26056305790798806
1539131202583155,-0.12726024261844815,0.9562523842221715,0.2611734187838559
1539131202599164,-0.12713817044327458,0.9573510337987337,0.2590981918059052
1539131202615172,-0.12640573739223315,0.9604028381780729,0.2594644083314259
1539131202631164,-0.12738231479362172,0.9607690547035936,0.2612954909590295
1539131202647173,-0.12811474784466315,0.9599145494773786,0.26056305790798806
1539131202663182,-0.12896925307087814,0.9588158999008165,0.26105134660868234
1539131202679191,-0.1299458304722667,0.9540550850690472,0.2620279240100709
1539131202695200,-0.13055619134813456,0.9541771572442208,0.2623941405355916
1539131202711208,-0.13153276874952313,0.9540550850690472,0.2645914396887159
1539131202727217,-0.13299763485160598,0.9557640955214772,0.26398107881284805
1539131202743226,-0.1333638513771267,0.9594262607766844,0.26312657358663305
1539131202759235,-0.132143129625391,0.9579613946746015,0.26349279011215376
1539131202775244,-0.13263141832608527,0.9572289616235601,0.2645914396887159
1539131202791253,-0.13226520180056456,0.9542992294193944,0.2659342336156252
1539131202807262,-0.132143129625391,0.9530785076676587,0.26569008926527804
1539131202823270,-0.131288624399176,0.9551537346456094,0.2630045014114595
1539131202839279,-0.13141069657434956,0.9551537346456094,0.2633707179369802
1539131202855288,-0.13116655222400242,0.955275806820783,0.26312657358663305
1539131202871297,-0.1290913252460517,0.9574731059739072,0.26190585183489734
1539131202887306,-0.1308003356984817,0.9558861676966508,0.2642252231631952
1539131202903315,-0.1290913252460517,0.9572289616235601,0.2632486457618066
1539131202919324,-0.129579613946746,0.9547875181200887,0.26105134660868234
1539131202935332,-0.1290913252460517,0.9556420233463037,0.25983062485694663
1539131202951355,-0.13177691309987027,0.9550316624704358,0.25848783093003735
1539131202967363,-0.1316548409246967,0.9564965285725187,0.2578774700541695
1539131202983372,-0.13153276874952313,0.9569848172732129,0.25690089265278093
1539131202999381,-0.13116655222400242,0.9572289616235601,0.26153963530937663
1539131203015390,-0.13116655222400242,0.9536888685435265,0.2587319752803845
1539131203031399,-0.13324177920195313,0.9545433737697415,0.25799954222934307
1539131203047408,-0.1328755626764324,0.9562523842221715,0.26056305790798806
1539131203063417,-0.13311970702677955,0.9566186007476922,0.26178377965972377
1539131203079425,-0.13263141832608527,0.9563744563973451,0.26263828488593877
1539131203095434,-0.1316548409246967,0.9585717555504694,0.2623941405355916
1539131203111443,-0.13226520180056456,0.9561303120469979,0.26276035706111234
1539131203127452,-0.13177691309987027,0.9562523842221715,0.2625162127107652
1539131203143461,-0.13226520180056456,0.9551537346456094,0.2621499961852445
1539131203159470,-0.1299458304722667,0.954421301594568,0.26056305790798806
1539131203175479,-0.13018997482261385,0.9539330128938737,0.26153963530937663
1539131203191487,-0.13116655222400242,0.9567406729228658,0.25885404745555807
1539131203207496,-0.13116655222400242,0.9568627450980394,0.26056305790798806
1539131203223505,-0.13018997482261385,0.9582055390249486,0.26190585183489734
1539131203239514,-0.12896925307087814,0.9571068894483865,0.2628824292362859
1539131203255523,-0.13018997482261385,0.9550316624704358,0.2649576562142366
1539131203271545,-0.1299458304722667,0.9546654459449151,0.26349279011215376
1539131203287554,-0.12933546959639886,0.9560082398718244,0.26153963530937663
1539131203303563,-0.12762645914396886,0.9569848172732129,0.2649576562142366
1539131203319572,-0.1290913252460517,0.9584496833752958,0.2632486457618066
1539131203335580,-0.12884718089570457,0.9583276112001222,0.2620279240100709
1539131203351589,-0.130434119172961,0.9573510337987337,0.25983062485694663
1539131203367598,-0.131288624399176,0.9583276112001222,0.26263828488593877
1539131203383607,-0.13189898527504385,0.9556420233463037,0.26019684138246735
1539131203399616,-0.13177691309987027,0.9563744563973451,0.25934233615625235
1539131203415625,-0.13275349050125884,0.955275806820783,0.2604409857328145
1539131203431634,-0.1328755626764324,0.9549095902952622,0.2586099031052109
1539131203447642,-0.1325093461509117,0.9556420233463037,0.2586099031052109
1539131203463651,-0.1325093461509117,0.9574731059739072,0.25897611963073164
1539131203479660,-0.13226520180056456,0.9589379720759901,0.2604409857328145
1539131203495669,-0.1328755626764324,0.9599145494773786,0.2604409857328145
1539131203511678,-0.13238727397573813,0.955275806820783,0.26178377965972377
1539131203527687,-0.1333638513771267,0.9538109407187001,0.26068513008316163
1539131203543696,-0.13311970702677955,0.9514915693904022,0.2623941405355916
1539131203559704,-0.13226520180056456,0.9524681467917908,0.26056305790798806
1539131203575713,-0.1308003356984817,0.9572289616235601,0.2633707179369802
1539131203591735,-0.13141069657434956,0.9584496833752958,0.26141756313420306
1539131203607744,-0.12945754177157243,0.9585717555504694,0.2603189135576409
1539131203623753,-0.12884718089570457,0.9583276112001222,0.2595864805065995
1539131203639762,-0.129579613946746,0.9558861676966508,0.2586099031052109
1539131203655771,-0.129579613946746,0.9556420233463037,0.25555809872587165
1539131203671780,-0.12811474784466315,0.9541771572442208,0.26056305790798806
1539131203687789,-0.12738231479362172,0.9546654459449151,0.2628824292362859
1539131203703797,-0.127016098268101,0.9568627450980394,0.26153963530937663
1539131203719806,-0.12799267566948958,0.9568627450980394,0.26141756313420306
1539131203735815,-0.1290913252460517,0.9571068894483865,0.2600747692072938
1539131203751824,-0.1275043869687953,0.9571068894483865,0.2623941405355916
1539131203767833,-0.12933546959639886,0.9568627450980394,0.26312657358663305
1539131203783842,-0.13067826352330814,0.9546654459449151,0.2595864805065995
1539131203799851,-0.13153276874952313,0.9550316624704358,0.2611734187838559
1539131203815859,-0.13385214007782098,0.9555199511711301,0.2632486457618066
1539131203831868,-0.13446250095368883,0.9561303120469979,0.2628824292362859
1539131203847877,-0.13580529488059812,0.9558861676966508,0.26312657358663305
1539131203863886,-0.1359273670557717,0.9569848172732129,0.2608072022583352
1539131203879895,-0.13556115053025097,0.9562523842221715,0.2628824292362859
1539131203895904,-0.13470664530403598,0.9557640955214772,0.2592202639810788
1539131203911895,-0.13580529488059812,0.9563744563973451,0.26056305790798806
1539131203927904,-0.1333638513771267,0.9562523842221715,0.2604409857328145
1539131203943913,-0.132143129625391,0.9567406729228658,0.26276035706111234
1539131203959922,-0.1316548409246967,0.9571068894483865,0.25897611963073164
1539131203975931,-0.13006790264744028,0.9556420233463037,0.2621499961852445
1539131203991940,-0.13092240787365528,0.9575951781490808,0.2621499961852445
1539131204007949,-0.12970168612191957,0.9566186007476922,0.25763332570382236
1539131204023957,-0.12738231479362172,0.9573510337987337,0.2566567483024338
1539131204039966,-0.129579613946746,0.9583276112001222,0.25934233615625235
1539131204055975,-0.12823682001983672,0.9569848172732129,0.2595864805065995
1539131204071984,-0.12726024261844815,0.9571068894483865,0.2628824292362859
1539131204087993,-0.12860303654535743,0.9561303120469979,0.26105134660868234
1539131204104002,-0.1290913252460517,0.9577172503242544,0.26019684138246735
1539131204120010,-0.127870603494316,0.9566186007476922,0.2578774700541695
1539131204136019,-0.127870603494316,0.9561303120469979,0.26019684138246735
1539131204152028,-0.128725108720531,0.9566186007476922,0.2616617074845502
1539131204168037,-0.129579613946746,0.9561303120469979,0.26056305790798806
1539131204184046,-0.12933546959639886,0.9572289616235601,0.2608072022583352
1539131204200055,-0.13018997482261385,0.9571068894483865,0.2633707179369802
1539131204216064,-0.13031204699778742,0.9580834668497751,0.26361486228732733
1539131204232086,-0.13275349050125884,0.9600366216525522,0.26056305790798806
1539131204248095,-0.13434042877851526,0.9574731059739072,0.26153963530937663
1539131204264104,-0.13495078965438312,0.9561303120469979,0.2642252231631952
1539131204280112,-0.1354390783550774,0.9539330128938737,0.26776531624322875
1539131204296121,-0.1359273670557717,0.9540550850690472,0.26569008926527804
1539131204312130,-0.13617151140611883,0.955275806820783,0.2621499961852445
1539131204328139,-0.13604943923094526,0.9589379720759901,0.2628824292362859
1539131204344148,-0.1350728618295567,0.9583276112001222,0.2645914396887159
1539131204360157,-0.13470664530403598,0.9575951781490808,0.26141756313420306
1539131204376165,-0.13202105745021742,0.9560082398718244,0.25970855268177306
1539131204392174,-0.13189898527504385,0.9547875181200887,0.2599526970321202
1539131204408183,-0.12945754177157243,0.9555199511711301,0.25726710917830165
1539131204424192,-0.12823682001983672,0.9564965285725187,0.2595864805065995
1539131204440201,-0.12726024261844815,0.9569848172732129,0.2582436865796902
1539131204456210,-0.12689402609292744,0.9584496833752958,0.25775539787899593
1539131204472219,-0.12555123216601816,0.9577172503242544,0.25641260395208665
1539131204488227,-0.12628366521705958,0.9563744563973451,0.2587319752803845
1539131204504236,-0.1283588921950103,0.9562523842221715,0.2578774700541695
1539131204520245,-0.12726024261844815,0.9560082398718244,0.26141756313420306
1539131204536254,-0.13006790264744028,0.9561303120469979,0.2586099031052109
1539131204552276,-0.12933546959639886,0.9557640955214772,0.25885404745555807
1539131204568285,-0.13006790264744028,0.955275806820783,0.2586099031052109
1539131204584294,-0.12945754177157243,0.9562523842221715,0.26105134660868234
1539131204600303,-0.13055619134813456,0.9571068894483865,0.26263828488593877
1539131204616312,-0.13238727397573813,0.9560082398718244,0.2630045014114595
1539131204632321,-0.13348592355230027,0.9567406729228658,0.2630045014114595
1539131204648329,-0.1333638513771267,0.9557640955214772,0.26276035706111234
1539131204664338,-0.1354390783550774,0.9566186007476922,0.26483558403906304
1539131204680347,-0.13519493400473026,0.9553978789959565,0.26178377965972377
1539131204696356,-0.13482871747920955,0.9560082398718244,0.26520180056458376
1539131204712365,-0.13519493400473026,0.9567406729228658,0.26520180056458376
1539131204728374,-0.13275349050125884,0.9564965285725187,0.26569008926527804
1539131204744382,-0.1337300679026474,0.9555199511711301,0.2638590066376745
1539131204760391,-0.1325093461509117,0.9572289616235601,0.26398107881284805
1539131204776400,-0.13092240787365528,0.9564965285725187,0.2630045014114595
1539131204792409,-0.13116655222400242,0.9553978789959565,0.26434729533836876
1539131204808418,-0.12774853131914243,0.9566186007476922,0.2654459449149309
1539131204824427,-0.12628366521705958,0.9567406729228658,0.2620279240100709
1539131204840436,-0.12591744869153887,0.9557640955214772,0.25983062485694663
1539131204856444,-0.126161593041886,0.9571068894483865,0.2609292744335088
1539131204872467,-0.12542915999084459,0.9561303120469979,0.26153963530937663
1539131204888476,-0.12420843823910888,0.9582055390249486,0.2599526970321202
1539131204904484,-0.12567330434119173,0.9571068894483865,0.2583657587548638
1539131204920493,-0.12799267566948958,0.9551537346456094,0.26019684138246735
1539131204936502,-0.12713817044327458,0.9557640955214772,0.25812161440451664
1539131204952511,-0.13116655222400242,0.9562523842221715,0.2583657587548638
1539131204968520,-0.13092240787365528,0.9588158999008165,0.2556801709010452
1539131204984529,-0.1328755626764324,0.9618677042801558,0.2592202639810788
1539131205000537,-0.13580529488059812,0.9611352712291144,0.25812161440451664
1539131205016546,-0.13824673838406953,0.9584496833752958,0.2586099031052109
1539131205032555,-0.13897917143511096,0.9530785076676587,0.2616617074845502
1539131205048564,-0.13958953231097881,0.952712291142138,0.26263828488593877
1539131205064573,-0.1392233157854581,0.9530785076676587,0.2608072022583352
1539131205080582,-0.1366598001068131,0.9562523842221715,0.26446936751354233
1539131205096591,-0.13641565575646597,0.9582055390249486,0.26556801709010447
1539131205112599,-0.13385214007782098,0.9589379720759901,0.26569008926527804
1539131205128608,-0.13104448004882885,0.9595483329518579,0.26446936751354233
1539131205144617,-0.1283588921950103,0.9574731059739072,0.2647135118638895
1539131205160626,-0.12603952086671244,0.9541771572442208,0.2633707179369802
1539131205176635,-0.12603952086671244,0.9534447241931794,0.26276035706111234
1539131205192627,-0.12518501564049744,0.955275806820783,0.2642252231631952
1539131205208635,-0.12469672693980316,0.9551537346456094,0.26483558403906304
1539131205224644,-0.12518501564049744,0.9575951781490808,0.2599526970321202
1539131205240653,-0.12811474784466315,0.9577172503242544,0.2620279240100709
1539131205256662,-0.1275043869687953,0.9562523842221715,0.2632486457618066
1539131205272671,-0.127016098268101,0.955275806820783,0.25726710917830165
1539131205288680,-0.128725108720531,0.9542992294193944,0.2570229648279545
1539131205304689,-0.13031204699778742,0.9560082398718244,0.26153963530937663
1539131205320697,-0.12933546959639886,0.9564965285725187,0.2620279240100709
1539131205336706,-0.13141069657434956,0.9577172503242544,0.26178377965972377
1539131205352715,-0.12933546959639886,0.9572289616235601,0.2642252231631952
1539131205368724,-0.13067826352330814,0.9556420233463037,0.26178377965972377
1539131205384733,-0.13189898527504385,0.9563744563973451,0.2611734187838559
1539131205400742,-0.13397421225299455,0.9579613946746015,0.26019684138246735
1539131205416751,-0.1350728618295567,0.9556420233463037,0.2609292744335088
1539131205432759,-0.13409628442816812,0.9568627450980394,0.26105134660868234
1539131205448768,-0.13299763485160598,0.9575951781490808,0.26105134660868234
1539131205464777,-0.1333638513771267,0.9560082398718244,0.2603189135576409
1539131205480786,-0.13397421225299455,0.9558861676966508,0.2595864805065995
1539131205496795,-0.13177691309987027,0.9525902189669644,0.26141756313420306
1539131205512786,-0.13226520180056456,0.9532005798428322,0.2649576562142366
1539131205528795,-0.13153276874952313,0.9572289616235601,0.2621499961852445
1539131205544804,-0.13238727397573813,0.9573510337987337,0.26019684138246735
1539131205560813,-0.1328755626764324,0.9583276112001222,0.2603189135576409
1539131205576822,-0.13202105745021742,0.9567406729228658,0.2590981918059052
1539131205592831,-0.13275349050125884,0.9572289616235601,0.2582436865796902
1539131205608840,-0.132143129625391,0.9547875181200887,0.2570229648279545
1539131205624848,-0.12921339742122528,0.9567406729228658,0.2554360265506981
1539131205640857,-0.12970168612191957,0.9572289616235601,0.2587319752803845
1539131205656866,-0.12884718089570457,0.9586938277256429,0.25799954222934307
1539131205672875,-0.12982375829709314,0.9578393224994279,0.2578774700541695
1539131205688884,-0.13116655222400242,0.9571068894483865,0.2599526970321202
1539131205704893,-0.13104448004882885,0.9566186007476922,0.25970855268177306
1539131205720902,-0.13055619134813456,0.9573510337987337,0.26153963530937663
1539131205736910,-0.13018997482261385,0.9579613946746015,0.2611734187838559
1539131205752919,-0.13104448004882885,0.9585717555504694,0.26227206836041805
1539131205768928,-0.13311970702677955,0.9573510337987337,0.2642252231631952
1539131205784937,-0.1325093461509117,0.9568627450980394,0.26190585183489734
1539131205800946,-0.13177691309987027,0.9519798580910965,0.2642252231631952
1539131205816955,-0.13141069657434956,0.9528343633173115,0.2641031509880216
1539131205832977,-0.1342183566033417,0.9561303120469979,0.26520180056458376
1539131205848986,-0.13116655222400242,0.9604028381780729,0.26276035706111234
1539131205864995,-0.13104448004882885,0.9619897764553293,0.2621499961852445
1539131205881003,-0.13141069657434956,0.9567406729228658,0.2628824292362859
1539131205897012,-0.13202105745021742,0.9549095902952622,0.2666666666666666
1539131205913021,-0.13153276874952313,0.9508812085145344,0.2653238727397573
1539131205929030,-0.12921339742122528,0.9512474250400551,0.26434729533836876
1539131205945039,-0.12774853131914243,0.9538109407187001,0.2608072022583352
1539131205961048,-0.129579613946746,0.9557640955214772,0.26019684138246735
1539131205977057,-0.12945754177157243,0.9582055390249486,0.2587319752803845
1539131205993065,-0.13104448004882885,0.9597924773022051,0.25592431525139236
1539131206009074,-0.131288624399176,0.9574731059739072,0.2575112535286488
1539131206025083,-0.13092240787365528,0.955275806820783,0.2566567483024338
1539131206041092,-0.13055619134813456,0.9533226520180058,0.2573891813534752
1539131206057101,-0.13006790264744028,0.9547875181200887,0.25763332570382236
1539131206073110,-0.13177691309987027,0.9572289616235601,0.2553139543755245
1539131206089119,-0.13104448004882885,0.9577172503242544,0.2583657587548638
1539131206105127,-0.13141069657434956,0.9582055390249486,0.2592202639810788
1539131206121136,-0.13263141832608527,0.9590600442511636,0.25677882047760736
1539131206137145,-0.13446250095368883,0.9573510337987337,0.25763332570382236
1539131206153167,-0.13653772793163954,0.9557640955214772,0.2566567483024338
1539131206169176,-0.13763637750820168,0.9536888685435265,0.25983062485694663
1539131206185185,-0.13568322270542454,0.955275806820783,0.25934233615625235
1539131206201194,-0.13446250095368883,0.9575951781490808,0.26349279011215376
1539131206217203,-0.13397421225299455,0.9571068894483865,0.2630045014114595
1539131206233212,-0.13238727397573813,0.9571068894483865,0.26520180056458376
1539131206249220,-0.13141069657434956,0.9557640955214772,0.26605630579079875
1539131206265229,-0.13055619134813456,0.9562523842221715,0.2654459449149309
1539131206281238,-0.131288624399176,0.955275806820783,0.26739909971770803
1539131206297247,-0.13055619134813456,0.9539330128938737,0.2642252231631952
1539131206313256,-0.13189898527504385,0.9553978789959565,0.26520180056458376
1539131206329265,-0.16510261692225514,0.9789578088044557,0.2587319752803845
1539131206345274,0.13995574883649997,0.8574959945067517,0.392278934920272
1539131206361282,-0.3319752803845275,1.1181200885023266,0.12042420080872773
1539131206377291,-0.12213321126115817,0.8816662851911197,0.28253604943923083
1539131206393300,-0.0875867856870376,0.9737087052719922,0.28827344167238866
1539131206409309,-0.13788052185854882,0.9307392996108952,0.2510414282444495
1539131206425318,-0.17474631876096725,0.929640650034333,0.26935225452048517
1539131206441327,-0.1350728618295567,0.9231708247501338,0.29120317387655437
1539131206457336,-0.14837872892347592,0.945876249332418,0.2625162127107652
1539131206473358,-0.1409323262378881,0.9793240253299764,0.2582436865796902
1539131206489367,-0.13360799572747384,0.9787136644541086,0.26849774929427017
1539131206505375,-0.1522850385290302,0.9770046540016786,0.2649576562142366
1539131206521384,-0.1560692759594109,0.9619897764553293,0.25177386129549095
1539131206537393,-0.14081025406271452,0.9519798580910965,0.25348287174792095
1539131206553402,-0.1190814068818189,0.9448996719310294,0.25299458304722666
1539131206569411,-0.11187914854657821,0.9412375066758223,0.25690089265278093
1539131206585420,-0.1098039215686275,0.9445334554055087,0.26227206836041805
1539131206601429,-0.12103456168459603,0.9586938277256429,0.2554360265506981
1539131206617437,-0.126161593041886,0.9701686121919586,0.2485999847409781
1539131206633446,-0.12591744869153887,0.9750514991989014,0.24921034561684596
1539131206649455,-0.12628366521705958,0.966628519111925,0.2561684596017395
1539131206665464,-0.1173723964293889,0.9523460746166172,0.25397116044861523
1539131206681473,-0.11944762340733961,0.9434348058289466,0.2545815213244831
1539131206697482,-0.12738231479362172,0.9445334554055087,0.2562905317769131
1539131206713491,-0.13397421225299455,0.9488059815365837,0.2595864805065995
1539131206729499,-0.13678187228198668,0.9593041886015108,0.26141756313420306
1539131206745508,-0.13482871747920955,0.9651636530098422,0.25885404745555807
1539131206761517,-0.1366598001068131,0.9623559929808501,0.26361486228732733
1539131206777526,-0.1383688105592431,0.9585717555504694,0.2659342336156252
1539131206793548,-0.13934538796063167,0.9549095902952622,0.2670328831921873
1539131206809557,-0.13897917143511096,0.9524681467917908,0.2671549553673609
1539131206825566,-0.13861295490959025,0.9445334554055087,0.2680094605935759
1539131206841575,-0.14068818188754095,0.9545433737697415,0.270817120622568
1539131206857584,-0.13824673838406953,0.9557640955214772,0.2695963988708323
1539131206873592,-0.13897917143511096,0.9591821164263372,0.26642252231631947
1539131206889601,-0.1392233157854581,0.9611352712291144,0.26654459449149304
1539131206905610,-0.13727016098268097,0.9590600442511636,0.2678873884184023
1539131206921619,-0.13617151140611883,0.9547875181200887,0.26556801709010447
1539131206937628,-0.13824673838406953,0.951003280689708,0.26556801709010447
1539131206953637,-0.13519493400473026,0.9512474250400551,0.2623941405355916
1539131206969646,-0.1333638513771267,0.9567406729228658,0.2621499961852445
1539131206985654,-0.1316548409246967,0.9596704051270315,0.2637369344625009
1539131207001663,-0.13031204699778742,0.9591821164263372,0.2608072022583352
1539131207017672,-0.12603952086671244,0.9568627450980394,0.2592202639810788
1539131207033681,-0.12811474784466315,0.9571068894483865,0.25934233615625235
1539131207049690,-0.12774853131914243,0.9556420233463037,0.2565346761272602
1539131207065699,-0.12713817044327458,0.9556420233463037,0.2553139543755245
1539131207081708,-0.1275043869687953,0.9549095902952622,0.2583657587548638
1539131207097716,-0.128725108720531,0.9568627450980394,0.25677882047760736
1539131207113708,-0.12762645914396886,0.9572289616235601,0.25348287174792095
1539131207129717,-0.1290913252460517,0.9577172503242544,0.25690089265278093
1539131207145726,-0.130434119172961,0.9567406729228658,0.2583657587548638
1539131207161735,-0.13153276874952313,0.9571068894483865,0.2573891813534752
1539131207177744,-0.129579613946746,0.9545433737697415,0.25677882047760736
1539131207193752,-0.131288624399176,0.9541771572442208,0.2590981918059052
1539131207209761,-0.1316548409246967,0.9566186007476922,0.2590981918059052
1539131207225770,-0.1333638513771267,0.9557640955214772,0.26190585183489734
1539131207241779,-0.13604943923094526,0.9575951781490808,0.26398107881284805
1539131207257788,-0.13568322270542454,0.9574731059739072,0.2654459449149309
1539131207273797,-0.1362935835812924,0.9572289616235601,0.2667887388418402
1539131207289806,-0.13727016098268097,0.955275806820783,0.2667887388418402
1539131207305814,-0.13763637750820168,0.9551537346456094,0.26813153276874946
1539131207321823,-0.13641565575646597,0.9564965285725187,0.26825360494392303
1539131207337832,-0.13568322270542454,0.9571068894483865,0.26398107881284805
1539131207353841,-0.1333638513771267,0.9580834668497751,0.2663004501411459
1539131207369850,-0.13495078965438312,0.9568627450980394,0.26569008926527804
1539131207385859,-0.13519493400473026,0.9539330128938737,0.2625162127107652
1539131207401867,-0.13275349050125884,0.9536888685435265,0.26153963530937663
1539131207417876,-0.1333638513771267,0.9553978789959565,0.2633707179369802
1539131207433899,-0.13067826352330814,0.9584496833752958,0.25970855268177306
1539131207449907,-0.13055619134813456,0.9596704051270315,0.2612954909590295
1539131207465916,-0.13006790264744028,0.9569848172732129,0.2625162127107652
1539131207481925,-0.13006790264744028,0.9538109407187001,0.2620279240100709
1539131207497934,-0.12945754177157243,0.9523460746166172,0.2623941405355916
1539131207513943,-0.13018997482261385,0.9532005798428322,0.26068513008316163
1539131207529952,-0.12933546959639886,0.9545433737697415,0.2621499961852445
1539131207545961,-0.1316548409246967,0.9575951781490808,0.2616617074845502
1539131207561969,-0.13018997482261385,0.9583276112001222,0.25934233615625235
1539131207577978,-0.13104448004882885,0.9605249103532465,0.26141756313420306
1539131207593987,-0.13104448004882885,0.9589379720759901,0.2604409857328145
1539131207609996,-0.1316548409246967,0.9566186007476922,0.25555809872587165
1539131207626005,-0.13006790264744028,0.9560082398718244,0.2599526970321202
1539131207642014,-0.13092240787365528,0.9532005798428322,0.25970855268177306
1539131207658023,-0.13006790264744028,0.9545433737697415,0.26178377965972377
1539131207674031,-0.13177691309987027,0.9562523842221715,0.2595864805065995
1539131207690040,-0.13177691309987027,0.9562523842221715,0.2625162127107652
1539131207706049,-0.1342183566033417,0.9551537346456094,0.2630045014114595
1539131207722058,-0.13604943923094526,0.9553978789959565,0.26178377965972377
1539131207738067,-0.13690394445716025,0.9561303120469979,0.2611734187838559
1539131207754089,-0.13678187228198668,0.9569848172732129,0.26105134660868234
1539131207770098,-0.13739223315785454,0.9558861676966508,0.2637369344625009
1539131207786107,-0.13641565575646597,0.9569848172732129,0.2638590066376745
1539131207802116,-0.13482871747920955,0.9577172503242544,0.2654459449149309
1539131207818124,-0.13653772793163954,0.9556420233463037,0.2638590066376745
1539131207834133,-0.13519493400473026,0.9555199511711301,0.2647135118638895
1539131207850142,-0.13397421225299455,0.9568627450980394,0.2638590066376745
1539131207866151,-0.13397421225299455,0.9562523842221715,0.26434729533836876
1539131207882160,-0.13299763485160598,0.9567406729228658,0.26276035706111234
1539131207898169,-0.13226520180056456,0.9560082398718244,0.26227206836041805
1539131207914178,-0.1316548409246967,0.9567406729228658,0.2623941405355916
1539131207930186,-0.13104448004882885,0.9562523842221715,0.2612954909590295
1539131207946195,-0.129579613946746,0.9551537346456094,0.26178377965972377
1539131207962204,-0.129579613946746,0.9550316624704358,0.26312657358663305
1539131207978213,-0.12811474784466315,0.9555199511711301,0.26068513008316163
1539131207994222,-0.1257953765163653,0.9557640955214772,0.2612954909590295
1539131208010231,-0.12640573739223315,0.9558861676966508,0.26361486228732733
1539131208026239,-0.12860303654535743,0.9542992294193944,0.2621499961852445
1539131208042248,-0.12860303654535743,0.9574731059739072,0.25812161440451664
1539131208058257,-0.13092240787365528,0.9568627450980394,0.2594644083314259
1539131208074279,-0.13104448004882885,0.9558861676966508,0.2623941405355916
1539131208090288,-0.13177691309987027,0.9573510337987337,0.26227206836041805
1539131208106297,-0.13226520180056456,0.9585717555504694,0.26190585183489734
1539131208122306,-0.13495078965438312,0.9569848172732129,0.2600747692072938
1539131208138315,-0.1345845731288624,0.9562523842221715,0.2583657587548638
1539131208154324,-0.13360799572747384,0.9560082398718244,0.2620279240100709
1539131208170333,-0.13348592355230027,0.9577172503242544,0.2633707179369802
1539131208186341,-0.13580529488059812,0.9571068894483865,0.26276035706111234
1539131208202350,-0.13568322270542454,0.9562523842221715,0.2628824292362859
1539131208218359,-0.13653772793163954,0.9546654459449151,0.2638590066376745
1539131208234368,-0.13763637750820168,0.9536888685435265,0.2600747692072938
1539131208250377,-0.13727016098268097,0.9551537346456094,0.25983062485694663
1539131208266386,-0.13531700617990383,0.9567406729228658,0.26361486228732733
1539131208282395,-0.13385214007782098,0.9599145494773786,0.2642252231631952
1539131208298403,-0.13385214007782098,0.9582055390249486,0.26483558403906304
1539131208314412,-0.13446250095368883,0.9555199511711301,0.26691081101701375
1539131208330421,-0.13275349050125884,0.9532005798428322,0.2666666666666666
1539131208346430,-0.1325093461509117,0.9512474250400551,0.2653238727397573
1539131208362439,-0.13226520180056456,0.9546654459449151,0.2642252231631952
1539131208378448,-0.13141069657434956,0.9567406729228658,0.2612954909590295
1539131208394470,-0.130434119172961,0.9591821164263372,0.26068513008316163
1539131208410479,-0.12896925307087814,0.9605249103532465,0.26068513008316163
1539131208426488,-0.12884718089570457,0.9595483329518579,0.2590981918059052
1539131208442496,-0.12933546959639886,0.9566186007476922,0.2587319752803845
1539131208458505,-0.12884718089570457,0.954421301594568,0.25690089265278093
1539131208474514,-0.1283588921950103,0.9541771572442208,0.2571450370031281
1539131208490523,-0.12823682001983672,0.9558861676966508,0.2590981918059052
1539131208506532,-0.12884718089570457,0.9577172503242544,0.2573891813534752
1539131208522541,-0.13006790264744028,0.9585717555504694,0.2603189135576409
1539131208538550,-0.13067826352330814,0.9580834668497751,0.2623941405355916
1539131208554558,-0.13385214007782098,0.9584496833752958,0.2578774700541695
1539131208570567,-0.13348592355230027,0.9555199511711301,0.2642252231631952
1539131208586576,-0.13470664530403598,0.9549095902952622,0.26349279011215376
1539131208602585,-0.13556115053025097,0.9566186007476922,0.2633707179369802
1539131208618594,-0.1371480888075074,0.955275806820783,0.26434729533836876
1539131208634603,-0.1366598001068131,0.9560082398718244,0.2663004501411459
1539131208650612,-0.13739223315785454,0.9560082398718244,0.2670328831921873
1539131208666620,-0.13617151140611883,0.9568627450980394,0.2663004501411459
1539131208682629,-0.13604943923094526,0.9558861676966508,0.26691081101701375
1539131208698638,-0.1337300679026474,0.9556420233463037,0.2683756771190966
1539131208714630,-0.13409628442816812,0.9560082398718244,0.26605630579079875
1539131208730639,-0.13055619134813456,0.9585717555504694,0.26434729533836876
1539131208746647,-0.13104448004882885,0.9577172503242544,0.2653238727397573
1539131208762656,-0.13189898527504385,0.9586938277256429,0.2620279240100709
1539131208778665,-0.1316548409246967,0.9591821164263372,0.2587319752803845
1539131208794674,-0.13092240787365528,0.9574731059739072,0.2603189135576409
1539131208810683,-0.13018997482261385,0.9572289616235601,0.26019684138246735
1539131208826692,-0.130434119172961,0.9547875181200887,0.25848783093003735
1539131208842701,-0.13067826352330814,0.954421301594568,0.25677882047760736
1539131208858709,-0.13031204699778742,0.9532005798428322,0.25775539787899593
1539131208874718,-0.13055619134813456,0.954421301594568,0.25885404745555807
1539131208890727,-0.13092240787365528,0.9555199511711301,0.2590981918059052
1539131208906736,-0.12982375829709314,0.9564965285725187,0.2620279240100709
1539131208922745,-0.13006790264744028,0.9571068894483865,0.26153963530937663
1539131208938754,-0.128725108720531,0.9560082398718244,0.26446936751354233
1539131208954763,-0.13055619134813456,0.9575951781490808,0.2666666666666666
1539131208970771,-0.12945754177157243,0.9577172503242544,0.2604409857328145
1539131208986780,-0.12982375829709314,0.9555199511711301,0.2641031509880216
1539131209002789,-0.13018997482261385,0.9572289616235601,0.2653238727397573
1539131209018798,-0.13177691309987027,0.9558861676966508,0.2653238727397573
1539131209034820,-0.13189898527504385,0.9578393224994279,0.2645914396887159
1539131209050829,-0.13311970702677955,0.9582055390249486,0.2641031509880216
1539131209066838,-0.1337300679026474,0.9566186007476922,0.26312657358663305
1539131209082847,-0.1325093461509117,0.9567406729228658,0.2650797283894102
1539131209098856,-0.1359273670557717,0.9551537346456094,0.2654459449149309
1539131209114864,-0.13702601663233382,0.9530785076676587,0.2688639658197909
1539131209130873,-0.13824673838406953,0.9529564354924851,0.2680094605935759
1539131209146882,-0.13690394445716025,0.9550316624704358,0.26849774929427017
1539131209162891,-0.13653772793163954,0.9583276112001222,0.26825360494392303
1539131209178900,-0.13727016098268097,0.9584496833752958,0.2688639658197909
1539131209194909,-0.13690394445716025,0.9605249103532465,0.2633707179369802
1539131209210918,-0.13519493400473026,0.9608911268787672,0.2625162127107652
1539131209226926,-0.1333638513771267,0.9599145494773786,0.26019684138246735
1539131209242935,-0.131288624399176,0.9566186007476922,0.25519188220035094
1539131209258944,-0.129579613946746,0.9550316624704358,0.2575112535286488
1539131209274953,-0.12799267566948958,0.953566796368353,0.2544594491493095
1539131209290962,-0.12603952086671244,0.9522240024414437,0.2540932326237888
1539131209306971,-0.12372014953841459,0.9529564354924851,0.25641260395208665
1539131209322980,-0.12323186083772031,0.9540550850690472,0.2571450370031281
1539131209338988,-0.12530708781567101,0.9541771572442208,0.25519188220035094
1539131209355011,-0.1249408712901503,0.9550316624704358,0.2578774700541695
1539131209371019,-0.12640573739223315,0.9556420233463037,0.2592202639810788
1539131209387028,-0.12884718089570457,0.9558861676966508,0.2604409857328145
1539131209403037,-0.129579613946746,0.9564965285725187,0.2625162127107652
1539131209419046,-0.13177691309987027,0.9563744563973451,0.2632486457618066
1539131209435055,-0.1337300679026474,0.9568627450980394,0.2658121614404516
1539131209451064,-0.13739223315785454,0.9568627450980394,0.2663004501411459
1539131209467073,-0.13861295490959025,0.9590600442511636,0.2647135118638895
1539131209483081,-0.14154268711375595,0.9575951781490808,0.2645914396887159
1539131209499090,-0.14251926451514452,0.9557640955214772,0.2649576562142366
1539131209515099,-0.1438620584420538,0.9561303120469979,0.2625162127107652
1539131209531108,-0.14276340886549166,0.9573510337987337,0.2623941405355916
1539131209547117,-0.1404440375371938,0.9566186007476922,0.26312657358663305
1539131209563126,-0.13971160448615239,0.9547875181200887,0.2667887388418402
1539131209579135,-0.13849088273441668,0.9553978789959565,0.2633707179369802
1539131209595143,-0.1345845731288624,0.9562523842221715,0.26312657358663305
1539131209611152,-0.13226520180056456,0.9566186007476922,0.26227206836041805
1539131209627161,-0.1299458304722667,0.9563744563973451,0.26398107881284805
1539131209643170,-0.1299458304722667,0.9588158999008165,0.25970855268177306
1539131209659179,-0.12811474784466315,0.9555199511711301,0.2642252231631952
1539131209675201,-0.12530708781567101,0.9566186007476922,0.2632486457618066
1539131209691210,-0.12555123216601816,0.9561303120469979,0.26556801709010447
1539131209707219,-0.12347600518806745,0.955275806820783,0.26691081101701375
1539131209723228,-0.12225528343633174,0.9562523842221715,0.26446936751354233
1539131209739236,-0.12372014953841459,0.9567406729228658,0.2637369344625009
1539131209755245,-0.12518501564049744,0.9539330128938737,0.2628824292362859
1539131209771254,-0.12677195391775387,0.9553978789959565,0.2633707179369802
1539131209787263,-0.12848096437018386,0.9574731059739072,0.2608072022583352
1539131209803272,-0.130434119172961,0.9591821164263372,0.2633707179369802
1539131209819281,-0.13397421225299455,0.9573510337987337,0.2612954909590295
1539131209835290,-0.1354390783550774,0.955275806820783,0.2645914396887159
1539131209851298,-0.13788052185854882,0.9528343633173115,0.2600747692072938
1539131209867307,-0.1383688105592431,0.9521019302662701,0.26227206836041805
1539131209883316,-0.13946746013580524,0.9539330128938737,0.26263828488593877
1539131209899325,-0.13897917143511096,0.9564965285725187,0.26312657358663305
1539131209915334,-0.1380025940337224,0.9572289616235601,0.26141756313420306
1539131209931343,-0.1380025940337224,0.9560082398718244,0.26153963530937663
1539131209947352,-0.1383688105592431,0.9633325703822386,0.26190585183489734
1539131209963360,-0.13580529488059812,0.9556420233463037,0.2611734187838559
1539131209979369,-0.13495078965438312,0.9557640955214772,0.26141756313420306
1539131209995391,-0.13519493400473026,0.9532005798428322,0.2633707179369802
1539131210011400,-0.131288624399176,0.9530785076676587,0.2621499961852445
1539131210027409,-0.12921339742122528,0.9540550850690472,0.2599526970321202
1539131210043418,-0.12970168612191957,0.9546654459449151,0.2604409857328145
1539131210059427,-0.12762645914396886,0.9589379720759901,0.2612954909590295
1539131210075436,-0.12982375829709314,0.9585717555504694,0.26178377965972377
1539131210091445,-0.129579613946746,0.9577172503242544,0.2578774700541695
1539131210107453,-0.1283588921950103,0.955275806820783,0.2625162127107652
1539131210123462,-0.13018997482261385,0.9539330128938737,0.26178377965972377
1539131210139471,-0.13055619134813456,0.9530785076676587,0.26349279011215376
1539131210155480,-0.12982375829709314,0.9556420233463037,0.2609292744335088
1539131210171489,-0.13092240787365528,0.9572289616235601,0.2630045014114595
1539131210187498,-0.1308003356984817,0.9560082398718244,0.2641031509880216
1539131210203507,-0.13189898527504385,0.9572289616235601,0.26642252231631947
1539131210219515,-0.13226520180056456,0.9562523842221715,0.26434729533836876
1539131210235524,-0.1345845731288624,0.9556420233463037,0.2658121614404516
1539131210251533,-0.13409628442816812,0.9551537346456094,0.2659342336156252
1539131210267542,-0.13604943923094526,0.9550316624704358,0.2632486457618066
1539131210283551,-0.1366598001068131,0.9563744563973451,0.26398107881284805
1539131210299560,-0.1362935835812924,0.9563744563973451,0.2650797283894102
1539131210315551,-0.13519493400473026,0.9551537346456094,0.26276035706111234
1539131210331560,-0.13531700617990383,0.9549095902952622,0.26263828488593877
1539131210347569,-0.13397421225299455,0.9538109407187001,0.2638590066376745
1539131210363578,-0.13299763485160598,0.9547875181200887,0.26141756313420306
1539131210379587,-0.13202105745021742,0.9550316624704358,0.2608072022583352
1539131210395596,-0.1316548409246967,0.9541771572442208,0.2642252231631952
1539131210411605,-0.13067826352330814,0.9530785076676587,0.2632486457618066
1539131210427613,-0.130434119172961,0.9556420233463037,0.26263828488593877
1539131210443622,-0.12860303654535743,0.9560082398718244,0.26068513008316163
1539131210459631,-0.12848096437018386,0.9575951781490808,0.2599526970321202
1539131210475640,-0.12921339742122528,0.9589379720759901,0.2625162127107652
1539131210491649,-0.13018997482261385,0.9583276112001222,0.26312657358663305
1539131210507658,-0.13055619134813456,0.9562523842221715,0.26153963530937663
1539131210523666,-0.131288624399176,0.9566186007476922,0.26105134660868234
1539131210539675,-0.13116655222400242,0.9563744563973451,0.2586099031052109
1539131210555684,-0.13141069657434956,0.9564965285725187,0.2590981918059052
1539131210571693,-0.1325093461509117,0.9607690547035936,0.2623941405355916
1539131210587702,-0.13226520180056456,0.9619897764553293,0.2630045014114595
1539131210603711,-0.13385214007782098,0.9599145494773786,0.26190585183489734
1539131210619720,-0.13470664530403598,0.9557640955214772,0.2654459449149309
1539131210635742,-0.13531700617990383,0.9529564354924851,0.2641031509880216
1539131210651751,-0.1380025940337224,0.952712291142138,0.26569008926527804
1539131210667760,-0.13763637750820168,0.9541771572442208,0.26398107881284805
1539131210683768,-0.13739223315785454,0.955275806820783,0.26361486228732733
1539131210699777,-0.13788052185854882,0.9558861676966508,0.2645914396887159
1539131210715786,-0.1371480888075074,0.9578393224994279,0.26556801709010447
1539131210731795,-0.1354390783550774,0.9577172503242544,0.2623941405355916
1539131210747804,-0.13311970702677955,0.9594262607766844,0.2642252231631952
1539131210763813,-0.1333638513771267,0.9573510337987337,0.25799954222934307
1539131210779821,-0.1325093461509117,0.9556420233463037,0.2586099031052109
1539131210795830,-0.1316548409246967,0.9536888685435265,0.2523842221713588
1539131210811839,-0.13202105745021742,0.9514915693904022,0.25555809872587165
1539131210827848,-0.13018997482261385,0.9512474250400551,0.2548256656748302
1539131210843857,-0.12945754177157243,0.9528343633173115,0.2578774700541695
1539131210859866,-0.12811474784466315,0.9553978789959565,0.2590981918059052
1539131210875875,-0.1275043869687953,0.9588158999008165,0.2573891813534752
1539131210891883,-0.12591744869153887,0.9588158999008165,0.25983062485694663
