Timestamp (microseconds),Gyro X (°/s),Gyro Y (°/s),Gyro Z (°/s)
1539131185661926,0.03051804379333589,1.3733119707026162,-0.5188067444876197
1539131185677928,0.03051804379333589,1.4953841458761872,-0.6408789196611906
1539131185693929,-0.03051804379333589,1.4953841458761872,-0.7629510948347615
1539131185709931,-0.03051804379333589,1.3122758831159445,-0.7629510948347615
1539131185725933,-0.15259021896690683,1.2512397955290453,-0.7019150072480898
1539131185741934,-0.213626306553806,1.1291676203554744,-0.7019150072480898
1539131185757936,-0.33569848172737693,1.0681315327688026,-0.6408789196611906
1539131185773938,-0.3967345693140487,1.0070954451819034,-0.45777065690094787
1539131185789940,-0.3967345693140487,0.9460593575952316,-0.33569848172737693
1539131185805941,-0.2746623941404778,1.0070954451819034,-0.09155413138023505
1539131185821943,-0.15259021896690683,1.0681315327688026,-0.03051804379333589
1539131185837945,0.03051804379333589,1.2512397955290453,0.03051804379333589
1539131185853946,0.213626306553806,1.3122758831159445,0.09155413138023505
1539131185869948,0.33569848172737693,1.3122758831159445,-0.09155413138023505
1539131185885950,0.3967345693140487,1.2512397955290453,-0.33569848172737693
1539131185901951,0.3967345693140487,1.1902037079423735,-0.3967345693140487
1539131185917953,0.3967345693140487,1.1291676203554744,-0.45777065690094787
1539131185933955,0.33569848172737693,1.1291676203554744,-0.3967345693140487
1539131185949957,0.213626306553806,1.0681315327688026,-0.33569848172737693
1539131185965958,0.213626306553806,1.1291676203554744,-0.213626306553806
1539131185981933,0.213626306553806,1.2512397955290453,-0.213626306553806
1539131185997935,0.213626306553806,1.2512397955290453,-0.213626306553806
1539131186013937,0.213626306553806,1.3122758831159445,-0.213626306553806
1539131186029938,0.213626306553806,1.2512397955290453,-0.33569848172737693
1539131186045940,0.213626306553806,1.2512397955290453,-0.3967345693140487
1539131186061942,0.2746623941404778,1.3122758831159445,-0.5188067444876197
1539131186077943,0.2746623941404778,1.3733119707026162,-0.5798428320745188
1539131186093945,0.213626306553806,1.3122758831159445,-0.6408789196611906
1539131186109947,0.15259021896690683,1.2512397955290453,-0.6408789196611906
1539131186125949,0.09155413138023505,1.1902037079423735,-0.6408789196611906
1539131186141950,0.09155413138023505,1.2512397955290453,-0.5798428320745188
1539131186157952,0.03051804379333589,1.2512397955290453,-0.45777065690094787
1539131186173954,-0.03051804379333589,1.2512397955290453,-0.3967345693140487
1539131186189955,-0.03051804379333589,1.1902037079423735,-0.33569848172737693
1539131186205957,-0.03051804379333589,1.1902037079423735,-0.2746623941404778
1539131186221959,-0.09155413138023505,1.1291676203554744,-0.2746623941404778
1539131186237960,-0.03051804379333589,1.0681315327688026,-0.33569848172737693
1539131186253962,-0.09155413138023505,1.0681315327688026,-0.33569848172737693
1539131186269964,-0.09155413138023505,1.1291676203554744,-0.3967345693140487
1539131186285966,-0.03051804379333589,1.1291676203554744,-0.3967345693140487
1539131186302002,0.09155413138023505,1.1291676203554744,-0.33569848172737693
1539131186318003,0.213626306553806,1.1291676203554744,-0.2746623941404778
1539131186334005,0.2746623941404778,1.2512397955290453,-0.213626306553806
1539131186350007,0.2746623941404778,1.2512397955290453,-0.03051804379333589
1539131186366008,0.2746623941404778,1.1291676203554744,0.03051804379333589
1539131186382010,0.09155413138023505,0.9460593575952316,-0.03051804379333589
1539131186398012,-0.03051804379333589,0.8239871824216607,-0.213626306553806
1539131186414013,-0.213626306553806,0.8850232700083325,-0.3967345693140487
1539131186430015,-0.33569848172737693,1.0070954451819034,-0.5188067444876197
1539131186446017,-0.33569848172737693,1.1902037079423735,-0.6408789196611906
1539131186462019,-0.2746623941404778,1.4343480582895154,-0.7019150072480898
1539131186478020,-0.213626306553806,1.4343480582895154,-0.7629510948347615
1539131186494022,-0.2746623941404778,1.3122758831159445,-0.8239871824216607
1539131186510024,-0.2746623941404778,1.1291676203554744,-0.7629510948347615
1539131186526025,-0.213626306553806,1.1291676203554744,-0.7019150072480898
1539131186542027,-0.213626306553806,1.1291676203554744,-0.5188067444876197
1539131186558029,-0.213626306553806,1.1291676203554744,-0.3967345693140487
1539131186574031,-0.09155413138023505,1.1902037079423735,-0.2746623941404778
1539131186590032,0.03051804379333589,1.1902037079423735,-0.15259021896690683
1539131186606034,0.15259021896690683,1.1902037079423735,-0.09155413138023505
1539131186622192,0.33569848172737693,1.1902037079423735,-0.03051804379333589
1539131186638194,0.33569848172737693,1.1291676203554744,0.03051804379333589
1539131186654196,0.33569848172737693,1.0681315327688026,0.03051804379333589
1539131186670199,0.3967345693140487,1.0070954451819034,-0.03051804379333589
1539131186686201,0.33569848172737693,1.0070954451819034,-0.15259021896690683
1539131186702203,0.213626306553806,1.0070954451819034,-0.03051804379333589
1539131186718205,0.15259021896690683,1.0070954451819034,-0.09155413138023505
1539131186734207,0.09155413138023505,1.0681315327688026,-0.15259021896690683
1539131186750209,0.03051804379333589,1.0681315327688026,-0.15259021896690683
1539131186766212,-0.03051804379333589,1.1291676203554744,-0.213626306553806
1539131186782214,-0.09155413138023505,1.1902037079423735,-0.33569848172737693
1539131186798216,-0.09155413138023505,1.1291676203554744,-0.45777065690094787
1539131186814218,-0.15259021896690683,1.1291676203554744,-0.5188067444876197
1539131186830220,-0.15259021896690683,1.1902037079423735,-0.6408789196611906
1539131186846223,-0.09155413138023505,1.1902037079423735,-0.7019150072480898
1539131186862225,-0.15259021896690683,1.1902037079423735,-0.7019150072480898
1539131186878227,-0.03051804379333589,1.1902037079423735,-0.6408789196611906
1539131186894229,-0.03051804379333589,1.2512397955290453,-0.6408789196611906
1539131186910231,0.03051804379333589,1.3122758831159445,-0.5798428320745188
1539131186926233,0.09155413138023505,1.3733119707026162,-0.5188067444876197
1539131186942321,0.213626306553806,1.4343480582895154,-0.3967345693140487
1539131186958324,0.33569848172737693,1.4343480582895154,-0.33569848172737693
1539131186974327,0.45777065690094787,1.5564202334630863,-0.2746623941404778
1539131186990329,0.5188067444876197,1.4953841458761872,-0.15259021896690683
1539131187006332,0.5188067444876197,1.4343480582895154,-0.03051804379333589
1539131187022335,0.5188067444876197,1.2512397955290453,0.03051804379333589
1539131187038337,0.5188067444876197,1.0681315327688026,0.09155413138023505
1539131187054340,0.3967345693140487,1.0070954451819034,0.09155413138023505
1539131187070343,0.45777065690094787,0.8850232700083325,0.15259021896690683
1539131187086345,0.5188067444876197,0.8239871824216607,0.2746623941404778
1539131187102348,0.5188067444876197,0.8850232700083325,0.213626306553806
1539131187118351,0.5188067444876197,1.0070954451819034,0.2746623941404778
1539131187134353,0.45777065690094787,1.1291676203554744,0.213626306553806
1539131187150356,0.33569848172737693,1.0681315327688026,0.213626306553806
1539131187166359,0.213626306553806,1.0070954451819034,-0.09155413138023505
1539131187182361,0.09155413138023505,1.0681315327688026,-0.33569848172737693
1539131187198364,-0.09155413138023505,1.1291676203554744,-0.6408789196611906
1539131187214367,-0.213626306553806,1.1902037079423735,-0.9460593575952316
1539131187230369,-0.3967345693140487,1.1902037079423735,-1.1902037079423735
1539131187246372,-0.5188067444876197,1.1291676203554744,-1.3733119707026162
1539131187262512,-0.5798428320745188,1.1291676203554744,-1.4343480582895154
1539131187278515,-0.5798428320745188,1.1291676203554744,-1.3733119707026162
1539131187294518,-0.6408789196611906,1.1902037079423735,-1.2512397955290453
1539131187310521,-0.5798428320745188,1.1902037079423735,-1.1291676203554744
1539131187326524,-0.6408789196611906,1.2512397955290453,-0.9460593575952316
1539131187342527,-0.5798428320745188,1.1902037079423735,-0.6408789196611906
1539131187358531,-0.5188067444876197,1.0070954451819034,-0.45777065690094787
1539131187374534,-0.3967345693140487,0.8239871824216607,-0.213626306553806
1539131187390537,-0.15259021896690683,0.8850232700083325,0.03051804379333589
1539131187406540,0.03051804379333589,0.8239871824216607,0.213626306553806
1539131187422543,0.213626306553806,0.8239871824216607,0.2746623941404778
1539131187438546,0.3967345693140487,0.8850232700083325,0.2746623941404778
1539131187454549,0.5798428320745188,1.0681315327688026,0.33569848172737693
1539131187470553,0.7019150072480898,1.1902037079423735,0.213626306553806
1539131187486556,0.7019150072480898,1.3122758831159445,0.15259021896690683
1539131187502559,0.7019150072480898,1.3122758831159445,0.03051804379333589
1539131187518562,0.7019150072480898,1.2512397955290453,0.03051804379333589
1539131187534565,0.7019150072480898,1.1291676203554744,-0.09155413138023505
1539131187550568,0.5798428320745188,1.0681315327688026,-0.213626306553806
1539131187566571,0.5188067444876197,1.0070954451819034,-0.2746623941404778
1539131187582702,0.3967345693140487,1.0681315327688026,-0.33569848172737693
1539131187598706,0.2746623941404778,1.1291676203554744,-0.45777065690094787
1539131187614709,0.15259021896690683,1.1902037079423735,-0.5798428320745188
1539131187630713,0.09155413138023505,1.1902037079423735,-0.7019150072480898
1539131187646717,0.03051804379333589,1.0681315327688026,-0.7019150072480898
1539131187662720,-0.15259021896690683,1.1291676203554744,-0.7629510948347615
1539131187678724,-0.213626306553806,1.1291676203554744,-0.8239871824216607
1539131187694728,-0.213626306553806,1.1291676203554744,-0.7629510948347615
1539131187710731,-0.2746623941404778,1.1291676203554744,-0.7019150072480898
1539131187726735,-0.2746623941404778,1.0070954451819034,-0.6408789196611906
1539131187742738,-0.213626306553806,1.0070954451819034,-0.6408789196611906
1539131187758742,-0.213626306553806,1.1291676203554744,-0.5188067444876197
1539131187774746,-0.15259021896690683,1.1902037079423735,-0.45777065690094787
1539131187790749,-0.09155413138023505,1.2512397955290453,-0.33569848172737693
1539131187806753,-0.15259021896690683,1.2512397955290453,-0.33569848172737693
1539131187822756,-0.03051804379333589,1.1902037079423735,-0.3967345693140487
1539131187838760,0.09155413138023505,1.0681315327688026,-0.45777065690094787
1539131187854764,0.2746623941404778,1.0070954451819034,-0.3967345693140487
1539131187870767,0.3967345693140487,0.9460593575952316,-0.2746623941404778
1539131187886771,0.5798428320745188,1.0681315327688026,-0.09155413138023505
1539131187902893,0.6408789196611906,1.3122758831159445,-0.03051804379333589
1539131187918897,0.6408789196611906,1.2512397955290453,0.03051804379333589
1539131187934901,0.5798428320745188,1.2512397955290453,0.09155413138023505
1539131187950905,0.45777065690094787,1.2512397955290453,-0.03051804379333589
1539131187966909,0.33569848172737693,1.1902037079423735,-0.15259021896690683
1539131187982913,0.09155413138023505,1.1902037079423735,-0.33569848172737693
1539131187998917,-0.03051804379333589,1.2512397955290453,-0.5188067444876197
1539131188014921,-0.213626306553806,1.3122758831159445,-0.5798428320745188
1539131188030925,-0.213626306553806,1.3733119707026162,-0.6408789196611906
1539131188046929,-0.2746623941404778,1.3122758831159445,-0.6408789196611906
1539131188062934,-0.213626306553806,1.1902037079423735,-0.7019150072480898
1539131188078938,-0.3967345693140487,1.0070954451819034,-0.7019150072480898
1539131188094942,-0.3967345693140487,1.0681315327688026,-0.5798428320745188
1539131188110946,-0.45777065690094787,1.1291676203554744,-0.5188067444876197
1539131188126950,-0.3967345693140487,1.0681315327688026,-0.3967345693140487
1539131188142954,-0.2746623941404778,1.0070954451819034,-0.2746623941404778
1539131188158958,-0.15259021896690683,1.0681315327688026,-0.2746623941404778
1539131188174962,0.09155413138023505,1.1291676203554744,-0.213626306553806
1539131188190966,0.213626306553806,1.2512397955290453,-0.2746623941404778
1539131188206970,0.2746623941404778,1.2512397955290453,-0.213626306553806
1539131188223022,0.45777065690094787,1.1291676203554744,-0.213626306553806
1539131188239027,0.5798428320745188,1.0681315327688026,-0.2746623941404778
1539131188255031,0.6408789196611906,1.0681315327688026,-0.2746623941404778
1539131188271036,0.6408789196611906,1.1902037079423735,-0.2746623941404778
1539131188287040,0.5798428320745188,1.3122758831159445,-0.2746623941404778
1539131188303045,0.5798428320745188,1.3733119707026162,-0.33569848172737693
1539131188319049,0.5798428320745188,1.4343480582895154,-0.33569848172737693
1539131188335054,0.45777065690094787,1.3733119707026162,-0.3967345693140487
1539131188351059,0.2746623941404778,1.1291676203554744,-0.3967345693140487
1539131188367063,0.15259021896690683,0.8850232700083325,-0.3967345693140487
1539131188383068,0.03051804379333589,0.7019150072480898,-0.33569848172737693
1539131188399072,-0.09155413138023505,0.7019150072480898,-0.2746623941404778
1539131188415077,-0.2746623941404778,0.8239871824216607,-0.2746623941404778
1539131188431081,-0.2746623941404778,1.0681315327688026,-0.2746623941404778
1539131188447086,-0.213626306553806,1.3122758831159445,-0.33569848172737693
1539131188463091,-0.213626306553806,1.4953841458761872,-0.3967345693140487
1539131188479095,-0.15259021896690683,1.5564202334630863,-0.45777065690094787
1539131188495100,-0.09155413138023505,1.3122758831159445,-0.5798428320745188
1539131188511104,-0.09155413138023505,1.1291676203554744,-0.6408789196611906
1539131188527109,0.03051804379333589,1.0070954451819034,-0.5798428320745188
1539131188543213,-0.09155413138023505,1.0681315327688026,-0.5188067444876197
1539131188559217,-0.15259021896690683,1.2512397955290453,-0.3967345693140487
1539131188575222,-0.2746623941404778,1.2512397955290453,-0.33569848172737693
1539131188591226,-0.213626306553806,1.1291676203554744,-0.2746623941404778
1539131188607231,-0.213626306553806,1.0070954451819034,-0.213626306553806
1539131188623235,-0.09155413138023505,0.8850232700083325,-0.15259021896690683
1539131188639240,-0.03051804379333589,0.7019150072480898,-0.15259021896690683
1539131188655244,0.09155413138023505,0.3967345693140487,-0.09155413138023505
1539131188671249,0.15259021896690683,0.213626306553806,-0.03051804379333589
1539131188687254,0.09155413138023505,0.213626306553806,-0.15259021896690683
1539131188703258,-0.03051804379333589,0.3967345693140487,-0.33569848172737693
1539131188719263,-0.03051804379333589,0.6408789196611906,-0.5188067444876197
1539131188735267,0.09155413138023505,1.1291676203554744,-0.5798428320745188
1539131188751272,0.213626306553806,1.5564202334630863,-0.7629510948347615
1539131188767276,0.3967345693140487,1.6174563210497581,-0.8239871824216607
1539131188783281,0.5798428320745188,1.6784924086366573,-0.8239871824216607
1539131188799286,0.6408789196611906,1.6174563210497581,-0.9460593575952316
1539131188815290,0.5798428320745188,1.739528496223329,-1.0681315327688026
1539131188831295,0.5188067444876197,1.9226367589837992,-1.0681315327688026
1539131188847299,0.5188067444876197,1.8616006713969,-1.0681315327688026
1539131188863403,0.5798428320745188,1.8005645838102282,-0.9460593575952316
1539131188879408,0.5188067444876197,1.739528496223329,-0.6408789196611906
1539131188895413,0.6408789196611906,1.8005645838102282,-0.33569848172737693
1539131188911418,0.7019150072480898,1.9226367589837992,-0.09155413138023505
1539131188927423,0.6408789196611906,1.983672846570471,0.09155413138023505
1539131188943428,0.5188067444876197,1.8005645838102282,0.09155413138023505
1539131188959433,0.33569848172737693,1.6174563210497581,-0.03051804379333589
1539131188975438,0.2746623941404778,1.1902037079423735,-0.09155413138023505
1539131188991443,0.213626306553806,1.1291676203554744,-0.15259021896690683
1539131189007448,0.213626306553806,1.1902037079423735,-0.09155413138023505
1539131189023453,0.15259021896690683,1.2512397955290453,0.03051804379333589
1539131189039458,0.03051804379333589,1.1902037079423735,0.03051804379333589
1539131189055463,-0.09155413138023505,1.0070954451819034,-0.03051804379333589
1539131189071468,-0.2746623941404778,0.6408789196611906,-0.09155413138023505
1539131189087473,-0.2746623941404778,0.45777065690094787,-0.09155413138023505
1539131189103479,-0.2746623941404778,0.6408789196611906,-0.09155413138023505
1539131189119484,-0.15259021896690683,0.7629510948347615,0.03051804379333589
1539131189135489,-0.15259021896690683,0.7629510948347615,0.03051804379333589
1539131189151494,0.03051804379333589,0.6408789196611906,0.03051804379333589
1539131189167499,0.213626306553806,0.6408789196611906,-0.213626306553806
1539131189183593,0.3967345693140487,0.6408789196611906,-0.33569848172737693
1539131189199599,0.5188067444876197,0.7629510948347615,-0.33569848172737693
1539131189215604,0.7019150072480898,0.8850232700083325,-0.2746623941404778
1539131189231610,0.8239871824216607,1.1291676203554744,-0.2746623941404778
1539131189247615,0.9460593575952316,1.3733119707026162,-0.2746623941404778
1539131189263621,0.9460593575952316,1.6174563210497581,-0.33569848172737693
1539131189279626,0.8850232700083325,1.4953841458761872,-0.5188067444876197
1539131189295632,0.7629510948347615,1.3733119707026162,-0.5188067444876197
1539131189311638,0.7629510948347615,1.3733119707026162,-0.5798428320745188
1539131189327643,0.6408789196611906,1.4343480582895154,-0.5798428320745188
1539131189343649,0.5798428320745188,1.3733119707026162,-0.5798428320745188
1539131189359654,0.3967345693140487,1.3122758831159445,-0.5188067444876197
1539131189375660,0.213626306553806,1.3733119707026162,-0.5188067444876197
1539131189391665,-0.03051804379333589,1.3733119707026162,-0.3967345693140487
1539131189407671,-0.2746623941404778,1.3122758831159445,-0.33569848172737693
1539131189423676,-0.5798428320745188,1.1291676203554744,-0.33569848172737693
1539131189439682,-0.6408789196611906,1.0070954451819034,-0.33569848172737693
1539131189455687,-0.7019150072480898,1.0681315327688026,-0.3967345693140487
1539131189471693,-0.7629510948347615,1.1902037079423735,-0.45777065690094787
1539131189487698,-0.6408789196611906,1.2512397955290453,-0.5188067444876197
1539131189503753,-0.5188067444876197,1.2512397955290453,-0.5188067444876197
1539131189519759,-0.45777065690094787,1.1902037079423735,-0.5798428320745188
1539131189535764,-0.33569848172737693,1.1902037079423735,-0.5188067444876197
1539131189551770,-0.15259021896690683,1.1291676203554744,-0.5188067444876197
1539131189567775,-0.09155413138023505,1.2512397955290453,-0.3967345693140487
1539131189583781,-0.03051804379333589,1.3733119707026162,-0.213626306553806
1539131189599786,0.09155413138023505,1.4953841458761872,-0.09155413138023505
1539131189615792,0.15259021896690683,1.3122758831159445,0.03051804379333589
1539131189631797,0.213626306553806,1.1291676203554744,0.03051804379333589
1539131189647803,0.2746623941404778,0.9460593575952316,0.03051804379333589
1539131189663808,0.3967345693140487,0.8850232700083325,0.09155413138023505
1539131189679814,0.45777065690094787,0.8850232700083325,0.09155413138023505
1539131189695819,0.45777065690094787,0.9460593575952316,0.03051804379333589
1539131189711825,0.3967345693140487,1.0070954451819034,0.03051804379333589
1539131189727831,0.33569848172737693,1.1291676203554744,-0.09155413138023505
1539131189743836,0.15259021896690683,1.1902037079423735,-0.15259021896690683
1539131189759842,0.03051804379333589,1.1291676203554744,-0.213626306553806
1539131189775847,-0.09155413138023505,1.0681315327688026,-0.2746623941404778
1539131189791853,-0.213626306553806,1.0681315327688026,-0.3967345693140487
1539131189807858,-0.2746623941404778,0.9460593575952316,-0.5798428320745188
1539131189823913,-0.33569848172737693,0.8850232700083325,-0.6408789196611906
1539131189839919,-0.45777065690094787,0.8239871824216607,-0.7019150072480898
1539131189855925,-0.45777065690094787,0.7019150072480898,-0.7019150072480898
1539131189871931,-0.45777065690094787,0.7629510948347615,-0.7629510948347615
1539131189887937,-0.33569848172737693,1.0070954451819034,-0.7019150072480898
1539131189903943,-0.15259021896690683,1.2512397955290453,-0.6408789196611906
1539131189919949,-0.03051804379333589,1.4343480582895154,-0.6408789196611906
1539131189935955,0.09155413138023505,1.5564202334630863,-0.6408789196611906
1539131189951961,0.213626306553806,1.4343480582895154,-0.6408789196611906
1539131189967967,0.2746623941404778,1.1902037079423735,-0.7019150072480898
1539131189983973,0.45777065690094787,1.0681315327688026,-0.5798428320745188
1539131189999979,0.3967345693140487,1.0070954451819034,-0.45777065690094787
1539131190015985,0.45777065690094787,1.0070954451819034,-0.2746623941404778
1539131190031991,0.33569848172737693,1.0681315327688026,-0.09155413138023505
1539131190047997,0.15259021896690683,1.0681315327688026,0.09155413138023505
1539131190064003,0.09155413138023505,1.1902037079423735,0.213626306553806
1539131190080009,-0.09155413138023505,1.2512397955290453,0.2746623941404778
1539131190096015,-0.33569848172737693,1.3733119707026162,0.2746623941404778
1539131190112021,-0.45777065690094787,1.3122758831159445,0.213626306553806
1539131190128027,-0.3967345693140487,1.2512397955290453,0.15259021896690683
1539131190144104,-0.2746623941404778,1.1902037079423735,0.09155413138023505
1539131190160110,-0.09155413138023505,1.0681315327688026,0.03051804379333589
1539131190176116,-0.03051804379333589,0.8850232700083325,-0.09155413138023505
1539131190192122,0.03051804379333589,0.8239871824216607,-0.213626306553806
1539131190208128,-0.03051804379333589,0.7629510948347615,-0.2746623941404778
1539131190224134,-0.15259021896690683,0.7629510948347615,-0.5798428320745188
1539131190240140,-0.213626306553806,0.8239871824216607,-0.8850232700083325
1539131190256146,-0.2746623941404778,1.0070954451819034,-1.0681315327688026
1539131190272152,-0.2746623941404778,1.3122758831159445,-1.2512397955290453
1539131190288158,-0.15259021896690683,1.6784924086366573,-1.2512397955290453
1539131190304164,-0.03051804379333589,1.8005645838102282,-1.3122758831159445
1539131190320170,0.09155413138023505,1.6174563210497581,-1.3122758831159445
1539131190336176,0.213626306553806,1.3122758831159445,-1.1902037079423735
1539131190352182,0.33569848172737693,1.1291676203554744,-0.9460593575952316
1539131190368188,0.2746623941404778,1.0681315327688026,-0.7019150072480898
1539131190384194,0.33569848172737693,1.1291676203554744,-0.33569848172737693
1539131190400200,0.33569848172737693,1.2512397955290453,-0.03051804379333589
1539131190416206,0.3967345693140487,1.1902037079423735,0.2746623941404778
1539131190432212,0.45777065690094787,1.1902037079423735,0.45777065690094787
1539131190448217,0.5798428320745188,1.3733119707026162,0.45777065690094787
1539131190464294,0.7019150072480898,1.4343480582895154,0.33569848172737693
1539131190480301,0.6408789196611906,1.3122758831159445,0.213626306553806
1539131190496307,0.6408789196611906,1.1291676203554744,0.03051804379333589
1539131190512313,0.5798428320745188,0.9460593575952316,-0.15259021896690683
1539131190528320,0.33569848172737693,0.7629510948347615,-0.2746623941404778
1539131190544326,0.15259021896690683,0.8850232700083325,-0.2746623941404778
1539131190560333,-0.09155413138023505,1.1291676203554744,-0.213626306553806
1539131190576339,-0.2746623941404778,1.1902037079423735,-0.213626306553806
1539131190592346,-0.33569848172737693,1.1902037079423735,-0.213626306553806
1539131190608352,-0.5188067444876197,1.1291676203554744,-0.2746623941404778
1539131190624359,-0.5798428320745188,1.1902037079423735,-0.45777065690094787
1539131190640365,-0.5798428320745188,1.1902037079423735,-0.6408789196611906
1539131190656372,-0.5188067444876197,1.1902037079423735,-0.8239871824216607
1539131190672378,-0.3967345693140487,1.0681315327688026,-0.9460593575952316
1539131190688385,-0.15259021896690683,1.0681315327688026,-1.0070954451819034
1539131190704391,-0.03051804379333589,1.1291676203554744,-0.8850232700083325
1539131190720398,0.09155413138023505,1.3122758831159445,-0.7019150072480898
1539131190736404,0.15259021896690683,1.4343480582895154,-0.5798428320745188
1539131190752411,0.2746623941404778,1.4953841458761872,-0.5188067444876197
1539131190768417,0.33569848172737693,1.4343480582895154,-0.45777065690094787
1539131190784484,0.5188067444876197,1.3122758831159445,-0.33569848172737693
1539131190800491,0.6408789196611906,1.3122758831159445,-0.2746623941404778
1539131190816497,0.7629510948347615,1.3122758831159445,-0.15259021896690683
1539131190832504,0.8850232700083325,1.3733119707026162,-0.03051804379333589
1539131190848510,0.9460593575952316,1.1902037079423735,0.09155413138023505
1539131190864517,0.8239871824216607,0.9460593575952316,0.09155413138023505
1539131190880523,0.6408789196611906,0.9460593575952316,0.09155413138023505
1539131190896530,0.5188067444876197,1.0070954451819034,0.09155413138023505
1539131190912536,0.3967345693140487,1.2512397955290453,0.03051804379333589
1539131190928543,0.2746623941404778,1.5564202334630863,0.03051804379333589
1539131190944549,0.213626306553806,1.739528496223329,-0.03051804379333589
1539131190960556,0.213626306553806,1.6784924086366573,-0.2746623941404778
1539131190976562,0.213626306553806,1.4953841458761872,-0.5188067444876197
1539131190992569,0.213626306553806,1.1902037079423735,-0.7019150072480898
1539131191008575,0.09155413138023505,0.8850232700083325,-0.7629510948347615
1539131191024582,-0.03051804379333589,0.7629510948347615,-0.8239871824216607
1539131191040588,-0.213626306553806,0.7019150072480898,-0.7629510948347615
1539131191056594,-0.3967345693140487,0.7629510948347615,-0.7019150072480898
1539131191072601,-0.5798428320745188,0.8239871824216607,-0.7019150072480898
1539131191088607,-0.6408789196611906,1.0070954451819034,-0.7629510948347615
1539131191104644,-0.5798428320745188,1.2512397955290453,-0.7629510948347615
1539131191120651,-0.5188067444876197,1.3733119707026162,-0.7629510948347615
1539131191136658,-0.33569848172737693,1.3733119707026162,-0.7629510948347615
1539131191152665,-0.15259021896690683,1.3733119707026162,-0.7019150072480898
1539131191168672,-0.03051804379333589,1.2512397955290453,-0.7019150072480898
1539131191184679,0.03051804379333589,1.2512397955290453,-0.5798428320745188
1539131191200686,0.09155413138023505,1.1902037079423735,-0.45777065690094787
1539131191216693,0.09155413138023505,1.1902037079423735,-0.33569848172737693
1539131191232700,0.09155413138023505,1.1902037079423735,-0.09155413138023505
1539131191248707,0.15259021896690683,1.1902037079423735,0.15259021896690683
1539131191264714,0.15259021896690683,1.1902037079423735,0.33569848172737693
1539131191280721,0.213626306553806,1.0681315327688026,0.45777065690094787
1539131191296728,0.2746623941404778,0.9460593575952316,0.5188067444876197
1539131191312735,0.33569848172737693,0.8850232700083325,0.5188067444876197
1539131191328742,0.3967345693140487,0.7629510948347615,0.45777065690094787
1539131191344749,0.33569848172737693,0.7629510948347615,0.33569848172737693
1539131191360756,0.33569848172737693,0.8239871824216607,0.15259021896690683
1539131191376762,0.2746623941404778,0.8850232700083325,0.03051804379333589
1539131191392769,0.15259021896690683,1.0070954451819034,-0.09155413138023505
1539131191408776,0.03051804379333589,1.2512397955290453,-0.213626306553806
1539131191424835,-0.09155413138023505,1.3733119707026162,-0.45777065690094787
1539131191440842,-0.15259021896690683,1.3733119707026162,-0.5798428320745188
1539131191456849,-0.2746623941404778,1.3122758831159445,-0.6408789196611906
1539131191472856,-0.3967345693140487,1.1902037079423735,-0.7629510948347615
1539131191488863,-0.3967345693140487,1.1902037079423735,-0.8239871824216607
1539131191504870,-0.45777065690094787,1.1291676203554744,-0.9460593575952316
1539131191520877,-0.45777065690094787,1.0070954451819034,-0.8850232700083325
1539131191536883,-0.3967345693140487,1.0681315327688026,-0.8239871824216607
1539131191552890,-0.33569848172737693,1.1291676203554744,-0.8239871824216607
1539131191568897,-0.2746623941404778,1.3122758831159445,-0.6408789196611906
1539131191584904,-0.09155413138023505,1.3733119707026162,-0.6408789196611906
1539131191600911,0.03051804379333589,1.3733119707026162,-0.5188067444876197
1539131191616918,0.213626306553806,1.2512397955290453,-0.3967345693140487
1539131191632925,0.33569848172737693,1.1291676203554744,-0.2746623941404778
1539131191648932,0.3967345693140487,1.1291676203554744,-0.213626306553806
1539131191664939,0.3967345693140487,1.0681315327688026,-0.213626306553806
1539131191680946,0.45777065690094787,1.0070954451819034,-0.15259021896690683
1539131191696953,0.45777065690094787,0.9460593575952316,-0.09155413138023505
1539131191712960,0.45777065690094787,0.9460593575952316,-0.09155413138023505
1539131191728967,0.45777065690094787,1.0681315327688026,-0.03051804379333589
1539131191745025,0.3967345693140487,1.1291676203554744,-0.03051804379333589
1539131191761032,0.33569848172737693,1.1902037079423735,-0.15259021896690683
1539131191777039,0.33569848172737693,1.3122758831159445,-0.33569848172737693
1539131191793046,0.3967345693140487,1.3733119707026162,-0.5188067444876197
1539131191809053,0.3967345693140487,1.2512397955290453,-0.5188067444876197
1539131191825060,0.5188067444876197,1.1902037079423735,-0.5188067444876197
1539131191841067,0.5188067444876197,1.2512397955290453,-0.5188067444876197
1539131191857074,0.3967345693140487,1.2512397955290453,-0.45777065690094787
1539131191873081,0.213626306553806,1.0681315327688026,-0.2746623941404778
1539131191889088,-0.03051804379333589,0.9460593575952316,-0.2746623941404778
1539131191905095,-0.33569848172737693,0.8239871824216607,-0.33569848172737693
1539131191921102,-0.5798428320745188,0.8850232700083325,-0.3967345693140487
1539131191937109,-0.6408789196611906,1.0070954451819034,-0.5188067444876197
1539131191953116,-0.6408789196611906,1.2512397955290453,-0.7019150072480898
1539131191969123,-0.5188067444876197,1.4953841458761872,-0.8239871824216607
1539131191985129,-0.33569848172737693,1.4343480582895154,-0.8850232700083325
1539131192001136,-0.213626306553806,1.3733119707026162,-0.9460593575952316
1539131192017143,-0.15259021896690683,1.1902037079423735,-0.9460593575952316
1539131192033150,-0.03051804379333589,1.1291676203554744,-0.8850232700083325
1539131192049157,-0.03051804379333589,1.1902037079423735,-0.7019150072480898
1539131192065185,0.03051804379333589,1.3122758831159445,-0.45777065690094787
1539131192081193,0.15259021896690683,1.4343480582895154,-0.15259021896690683
1539131192097200,0.213626306553806,1.3733119707026162,0.09155413138023505
1539131192113207,0.33569848172737693,1.3733119707026162,0.2746623941404778
1539131192129215,0.45777065690094787,1.3122758831159445,0.33569848172737693
1539131192145222,0.5798428320745188,1.1291676203554744,0.2746623941404778
1539131192161230,0.6408789196611906,1.0070954451819034,0.15259021896690683
1539131192177237,0.7019150072480898,0.9460593575952316,0.03051804379333589
1539131192193245,0.6408789196611906,1.0681315327688026,-0.03051804379333589
1539131192209252,0.6408789196611906,1.3122758831159445,-0.09155413138023505
1539131192225259,0.5188067444876197,1.4953841458761872,-0.09155413138023505
1539131192241267,0.3967345693140487,1.5564202334630863,-0.15259021896690683
1539131192257274,0.2746623941404778,1.5564202334630863,-0.213626306553806
1539131192273282,0.15259021896690683,1.3733119707026162,-0.3967345693140487
1539131192289289,0.03051804379333589,1.1291676203554744,-0.5188067444876197
1539131192305297,-0.213626306553806,1.0070954451819034,-0.7629510948347615
1539131192321304,-0.33569848172737693,0.8850232700083325,-0.9460593575952316
1539131192337311,-0.33569848172737693,0.7019150072480898,-0.9460593575952316
1539131192353319,-0.33569848172737693,0.5798428320745188,-0.8850232700083325
1539131192369326,-0.33569848172737693,0.7019150072480898,-0.7629510948347615
1539131192385345,-0.2746623941404778,0.8850232700083325,-0.5798428320745188
1539131192401353,-0.213626306553806,1.0681315327688026,-0.45777065690094787
1539131192417360,-0.15259021896690683,1.1291676203554744,-0.3967345693140487
1539131192433367,-0.09155413138023505,1.1291676203554744,-0.33569848172737693
1539131192449375,-0.03051804379333589,1.1902037079423735,-0.2746623941404778
1539131192465382,-0.03051804379333589,1.1902037079423735,-0.213626306553806
1539131192481390,-0.03051804379333589,1.1291676203554744,-0.09155413138023505
1539131192497397,0.03051804379333589,1.1902037079423735,-0.03051804379333589
1539131192513404,0.03051804379333589,1.1902037079423735,-0.03051804379333589
1539131192529412,0.03051804379333589,1.1291676203554744,0.03051804379333589
1539131192545419,0.15259021896690683,1.1291676203554744,-0.03051804379333589
1539131192561427,0.213626306553806,1.1291676203554744,-0.03051804379333589
1539131192577434,0.2746623941404778,1.2512397955290453,0.03051804379333589
1539131192593442,0.3967345693140487,1.2512397955290453,-0.03051804379333589
1539131192609449,0.45777065690094787,1.1291676203554744,-0.09155413138023505
1539131192625456,0.3967345693140487,0.9460593575952316,-0.15259021896690683
1539131192641464,0.33569848172737693,0.8239871824216607,-0.213626306553806
1539131192657471,0.15259021896690683,0.7629510948347615,-0.33569848172737693
1539131192673479,0.03051804379333589,0.8239871824216607,-0.45777065690094787
1539131192689486,-0.09155413138023505,0.9460593575952316,-0.5798428320745188
1539131192705536,-0.09155413138023505,1.1291676203554744,-0.6408789196611906
1539131192721543,-0.09155413138023505,1.2512397955290453,-0.6408789196611906
1539131192737550,-0.09155413138023505,1.3122758831159445,-0.7019150072480898
1539131192753558,-0.09155413138023505,1.2512397955290453,-0.6408789196611906
1539131192769565,-0.15259021896690683,1.1902037079423735,-0.7019150072480898
1539131192785573,-0.15259021896690683,1.0070954451819034,-0.7019150072480898
1539131192801580,-0.15259021896690683,0.9460593575952316,-0.7019150072480898
1539131192817587,-0.15259021896690683,1.0070954451819034,-0.6408789196611906
1539131192833595,-0.09155413138023505,1.0070954451819034,-0.45777065690094787
1539131192849602,0.03051804379333589,1.1291676203554744,-0.33569848172737693
1539131192865610,0.09155413138023505,1.1902037079423735,-0.213626306553806
1539131192881617,0.2746623941404778,1.1291676203554744,-0.09155413138023505
1539131192897625,0.3967345693140487,1.1291676203554744,-0.03051804379333589
1539131192913632,0.5188067444876197,1.1902037079423735,-0.03051804379333589
1539131192929639,0.5188067444876197,1.1902037079423735,-0.03051804379333589
1539131192945647,0.6408789196611906,1.3122758831159445,-0.09155413138023505
1539131192961654,0.6408789196611906,1.4343480582895154,-0.15259021896690683
1539131192977662,0.5798428320745188,1.4953841458761872,-0.15259021896690683
1539131192993669,0.5188067444876197,1.3733119707026162,-0.213626306553806
1539131193009677,0.3967345693140487,1.3733119707026162,-0.33569848172737693
1539131193025726,0.2746623941404778,1.4343480582895154,-0.3967345693140487
1539131193041734,0.09155413138023505,1.3122758831159445,-0.33569848172737693
1539131193057742,-0.09155413138023505,1.0681315327688026,-0.33569848172737693
1539131193073750,-0.213626306553806,0.7629510948347615,-0.2746623941404778
1539131193089758,-0.213626306553806,0.6408789196611906,-0.213626306553806
1539131193105765,-0.15259021896690683,0.8239871824216607,-0.09155413138023505
1539131193121773,-0.09155413138023505,1.1291676203554744,-0.09155413138023505
1539131193137781,0.03051804379333589,1.4343480582895154,-0.15259021896690683
1539131193153789,0.09155413138023505,1.6784924086366573,-0.33569848172737693
1539131193169797,0.213626306553806,1.6784924086366573,-0.5798428320745188
1539131193185805,0.2746623941404778,1.3122758831159445,-0.8239871824216607
1539131193201813,0.33569848172737693,1.2512397955290453,-0.9460593575952316
1539131193217821,0.33569848172737693,1.3122758831159445,-1.0070954451819034
1539131193233829,0.33569848172737693,1.4343480582895154,-0.9460593575952316
1539131193249837,0.3967345693140487,1.4953841458761872,-0.8239871824216607
1539131193265844,0.3967345693140487,1.4953841458761872,-0.7019150072480898
1539131193281852,0.3967345693140487,1.4343480582895154,-0.6408789196611906
1539131193297860,0.33569848172737693,1.3122758831159445,-0.45777065690094787
1539131193313868,0.45777065690094787,1.0681315327688026,-0.2746623941404778
1539131193329876,0.5188067444876197,0.8850232700083325,-0.15259021896690683
1539131193345916,0.5188067444876197,0.8239871824216607,0.03051804379333589
1539131193361924,0.5188067444876197,0.8850232700083325,0.03051804379333589
1539131193377932,0.5188067444876197,0.9460593575952316,0.03051804379333589
1539131193393940,0.33569848172737693,1.0681315327688026,-0.03051804379333589
1539131193409948,0.213626306553806,1.0681315327688026,-0.09155413138023505
1539131193425956,0.03051804379333589,1.0070954451819034,-0.213626306553806
1539131193441964,-0.09155413138023505,1.1291676203554744,-0.33569848172737693
1539131193457972,-0.2746623941404778,1.1291676203554744,-0.3967345693140487
1539131193473980,-0.2746623941404778,1.0070954451819034,-0.5798428320745188
1539131193489987,-0.33569848172737693,0.8850232700083325,-0.7019150072480898
1539131193505995,-0.33569848172737693,0.8239871824216607,-0.8239871824216607
1539131193522003,-0.3967345693140487,0.8239871824216607,-0.8850232700083325
1539131193538011,-0.45777065690094787,0.8239871824216607,-0.8850232700083325
1539131193554019,-0.33569848172737693,0.8239871824216607,-0.6408789196611906
1539131193570027,-0.33569848172737693,0.8850232700083325,-0.5188067444876197
1539131193586035,-0.15259021896690683,1.1291676203554744,-0.2746623941404778
1539131193602043,0.03051804379333589,1.3122758831159445,-0.15259021896690683
1539131193618051,0.213626306553806,1.4953841458761872,-0.03051804379333589
1539131193634059,0.2746623941404778,1.5564202334630863,-0.03051804379333589
1539131193650066,0.3967345693140487,1.5564202334630863,0.03051804379333589
1539131193666076,0.5188067444876197,1.6174563210497581,-0.03051804379333589
1539131193682084,0.5798428320745188,1.8005645838102282,-0.09155413138023505
1539131193698092,0.7019150072480898,2.04470893415737,-0.03051804379333589
1539131193714100,0.7019150072480898,2.166781109330941,-0.09155413138023505
1539131193730108,0.6408789196611906,2.166781109330941,-0.15259021896690683
1539131193746116,0.6408789196611906,1.983672846570471,-0.2746623941404778
1539131193762124,0.5188067444876197,1.6784924086366573,-0.3967345693140487
1539131193778132,0.45777065690094787,1.1902037079423735,-0.33569848172737693
1539131193794139,0.3967345693140487,0.8850232700083325,-0.33569848172737693
1539131193810147,0.213626306553806,0.7019150072480898,-0.213626306553806
1539131193826155,-0.03051804379333589,0.5188067444876197,-0.15259021896690683
1539131193842163,-0.15259021896690683,0.33569848172737693,-0.15259021896690683
1539131193858171,-0.2746623941404778,0.33569848172737693,-0.15259021896690683
1539131193874179,-0.3967345693140487,0.45777065690094787,-0.15259021896690683
1539131193890187,-0.33569848172737693,0.7629510948347615,-0.213626306553806
1539131193906195,-0.213626306553806,1.0070954451819034,-0.213626306553806
1539131193922203,-0.15259021896690683,1.1902037079423735,-0.2746623941404778
1539131193938211,0.03051804379333589,1.1902037079423735,-0.3967345693140487
1539131193954218,0.09155413138023505,1.0681315327688026,-0.5188067444876197
1539131193970226,0.2746623941404778,0.9460593575952316,-0.5798428320745188
1539131193986267,0.15259021896690683,0.9460593575952316,-0.5798428320745188
1539131194002275,0.03051804379333589,1.0681315327688026,-0.5798428320745188
1539131194018283,-0.03051804379333589,1.3733119707026162,-0.6408789196611906
1539131194034290,-0.03051804379333589,1.4343480582895154,-0.6408789196611906
1539131194050298,-0.03051804379333589,1.3733119707026162,-0.45777065690094787
1539131194066306,0.03051804379333589,1.3122758831159445,-0.45777065690094787
1539131194082314,0.03051804379333589,1.0681315327688026,-0.33569848172737693
1539131194098322,0.15259021896690683,0.8239871824216607,-0.213626306553806
1539131194114330,0.09155413138023505,0.7629510948347615,-0.03051804379333589
1539131194130338,0.15259021896690683,0.6408789196611906,0.09155413138023505
1539131194146346,0.09155413138023505,0.6408789196611906,0.15259021896690683
1539131194162354,-0.09155413138023505,0.7629510948347615,-0.03051804379333589
1539131194178362,-0.15259021896690683,1.0070954451819034,-0.09155413138023505
1539131194194369,-0.15259021896690683,1.4343480582895154,-0.33569848172737693
1539131194210377,-0.213626306553806,1.739528496223329,-0.45777065690094787
1539131194226385,-0.09155413138023505,1.8005645838102282,-0.5798428320745188
1539131194242393,-0.09155413138023505,1.5564202334630863,-0.7019150072480898
1539131194258401,-0.09155413138023505,1.1902037079423735,-0.8239871824216607
1539131194274409,-0.09155413138023505,0.9460593575952316,-0.8850232700083325
1539131194290417,-0.15259021896690683,1.0070954451819034,-0.7019150072480898
1539131194306457,-0.213626306553806,1.0681315327688026,-0.3967345693140487
1539131194322465,-0.213626306553806,1.1291676203554744,-0.15259021896690683
1539131194338473,-0.15259021896690683,1.1902037079423735,0.09155413138023505
1539131194354481,-0.03051804379333589,1.3733119707026162,0.213626306553806
1539131194370489,0.09155413138023505,1.4953841458761872,0.2746623941404778
1539131194386497,0.213626306553806,1.5564202334630863,0.213626306553806
1539131194402505,0.33569848172737693,1.3733119707026162,-0.03051804379333589
1539131194418512,0.45777065690094787,1.1291676203554744,-0.2746623941404778
1539131194434520,0.5188067444876197,0.8850232700083325,-0.45777065690094787
1539131194450528,0.5188067444876197,0.8239871824216607,-0.45777065690094787
1539131194466536,0.45777065690094787,1.0070954451819034,-0.3967345693140487
1539131194482544,0.33569848172737693,1.1902037079423735,-0.33569848172737693
1539131194498552,0.09155413138023505,1.3733119707026162,-0.33569848172737693
1539131194514560,-0.03051804379333589,1.4953841458761872,-0.2746623941404778
1539131194530568,-0.213626306553806,1.3122758831159445,-0.3967345693140487
1539131194546576,-0.33569848172737693,1.1291676203554744,-0.45777065690094787
1539131194562584,-0.45777065690094787,0.8850232700083325,-0.5798428320745188
1539131194578591,-0.3967345693140487,0.7629510948347615,-0.6408789196611906
1539131194594599,-0.2746623941404778,0.7019150072480898,-0.7019150072480898
1539131194610607,-0.213626306553806,0.7019150072480898,-0.7019150072480898
1539131194626648,-0.213626306553806,0.9460593575952316,-0.6408789196611906
1539131194642656,-0.09155413138023505,1.1291676203554744,-0.6408789196611906
1539131194658664,-0.03051804379333589,1.1291676203554744,-0.5798428320745188
1539131194674673,0.09155413138023505,1.1902037079423735,-0.5188067444876197
1539131194690681,0.15259021896690683,1.3122758831159445,-0.45777065690094787
1539131194706689,0.2746623941404778,1.3733119707026162,-0.2746623941404778
1539131194722698,0.33569848172737693,1.1902037079423735,-0.213626306553806
1539131194738706,0.33569848172737693,1.0681315327688026,-0.15259021896690683
1539131194754715,0.33569848172737693,1.0070954451819034,-0.15259021896690683
1539131194770723,0.2746623941404778,1.0070954451819034,-0.213626306553806
1539131194786731,0.2746623941404778,1.1291676203554744,-0.15259021896690683
1539131194802740,0.15259021896690683,1.1291676203554744,-0.09155413138023505
1539131194818748,0.03051804379333589,1.2512397955290453,-0.15259021896690683
1539131194834756,-0.03051804379333589,1.3122758831159445,-0.213626306553806
1539131194850765,-0.03051804379333589,1.3122758831159445,-0.2746623941404778
1539131194866773,-0.03051804379333589,1.2512397955290453,-0.33569848172737693
1539131194882782,0.09155413138023505,1.1902037079423735,-0.3967345693140487
1539131194898790,0.09155413138023505,1.1291676203554744,-0.3967345693140487
1539131194914798,0.15259021896690683,1.3122758831159445,-0.33569848172737693
1539131194930807,0.03051804379333589,1.3733119707026162,-0.2746623941404778
1539131194946838,-0.09155413138023505,1.2512397955290453,-0.33569848172737693
1539131194962846,-0.2746623941404778,1.0070954451819034,-0.3967345693140487
1539131194978855,-0.45777065690094787,0.9460593575952316,-0.45777065690094787
1539131194994863,-0.6408789196611906,0.9460593575952316,-0.5798428320745188
1539131195010872,-0.5798428320745188,1.0681315327688026,-0.6408789196611906
1539131195026880,-0.5188067444876197,1.2512397955290453,-0.5798428320745188
1539131195042888,-0.45777065690094787,1.1902037079423735,-0.5798428320745188
1539131195058897,-0.3967345693140487,1.1291676203554744,-0.6408789196611906
1539131195074905,-0.2746623941404778,0.8850232700083325,-0.7019150072480898
1539131195090913,-0.213626306553806,0.8850232700083325,-0.6408789196611906
1539131195106922,-0.09155413138023505,1.0070954451819034,-0.5188067444876197
1539131195122930,0.09155413138023505,1.1291676203554744,-0.45777065690094787
1539131195138939,0.213626306553806,1.3122758831159445,-0.2746623941404778
1539131195154947,0.3967345693140487,1.3733119707026162,-0.09155413138023505
1539131195170955,0.5188067444876197,1.4343480582895154,-0.09155413138023505
1539131195186964,0.5188067444876197,1.3733119707026162,-0.09155413138023505
1539131195202972,0.5798428320745188,1.3733119707026162,-0.15259021896690683
1539131195218980,0.5798428320745188,1.3733119707026162,-0.213626306553806
1539131195234989,0.5798428320745188,1.4953841458761872,-0.33569848172737693
1539131195250997,0.5188067444876197,1.6784924086366573,-0.33569848172737693
1539131195266967,0.45777065690094787,1.8005645838102282,-0.213626306553806
1539131195282976,0.3967345693140487,1.739528496223329,-0.09155413138023505
1539131195298984,0.2746623941404778,1.4953841458761872,-0.03051804379333589
1539131195314993,0.09155413138023505,1.1291676203554744,0.09155413138023505
1539131195331001,-0.09155413138023505,0.7629510948347615,0.15259021896690683
1539131195347009,-0.15259021896690683,0.6408789196611906,0.15259021896690683
1539131195363018,-0.213626306553806,0.7629510948347615,0.09155413138023505
1539131195379026,-0.09155413138023505,0.9460593575952316,0.03051804379333589
1539131195395034,-0.03051804379333589,1.1902037079423735,-0.09155413138023505
1539131195411043,0.09155413138023505,1.3733119707026162,-0.33569848172737693
1539131195427051,0.213626306553806,1.4953841458761872,-0.6408789196611906
1539131195443060,0.3967345693140487,1.6784924086366573,-0.9460593575952316
1539131195459068,0.5188067444876197,1.6784924086366573,-1.3122758831159445
1539131195475076,0.6408789196611906,1.3122758831159445,-1.5564202334630863
1539131195491085,0.8239871824216607,0.9460593575952316,-1.6174563210497581
1539131195507093,1.1291676203554744,0.9460593575952316,-1.5564202334630863
1539131195523101,1.2512397955290453,1.3122758831159445,-1.2512397955290453
1539131195539110,1.3122758831159445,1.8616006713969,-0.8850232700083325
1539131195555118,1.3733119707026162,2.227817196917613,-0.6408789196611906
1539131195571127,1.3122758831159445,2.3498893720911838,-0.45777065690094787
1539131195587158,1.1291676203554744,2.288853284504512,-0.33569848172737693
1539131195603166,0.8850232700083325,1.9226367589837992,-0.03051804379333589
1539131195619175,0.5188067444876197,1.3122758831159445,0.33569848172737693
1539131195635183,0.213626306553806,0.5188067444876197,0.7019150072480898
1539131195651191,-0.09155413138023505,-0.15259021896690683,1.0070954451819034
1539131195667200,-0.45777065690094787,-0.2746623941404778,1.1902037079423735
1539131195683208,-0.7629510948347615,0.03051804379333589,1.0681315327688026
1539131195699216,-0.9460593575952316,0.45777065690094787,0.7629510948347615
1539131195715225,-1.0070954451819034,0.6408789196611906,0.15259021896690683
1539131195731233,-0.9460593575952316,0.33569848172737693,-0.45777065690094787
1539131195747242,-0.7019150072480898,0.15259021896690683,-1.0070954451819034
1539131195763250,-0.3967345693140487,0.213626306553806,-1.2512397955290453
1539131195779258,-0.09155413138023505,0.5188067444876197,-1.4343480582895154
1539131195795267,0.15259021896690683,1.0681315327688026,-1.4953841458761872
1539131195811275,0.15259021896690683,1.4953841458761872,-1.5564202334630863
1539131195827283,0.03051804379333589,1.6784924086366573,-1.4953841458761872
1539131195843292,-0.09155413138023505,1.739528496223329,-1.3733119707026162
1539131195859300,-0.2746623941404778,1.8005645838102282,-1.2512397955290453
1539131195875309,-0.33569848172737693,1.8005645838102282,-1.0070954451819034
1539131195891317,-0.33569848172737693,1.739528496223329,-0.6408789196611906
1539131195907348,-0.33569848172737693,1.3733119707026162,-0.3967345693140487
1539131195923357,-0.213626306553806,1.0070954451819034,-0.33569848172737693
1539131195939365,-0.09155413138023505,0.8239871824216607,-0.2746623941404778
1539131195955373,0.03051804379333589,0.7629510948347615,-0.09155413138023505
1539131195971382,0.15259021896690683,0.7019150072480898,0.03051804379333589
1539131195987390,0.33569848172737693,0.6408789196611906,0.2746623941404778
1539131196003399,0.45777065690094787,0.7629510948347615,0.33569848172737693
1539131196019407,0.5188067444876197,1.0070954451819034,0.33569848172737693
1539131196035415,0.5798428320745188,1.4953841458761872,0.33569848172737693
1539131196051424,0.6408789196611906,1.6174563210497581,0.2746623941404778
1539131196067432,0.7019150072480898,1.4343480582895154,0.15259021896690683
1539131196083440,0.7629510948347615,1.3122758831159445,-0.03051804379333589
1539131196099449,0.6408789196611906,1.0681315327688026,-0.33569848172737693
1539131196115457,0.6408789196611906,0.8850232700083325,-0.5798428320745188
1539131196131466,0.7019150072480898,0.8239871824216607,-0.7629510948347615
1539131196147474,0.6408789196611906,0.7629510948347615,-0.7629510948347615
1539131196163482,0.3967345693140487,0.8850232700083325,-0.7629510948347615
1539131196179491,0.213626306553806,1.0681315327688026,-0.7019150072480898
1539131196195499,0.09155413138023505,1.1902037079423735,-0.5798428320745188
1539131196211507,-0.15259021896690683,1.2512397955290453,-0.6408789196611906
1539131196227539,-0.33569848172737693,1.1291676203554744,-0.6408789196611906
1539131196243547,-0.3967345693140487,1.0070954451819034,-0.7019150072480898
1539131196259555,-0.45777065690094787,0.8850232700083325,-0.6408789196611906
1539131196275564,-0.45777065690094787,0.9460593575952316,-0.7019150072480898
1539131196291572,-0.45777065690094787,1.1902037079423735,-0.7019150072480898
1539131196307581,-0.3967345693140487,1.2512397955290453,-0.5188067444876197
1539131196323589,-0.2746623941404778,1.3122758831159445,-0.33569848172737693
1539131196339597,-0.213626306553806,1.4343480582895154,-0.15259021896690683
1539131196355606,-0.15259021896690683,1.4953841458761872,0.03051804379333589
1539131196371614,-0.09155413138023505,1.6174563210497581,0.15259021896690683
1539131196387622,-0.09155413138023505,1.5564202334630863,0.213626306553806
1539131196403631,-0.09155413138023505,1.4343480582895154,0.15259021896690683
1539131196419639,0.03051804379333589,1.4343480582895154,0.09155413138023505
1539131196435648,0.15259021896690683,1.3733119707026162,0.03051804379333589
1539131196451656,0.2746623941404778,1.3733119707026162,-0.09155413138023505
1539131196467664,0.5188067444876197,1.3122758831159445,-0.15259021896690683
1539131196483673,0.6408789196611906,1.2512397955290453,-0.2746623941404778
1539131196499681,0.7629510948347615,1.2512397955290453,-0.15259021896690683
1539131196515689,0.7629510948347615,1.1291676203554744,-0.15259021896690683
1539131196531698,-0.7629510948347615,1.983672846570471,-0.3967345693140487
1539131196547699,1.5564202334630863,-10.467689021133765,-6.439307240405924
1539131196563707,0.7019150072480898,19.073777370870403,2.04470893415737
1539131196579715,0.5798428320745188,-9.918364232852582,-1.6784924086366573
1539131196595724,3.2043945983061803,-1.1902037079423735,1.8616006713969
1539131196611732,1.1902037079423735,7.049668116273779,2.8381780727854675
1539131196627740,0.15259021896690683,4.364080262455218,1.8005645838102282
1539131196643749,-0.6408789196611906,-1.2512397955290453,1.8005645838102282
1539131196659757,-1.4953841458761872,1.0070954451819034,0.6408789196611906
1539131196675766,-1.9226367589837992,-0.7629510948347615,-1.3122758831159445
1539131196691774,-1.8005645838102282,-1.3122758831159445,-1.6174563210497581
1539131196707782,-1.1291676203554744,-0.33569848172737693,-1.4953841458761872
1539131196723791,-0.15259021896690683,0.09155413138023505,-0.8850232700083325
1539131196739799,0.15259021896690683,1.8005645838102282,-0.8850232700083325
1539131196755808,-0.213626306553806,3.5095750362402214,-1.4953841458761872
1539131196771816,-0.5798428320745188,3.0212863355459376,-2.288853284504512
1539131196787824,-0.7019150072480898,0.5188067444876197,-2.7771419851987957
1539131196803833,-0.5798428320745188,-0.5798428320745188,-2.410925459678083
1539131196819841,-0.45777065690094787,0.15259021896690683,-1.5564202334630863
1539131196835849,-0.3967345693140487,2.04470893415737,-0.3967345693140487
1539131196851858,-0.2746623941404778,3.0823224231326094,0.3967345693140487
1539131196867889,-0.09155413138023505,2.227817196917613,0.7019150072480898
1539131196883897,-0.09155413138023505,0.9460593575952316,0.5798428320745188
1539131196899906,-0.15259021896690683,-0.09155413138023505,0.09155413138023505
1539131196915914,-0.09155413138023505,-0.09155413138023505,-0.15259021896690683
1539131196931923,0.09155413138023505,0.33569848172737693,-0.03051804379333589
1539131196947931,0.2746623941404778,0.7629510948347615,0.213626306553806
1539131196963939,0.45777065690094787,1.1902037079423735,0.3967345693140487
1539131196979948,0.5188067444876197,1.3733119707026162,0.3967345693140487
1539131196995956,0.5798428320745188,1.3733119707026162,0.3967345693140487
1539131197011964,0.5188067444876197,1.1902037079423735,0.09155413138023505
1539131197027973,0.33569848172737693,1.0681315327688026,-0.09155413138023505
1539131197043981,0.213626306553806,1.0681315327688026,-0.213626306553806
1539131197059990,0.15259021896690683,0.9460593575952316,-0.2746623941404778
1539131197075998,0.213626306553806,1.0070954451819034,-0.15259021896690683
1539131197092006,0.213626306553806,1.1902037079423735,-0.15259021896690683
1539131197108015,0.09155413138023505,1.2512397955290453,-0.213626306553806
1539131197124023,-0.03051804379333589,1.2512397955290453,-0.3967345693140487
1539131197140031,-0.213626306553806,1.0681315327688026,-0.5798428320745188
1539131197156040,-0.2746623941404778,1.0070954451819034,-0.7629510948347615
1539131197172048,-0.2746623941404778,1.1902037079423735,-0.8239871824216607
1539131197188079,-0.213626306553806,1.3733119707026162,-0.8850232700083325
1539131197204088,-0.15259021896690683,1.4343480582895154,-0.8239871824216607
1539131197220096,-0.09155413138023505,1.3122758831159445,-0.8239871824216607
1539131197236105,0.03051804379333589,1.1902037079423735,-0.8239871824216607
1539131197252113,0.03051804379333589,1.1291676203554744,-0.7019150072480898
1539131197268121,0.03051804379333589,1.1291676203554744,-0.5798428320745188
1539131197284130,-0.03051804379333589,1.1902037079423735,-0.45777065690094787
1539131197300138,-0.09155413138023505,1.0681315327688026,-0.33569848172737693
1539131197316146,-0.213626306553806,1.0070954451819034,-0.33569848172737693
1539131197332155,-0.33569848172737693,0.9460593575952316,-0.3967345693140487
1539131197348163,-0.2746623941404778,1.0070954451819034,-0.33569848172737693
1539131197364172,-0.09155413138023505,1.1902037079423735,-0.33569848172737693
1539131197380180,0.09155413138023505,1.1902037079423735,-0.33569848172737693
1539131197396188,0.09155413138023505,1.1291676203554744,-0.33569848172737693
1539131197412197,0.213626306553806,1.0681315327688026,-0.33569848172737693
1539131197428205,0.33569848172737693,1.1902037079423735,-0.2746623941404778
1539131197444213,0.45777065690094787,1.2512397955290453,-0.2746623941404778
1539131197460222,0.3967345693140487,1.3733119707026162,-0.15259021896690683
1539131197476230,0.33569848172737693,1.3733119707026162,-0.03051804379333589
1539131197492239,0.2746623941404778,1.3733119707026162,0.03051804379333589
1539131197508270,0.2746623941404778,1.3122758831159445,0.03051804379333589
1539131197524278,0.2746623941404778,1.2512397955290453,-0.09155413138023505
1539131197540287,0.213626306553806,1.1291676203554744,-0.15259021896690683
1539131197556295,0.15259021896690683,1.1291676203554744,-0.213626306553806
1539131197572303,0.15259021896690683,1.0681315327688026,-0.213626306553806
1539131197588312,0.15259021896690683,1.0681315327688026,-0.2746623941404778
1539131197604320,0.03051804379333589,1.1291676203554744,-0.33569848172737693
1539131197620329,-0.09155413138023505,1.0070954451819034,-0.45777065690094787
1539131197636337,-0.213626306553806,1.0681315327688026,-0.5188067444876197
1539131197652345,-0.213626306553806,1.0681315327688026,-0.5798428320745188
1539131197668354,-0.2746623941404778,1.0681315327688026,-0.6408789196611906
1539131197684362,-0.33569848172737693,1.0681315327688026,-0.7019150072480898
1539131197700370,-0.33569848172737693,1.0681315327688026,-0.6408789196611906
1539131197716379,-0.33569848172737693,1.0681315327688026,-0.6408789196611906
1539131197732387,-0.213626306553806,1.0070954451819034,-0.6408789196611906
1539131197748396,-0.213626306553806,0.9460593575952316,-0.6408789196611906
1539131197764404,-0.09155413138023505,0.9460593575952316,-0.5798428320745188
1539131197780412,0.03051804379333589,1.1291676203554744,-0.5188067444876197
1539131197796421,0.15259021896690683,1.2512397955290453,-0.3967345693140487
1539131197812429,0.213626306553806,1.3733119707026162,-0.2746623941404778
1539131197828460,0.2746623941404778,1.4343480582895154,-0.213626306553806
1539131197844469,0.33569848172737693,1.3122758831159445,-0.15259021896690683
1539131197860478,0.33569848172737693,1.0681315327688026,-0.15259021896690683
1539131197876487,0.3967345693140487,1.0681315327688026,-0.15259021896690683
1539131197892496,0.45777065690094787,1.1291676203554744,-0.03051804379333589
1539131197908505,0.45777065690094787,1.1902037079423735,-0.03051804379333589
1539131197924513,0.3967345693140487,1.2512397955290453,-0.03051804379333589
1539131197940522,0.45777065690094787,1.1291676203554744,0.03051804379333589
1539131197956531,0.2746623941404778,1.0070954451819034,-0.09155413138023505
1539131197972540,0.15259021896690683,1.0070954451819034,-0.213626306553806
1539131197988549,-0.03051804379333589,1.0681315327688026,-0.33569848172737693
1539131198004558,-0.03051804379333589,1.1291676203554744,-0.45777065690094787
1539131198020567,-0.09155413138023505,1.0681315327688026,-0.45777065690094787
1539131198036575,-0.09155413138023505,1.0681315327688026,-0.5798428320745188
1539131198052584,-0.03051804379333589,1.1902037079423735,-0.5798428320745188
1539131198068593,0.03051804379333589,1.1902037079423735,-0.5188067444876197
1539131198084602,0.09155413138023505,1.2512397955290453,-0.45777065690094787
1539131198100611,0.03051804379333589,1.1902037079423735,-0.3967345693140487
1539131198116620,-0.03051804379333589,1.0681315327688026,-0.45777065690094787
1539131198132629,-0.213626306553806,0.9460593575952316,-0.5798428320745188
1539131198148620,-0.33569848172737693,0.8239871824216607,-0.6408789196611906
1539131198164629,-0.33569848172737693,0.9460593575952316,-0.7019150072480898
1539131198180637,-0.3967345693140487,1.1291676203554744,-0.7019150072480898
1539131198196645,-0.3967345693140487,1.3733119707026162,-0.7019150072480898
1539131198212654,-0.33569848172737693,1.4343480582895154,-0.7019150072480898
1539131198228662,-0.2746623941404778,1.3122758831159445,-0.6408789196611906
1539131198244670,-0.15259021896690683,1.2512397955290453,-0.5798428320745188
1539131198260679,0.03051804379333589,1.1902037079423735,-0.3967345693140487
1539131198276687,0.213626306553806,1.2512397955290453,-0.213626306553806
1539131198292696,0.3967345693140487,1.2512397955290453,-0.09155413138023505
1539131198308704,0.5188067444876197,1.1291676203554744,0.03051804379333589
1539131198324712,0.45777065690094787,1.0681315327688026,0.09155413138023505
1539131198340721,0.45777065690094787,1.0070954451819034,0.09155413138023505
1539131198356729,0.33569848172737693,1.0681315327688026,0.09155413138023505
1539131198372738,0.33569848172737693,1.1902037079423735,0.03051804379333589
1539131198388746,0.213626306553806,1.3122758831159445,-0.03051804379333589
1539131198404754,0.03051804379333589,1.2512397955290453,-0.15259021896690683
1539131198420763,0.03051804379333589,1.2512397955290453,-0.213626306553806
1539131198436771,0.03051804379333589,1.1902037079423735,-0.33569848172737693
1539131198452779,0.09155413138023505,1.1291676203554744,-0.3967345693140487
1539131198468811,0.03051804379333589,1.0681315327688026,-0.5188067444876197
1539131198484820,0.09155413138023505,1.0681315327688026,-0.5188067444876197
1539131198500828,0.09155413138023505,1.1902037079423735,-0.6408789196611906
1539131198516837,0.03051804379333589,1.1902037079423735,-0.7019150072480898
1539131198532846,0.03051804379333589,1.1902037079423735,-0.7629510948347615
1539131198548855,-0.09155413138023505,1.1291676203554744,-0.8850232700083325
1539131198564864,-0.213626306553806,1.0681315327688026,-0.9460593575952316
1539131198580873,-0.33569848172737693,1.1902037079423735,-1.0681315327688026
1539131198596881,-0.2746623941404778,1.3733119707026162,-1.0681315327688026
1539131198612890,-0.03051804379333589,1.6784924086366573,-1.0070954451819034
1539131198628899,0.2746623941404778,2.105745021744042,-0.8239871824216607
1539131198644908,0.6408789196611906,2.7161058976118966,-0.6408789196611906
1539131198660917,1.1291676203554744,3.1433585107195086,-0.5798428320745188
1539131198676926,1.5564202334630863,2.655069810025225,-0.33569848172737693
1539131198692935,1.983672846570471,1.739528496223329,-0.213626306553806
1539131198708943,2.227817196917613,1.3122758831159445,-0.15259021896690683
1539131198724952,2.166781109330941,1.0681315327688026,-0.03051804379333589
1539131198740961,1.983672846570471,0.9460593575952316,0.03051804379333589
1539131198756970,1.6784924086366573,0.8239871824216607,0.03051804379333589
1539131198772979,1.1902037079423735,0.7019150072480898,0.03051804379333589
1539131198789001,0.7019150072480898,0.3967345693140487,-0.09155413138023505
1539131198805010,0.213626306553806,0.09155413138023505,-0.09155413138023505
1539131198821019,-0.09155413138023505,0.15259021896690683,-0.03051804379333589
1539131198837028,-0.3967345693140487,0.45777065690094787,-0.09155413138023505
1539131198853037,-0.5798428320745188,0.8239871824216607,-0.213626306553806
1539131198869045,-0.6408789196611906,0.9460593575952316,-0.45777065690094787
1539131198885054,-0.5798428320745188,1.1291676203554744,-0.5798428320745188
1539131198901063,-0.3967345693140487,1.5564202334630863,-0.6408789196611906
1539131198917072,-0.15259021896690683,2.04470893415737,-0.45777065690094787
1539131198933081,0.03051804379333589,2.227817196917613,-0.2746623941404778
1539131198949090,-0.09155413138023505,2.105745021744042,-0.15259021896690683
1539131198965098,-0.2746623941404778,1.6174563210497581,-0.2746623941404778
1539131198981107,-0.6408789196611906,1.1291676203554744,-0.45777065690094787
1539131198997116,-0.9460593575952316,0.8850232700083325,-0.6408789196611906
1539131199013125,-1.0681315327688026,1.0070954451819034,-0.5798428320745188
1539131199029134,-1.0681315327688026,1.2512397955290453,-0.3967345693140487
1539131199045143,-1.0681315327688026,1.1902037079423735,-0.2746623941404778
1539131199061152,-1.0681315327688026,0.7629510948347615,-0.3967345693140487
1539131199077160,-1.1902037079423735,0.213626306553806,-0.5188067444876197
1539131199093169,-1.1902037079423735,-0.213626306553806,-0.7019150072480898
1539131199109161,-1.1902037079423735,-0.03051804379333589,-0.7629510948347615
1539131199125170,-1.1291676203554744,0.33569848172737693,-0.5798428320745188
1539131199141179,-0.8850232700083325,0.9460593575952316,-0.3967345693140487
1539131199157188,-0.5188067444876197,1.3122758831159445,-0.213626306553806
1539131199173196,-0.2746623941404778,1.4953841458761872,0.03051804379333589
1539131199189205,-0.15259021896690683,1.1902037079423735,0.03051804379333589
1539131199205214,-0.03051804379333589,0.3967345693140487,0.03051804379333589
1539131199221223,0.09155413138023505,-0.3967345693140487,-0.03051804379333589
1539131199237232,0.213626306553806,-0.5798428320745188,-0.09155413138023505
1539131199253241,0.33569848172737693,-0.09155413138023505,-0.33569848172737693
1539131199269250,0.33569848172737693,0.9460593575952316,-0.45777065690094787
1539131199285258,0.33569848172737693,1.983672846570471,-0.6408789196611906
1539131199301267,0.2746623941404778,2.5940337224383256,-0.8239871824216607
1539131199317276,0.2746623941404778,2.532997634851654,-1.0070954451819034
1539131199333285,0.33569848172737693,2.288853284504512,-1.1291676203554744
1539131199349294,0.213626306553806,1.983672846570471,-1.1291676203554744
1539131199365303,0.2746623941404778,1.8616006713969,-0.8850232700083325
1539131199381312,0.213626306553806,1.6174563210497581,-0.6408789196611906
1539131199397320,0.213626306553806,1.1291676203554744,-0.45777065690094787
1539131199413329,0.09155413138023505,0.5188067444876197,-0.45777065690094787
1539131199429321,-0.09155413138023505,0.2746623941404778,-0.45777065690094787
1539131199445330,-0.213626306553806,0.213626306553806,-0.45777065690094787
1539131199461339,-0.33569848172737693,0.45777065690094787,-0.45777065690094787
1539131199477347,-0.3967345693140487,0.6408789196611906,-0.5188067444876197
1539131199493356,-0.45777065690094787,0.6408789196611906,-0.5798428320745188
1539131199509365,-0.33569848172737693,0.5798428320745188,-0.7019150072480898
1539131199525374,-0.213626306553806,0.6408789196611906,-0.8239871824216607
1539131199541383,-0.09155413138023505,0.8239871824216607,-0.8850232700083325
1539131199557392,0.03051804379333589,1.0070954451819034,-0.6408789196611906
1539131199573401,0.213626306553806,1.0681315327688026,-0.3967345693140487
1539131199589409,0.33569848172737693,1.1291676203554744,-0.15259021896690683
1539131199605418,0.45777065690094787,1.1902037079423735,0.09155413138023505
1539131199621427,0.5798428320745188,1.3122758831159445,0.2746623941404778
1539131199637436,0.6408789196611906,1.6174563210497581,0.33569848172737693
1539131199653445,0.6408789196611906,1.9226367589837992,0.33569848172737693
1539131199669454,0.6408789196611906,2.04470893415737,0.213626306553806
1539131199685463,0.6408789196611906,1.9226367589837992,0.03051804379333589
1539131199701471,0.6408789196611906,1.6174563210497581,-0.09155413138023505
1539131199717480,0.5798428320745188,1.3122758831159445,-0.2746623941404778
1539131199733489,0.5188067444876197,1.0681315327688026,-0.3967345693140487
1539131199749511,0.33569848172737693,1.0070954451819034,-0.45777065690094787
1539131199765520,0.09155413138023505,0.8850232700083325,-0.45777065690094787
1539131199781529,-0.15259021896690683,0.9460593575952316,-0.5188067444876197
1539131199797538,-0.45777065690094787,0.8850232700083325,-0.5188067444876197
1539131199813547,-0.5798428320745188,0.9460593575952316,-0.5798428320745188
1539131199829556,-0.6408789196611906,1.0681315327688026,-0.7019150072480898
1539131199845564,-0.5188067444876197,1.1291676203554744,-0.8239871824216607
1539131199861573,-0.2746623941404778,1.0070954451819034,-0.8850232700083325
1539131199877582,-0.09155413138023505,0.8850232700083325,-0.8850232700083325
1539131199893591,0.09155413138023505,0.7629510948347615,-0.9460593575952316
1539131199909600,0.2746623941404778,0.8239871824216607,-0.8850232700083325
1539131199925609,0.2746623941404778,0.8850232700083325,-0.7019150072480898
1539131199941618,0.3967345693140487,1.0681315327688026,-0.5798428320745188
1539131199957626,0.33569848172737693,1.2512397955290453,-0.3967345693140487
1539131199973635,0.2746623941404778,1.3122758831159445,-0.15259021896690683
1539131199989644,0.3967345693140487,1.3122758831159445,0.03051804379333589
1539131200005653,0.3967345693140487,1.3122758831159445,0.15259021896690683
1539131200021662,0.45777065690094787,1.2512397955290453,0.15259021896690683
1539131200037671,0.5188067444876197,1.0681315327688026,0.09155413138023505
1539131200053680,0.6408789196611906,0.9460593575952316,-0.03051804379333589
1539131200069702,0.7019150072480898,1.0070954451819034,-0.15259021896690683
1539131200085711,0.7019150072480898,1.1902037079423735,-0.213626306553806
1539131200101719,0.7629510948347615,1.3122758831159445,-0.33569848172737693
1539131200117728,0.6408789196611906,1.2512397955290453,-0.3967345693140487
1539131200133737,0.45777065690094787,1.0681315327688026,-0.45777065690094787
1539131200149746,0.2746623941404778,1.0070954451819034,-0.5188067444876197
1539131200165755,0.09155413138023505,1.1291676203554744,-0.5798428320745188
1539131200181764,0.03051804379333589,1.1902037079423735,-0.5798428320745188
1539131200197773,-0.15259021896690683,1.3122758831159445,-0.6408789196611906
1539131200213781,-0.2746623941404778,1.4343480582895154,-0.5798428320745188
1539131200229790,-0.2746623941404778,1.3733119707026162,-0.5188067444876197
1539131200245799,-0.33569848172737693,1.2512397955290453,-0.5188067444876197
1539131200261808,-0.213626306553806,1.1902037079423735,-0.5798428320745188
1539131200277817,-0.213626306553806,1.1291676203554744,-0.6408789196611906
1539131200293826,-0.15259021896690683,1.0681315327688026,-0.5798428320745188
1539131200309835,-0.15259021896690683,1.0681315327688026,-0.5798428320745188
1539131200325843,-0.09155413138023505,1.0681315327688026,-0.5188067444876197
1539131200341852,-0.15259021896690683,1.0681315327688026,-0.45777065690094787
1539131200357861,-0.15259021896690683,1.0681315327688026,-0.2746623941404778
1539131200373870,-0.15259021896690683,1.0681315327688026,-0.09155413138023505
1539131200389892,-0.213626306553806,1.0681315327688026,0.03051804379333589
1539131200405901,-0.15259021896690683,1.1291676203554744,-0.03051804379333589
1539131200421910,-0.03051804379333589,1.1291676203554744,-0.09155413138023505
1539131200437919,0.15259021896690683,1.1291676203554744,-0.2746623941404778
1539131200453928,0.33569848172737693,1.1291676203554744,-0.33569848172737693
1539131200469936,0.45777065690094787,1.1291676203554744,-0.3967345693140487
1539131200485945,0.45777065690094787,1.2512397955290453,-0.3967345693140487
1539131200501954,0.5188067444876197,1.3122758831159445,-0.33569848172737693
1539131200517963,0.45777065690094787,1.2512397955290453,-0.3967345693140487
1539131200533972,0.33569848172737693,1.1902037079423735,-0.5188067444876197
1539131200549981,0.03051804379333589,1.1291676203554744,-0.5188067444876197
1539131200565990,-0.15259021896690683,1.1291676203554744,-0.5798428320745188
1539131200581998,-0.213626306553806,1.2512397955290453,-0.5798428320745188
1539131200598007,-0.213626306553806,1.3122758831159445,-0.5798428320745188
1539131200614016,-0.213626306553806,1.1902037079423735,-0.5798428320745188
1539131200630025,-0.213626306553806,1.0681315327688026,-0.5188067444876197
1539131200646034,-0.09155413138023505,1.0681315327688026,-0.5188067444876197
1539131200662043,-0.03051804379333589,1.0070954451819034,-0.3967345693140487
1539131200678052,-0.03051804379333589,0.8850232700083325,-0.33569848172737693
1539131200694060,0.09155413138023505,1.0070954451819034,-0.2746623941404778
1539131200710083,0.15259021896690683,1.1291676203554744,-0.15259021896690683
1539131200726091,0.213626306553806,1.1902037079423735,-0.09155413138023505
1539131200742100,0.2746623941404778,1.3122758831159445,0.03051804379333589
1539131200758109,0.33569848172737693,1.3733119707026162,0.09155413138023505
1539131200774118,0.3967345693140487,1.3122758831159445,0.09155413138023505
1539131200790127,0.45777065690094787,1.2512397955290453,0.03051804379333589
1539131200806136,0.3967345693140487,1.1902037079423735,-0.03051804379333589
1539131200822145,0.3967345693140487,1.1291676203554744,-0.15259021896690683
1539131200838153,0.33569848172737693,1.1902037079423735,-0.15259021896690683
1539131200854162,0.3967345693140487,1.3122758831159445,-0.15259021896690683
1539131200870171,0.33569848172737693,1.4343480582895154,-0.213626306553806
1539131200886180,0.2746623941404778,1.4343480582895154,-0.33569848172737693
1539131200902189,0.15259021896690683,1.3733119707026162,-0.3967345693140487
1539131200918198,0.09155413138023505,1.1902037079423735,-0.5188067444876197
1539131200934207,-0.03051804379333589,1.0681315327688026,-0.5188067444876197
1539131200950215,-0.213626306553806,1.0070954451819034,-0.5188067444876197
1539131200966224,-0.2746623941404778,0.9460593575952316,-0.45777065690094787
1539131200982233,-0.213626306553806,0.8850232700083325,-0.45777065690094787
1539131200998242,-0.15259021896690683,0.9460593575952316,-0.45777065690094787
1539131201014251,-0.15259021896690683,1.1291676203554744,-0.3967345693140487
1539131201030243,-0.09155413138023505,1.3733119707026162,-0.3967345693140487
1539131201046251,-0.03051804379333589,1.4953841458761872,-0.45777065690094787
1539131201062260,-0.03051804379333589,1.3733119707026162,-0.5188067444876197
1539131201078269,-0.03051804379333589,1.1902037079423735,-0.6408789196611906
1539131201094278,-0.09155413138023505,0.9460593575952316,-0.8239871824216607
1539131201110287,-0.09155413138023505,0.8239871824216607,-0.8850232700083325
1539131201126296,-0.09155413138023505,0.9460593575952316,-0.8850232700083325
1539131201142305,0.03051804379333589,1.1291676203554744,-0.7019150072480898
1539131201158313,0.03051804379333589,1.3122758831159445,-0.5188067444876197
1539131201174322,-0.09155413138023505,1.2512397955290453,-0.2746623941404778
1539131201190331,-0.15259021896690683,1.1291676203554744,-0.09155413138023505
1539131201206340,-0.2746623941404778,0.8239871824216607,-0.15259021896690683
1539131201222349,-0.33569848172737693,0.7019150072480898,-0.2746623941404778
1539131201238358,-0.2746623941404778,0.7629510948347615,-0.3967345693140487
1539131201254366,-0.15259021896690683,1.0070954451819034,-0.5188067444876197
1539131201270375,0.03051804379333589,1.3733119707026162,-0.45777065690094787
1539131201286384,0.213626306553806,1.4953841458761872,-0.45777065690094787
1539131201302393,0.45777065690094787,1.3733119707026162,-0.33569848172737693
1539131201318402,0.5798428320745188,1.3122758831159445,-0.213626306553806
1539131201334411,0.6408789196611906,1.3122758831159445,-0.09155413138023505
1539131201350433,0.6408789196611906,1.4343480582895154,0.09155413138023505
1539131201366442,0.5188067444876197,1.4953841458761872,0.213626306553806
1539131201382451,0.3967345693140487,1.4953841458761872,0.33569848172737693
1539131201398460,0.3967345693140487,1.3733119707026162,0.33569848172737693
1539131201414468,0.33569848172737693,1.2512397955290453,0.213626306553806
1539131201430477,0.213626306553806,1.1902037079423735,0.15259021896690683
1539131201446486,0.213626306553806,1.1902037079423735,-0.03051804379333589
1539131201462495,0.213626306553806,1.2512397955290453,-0.213626306553806
1539131201478504,0.09155413138023505,1.1902037079423735,-0.3967345693140487
1539131201494513,0.09155413138023505,1.0070954451819034,-0.6408789196611906
1539131201510522,0.03051804379333589,0.8239871824216607,-0.7019150072480898
1539131201526530,-0.03051804379333589,0.8850232700083325,-0.7629510948347615
1539131201542539,-0.09155413138023505,1.0070954451819034,-0.7019150072480898
1539131201558548,-0.2746623941404778,1.3122758831159445,-0.6408789196611906
1539131201574557,-0.3967345693140487,1.3733119707026162,-0.5798428320745188
1539131201590566,-0.5188067444876197,1.2512397955290453,-0.5798428320745188
1539131201606575,-0.6408789196611906,0.9460593575952316,-0.5188067444876197
1539131201622583,-0.7629510948347615,0.5798428320745188,-0.33569848172737693
1539131201638592,-0.7629510948347615,0.5188067444876197,-0.09155413138023505
1539131201654601,-0.7019150072480898,0.45777065690094787,0.15259021896690683
1539131201670623,-0.5798428320745188,0.3967345693140487,0.3967345693140487
1539131201686632,-0.3967345693140487,0.2746623941404778,0.3967345693140487
1539131201702641,-0.15259021896690683,0.2746623941404778,0.2746623941404778
1539131201718650,0.09155413138023505,0.45777065690094787,0.09155413138023505
1539131201734659,0.3967345693140487,0.7019150072480898,0.03051804379333589
1539131201750668,0.7019150072480898,0.9460593575952316,-0.15259021896690683
1539131201766677,0.9460593575952316,1.1291676203554744,-0.33569848172737693
1539131201782685,1.0070954451819034,1.3122758831159445,-0.5188067444876197
1539131201798694,1.0681315327688026,1.3122758831159445,-0.5798428320745188
1539131201814703,1.0681315327688026,1.3122758831159445,-0.7019150072480898
1539131201830712,0.9460593575952316,1.1902037079423735,-0.7629510948347615
1539131201846721,0.8239871824216607,1.1291676203554744,-0.7629510948347615
1539131201862730,0.7019150072480898,1.1291676203554744,-0.5798428320745188
1539131201878739,0.45777065690094787,1.1291676203554744,-0.45777065690094787
1539131201894747,0.09155413138023505,1.0681315327688026,-0.33569848172737693
1539131201910756,-0.2746623941404778,0.8239871824216607,-0.3967345693140487
1539131201926765,-0.6408789196611906,0.7629510948347615,-0.6408789196611906
1539131201942774,-0.8850232700083325,0.7629510948347615,-0.8850232700083325
1539131201958783,-1.0681315327688026,0.7019150072480898,-1.0070954451819034
1539131201974792,-1.1902037079423735,0.7629510948347615,-1.0070954451819034
1539131201990814,-1.1902037079423735,0.8850232700083325,-1.0681315327688026
1539131202006823,-1.2512397955290453,1.0681315327688026,-0.9460593575952316
1539131202022832,-1.2512397955290453,1.1291676203554744,-1.0070954451819034
1539131202038840,-1.1902037079423735,1.1291676203554744,-0.9460593575952316
1539131202054849,-1.1291676203554744,1.0681315327688026,-0.8239871824216607
1539131202070858,-1.0070954451819034,1.0681315327688026,-0.7019150072480898
1539131202086867,-0.7629510948347615,1.1291676203554744,-0.45777065690094787
1539131202102876,-0.5188067444876197,1.1902037079423735,-0.213626306553806
1539131202118885,-0.33569848172737693,1.1291676203554744,-0.03051804379333589
1539131202134894,-0.09155413138023505,1.1291676203554744,0.03051804379333589
1539131202150902,0.15259021896690683,1.0681315327688026,0.09155413138023505
1539131202166911,0.33569848172737693,1.0681315327688026,0.09155413138023505
1539131202182920,0.3967345693140487,1.1291676203554744,0.09155413138023505
1539131202198929,0.45777065690094787,1.1902037079423735,0.213626306553806
1539131202214938,0.3967345693140487,1.2512397955290453,0.213626306553806
1539131202230947,0.3967345693140487,1.1902037079423735,0.09155413138023505
1539131202246955,0.33569848172737693,1.0070954451819034,-0.03051804379333589
1539131202262964,0.213626306553806,0.9460593575952316,-0.15259021896690683
1539131202278973,0.09155413138023505,0.8850232700083325,-0.213626306553806
1539131202294982,0.09155413138023505,1.0070954451819034,-0.2746623941404778
1539131202311004,0.03051804379333589,1.0070954451819034,-0.3967345693140487
1539131202327013,-0.03051804379333589,1.0681315327688026,-0.5188067444876197
1539131202343022,-0.03051804379333589,1.0070954451819034,-0.6408789196611906
1539131202359031,0.03051804379333589,1.0681315327688026,-0.7629510948347615
1539131202375040,0.03051804379333589,1.0070954451819034,-0.8239871824216607
1539131202391049,-0.03051804379333589,0.9460593575952316,-0.8850232700083325
1539131202407057,-0.15259021896690683,0.8239871824216607,-0.9460593575952316
1539131202423066,-0.15259021896690683,0.7019150072480898,-1.0681315327688026
1539131202439075,-0.33569848172737693,0.6408789196611906,-1.1291676203554744
1539131202455084,-0.45777065690094787,0.7019150072480898,-1.1291676203554744
1539131202471093,-0.5188067444876197,0.7629510948347615,-1.1291676203554744
1539131202487102,-0.3967345693140487,0.9460593575952316,-1.0070954451819034
1539131202503111,-0.33569848172737693,1.1902037079423735,-0.8239871824216607
1539131202519119,-0.15259021896690683,1.3122758831159445,-0.7019150072480898
1539131202535128,0.03051804379333589,1.3122758831159445,-0.6408789196611906
1539131202551137,0.15259021896690683,1.3122758831159445,-0.5798428320745188
1539131202567146,0.213626306553806,1.3122758831159445,-0.5798428320745188
1539131202583155,0.33569848172737693,1.3122758831159445,-0.45777065690094787
1539131202599164,0.33569848172737693,1.4343480582895154,-0.33569848172737693
1539131202615172,0.33569848172737693,1.3733119707026162,-0.2746623941404778
1539131202631164,0.45777065690094787,1.3122758831159445,-0.213626306553806
1539131202647173,0.5188067444876197,1.3122758831159445,-0.09155413138023505
1539131202663182,0.5188067444876197,1.3122758831159445,-0.03051804379333589
1539131202679191,0.5798428320745188,1.2512397955290453,0.09155413138023505
1539131202695200,0.5798428320745188,1.2512397955290453,0.09155413138023505
1539131202711208,0.45777065690094787,1.0681315327688026,-0.03051804379333589
1539131202727217,0.33569848172737693,0.8850232700083325,-0.15259021896690683
1539131202743226,0.33569848172737693,0.8850232700083325,-0.213626306553806
1539131202759235,0.213626306553806,0.9460593575952316,-0.3967345693140487
1539131202775244,0.213626306553806,1.0681315327688026,-0.5188067444876197
1539131202791253,0.09155413138023505,1.1902037079423735,-0.5798428320745188
1539131202807262,0.03051804379333589,1.1902037079423735,-0.6408789196611906
1539131202823270,0.03051804379333589,1.1902037079423735,-0.6408789196611906
1539131202839279,-0.09155413138023505,1.1291676203554744,-0.6408789196611906
1539131202855288,-0.213626306553806,1.1291676203554744,-0.6408789196611906
1539131202871297,-0.2746623941404778,1.1291676203554744,-0.5188067444876197
1539131202887306,-0.33569848172737693,1.1902037079423735,-0.45777065690094787
1539131202903315,-0.3967345693140487,1.1291676203554744,-0.33569848172737693
1539131202919324,-0.33569848172737693,1.0681315327688026,-0.2746623941404778
1539131202935332,-0.213626306553806,1.0681315327688026,-0.2746623941404778
1539131202951355,-0.15259021896690683,1.0070954451819034,-0.2746623941404778
1539131202967363,-0.09155413138023505,1.0681315327688026,-0.213626306553806
1539131202983372,0.03051804379333589,1.1291676203554744,-0.213626306553806
1539131202999381,0.213626306553806,1.0681315327688026,-0.213626306553806
1539131203015390,0.33569848172737693,1.1291676203554744,-0.213626306553806
1539131203031399,0.33569848172737693,1.1902037079423735,-0.213626306553806
1539131203047408,0.45777065690094787,1.3733119707026162,-0.2746623941404778
1539131203063417,0.5188067444876197,1.3733119707026162,-0.33569848172737693
1539131203079425,0.5188067444876197,1.1902037079423735,-0.45777065690094787
1539131203095434,0.5188067444876197,1.0681315327688026,-0.5798428320745188
1539131203111443,0.45777065690094787,0.9460593575952316,-0.5798428320745188
1539131203127452,0.45777065690094787,0.9460593575952316,-0.5798428320745188
1539131203143461,0.3967345693140487,1.0681315327688026,-0.5188067444876197
1539131203159470,0.33569848172737693,1.1291676203554744,-0.5188067444876197
1539131203175479,0.33569848172737693,1.1291676203554744,-0.45777065690094787
1539131203191487,0.45777065690094787,1.1902037079423735,-0.3967345693140487
1539131203207496,0.45777065690094787,1.3122758831159445,-0.3967345693140487
1539131203223505,0.45777065690094787,1.3733119707026162,-0.3967345693140487
1539131203239514,0.45777065690094787,1.4343480582895154,-0.3967345693140487
1539131203255523,0.45777065690094787,1.5564202334630863,-0.3967345693140487
1539131203271545,0.3967345693140487,1.3733119707026162,-0.3967345693140487
1539131203287554,0.33569848172737693,1.3122758831159445,-0.33569848172737693
1539131203303563,0.15259021896690683,1.2512397955290453,-0.3967345693140487
1539131203319572,0.03051804379333589,1.2512397955290453,-0.33569848172737693
1539131203335580,-0.09155413138023505,1.1902037079423735,-0.2746623941404778
1539131203351589,-0.15259021896690683,1.1291676203554744,-0.213626306553806
1539131203367598,-0.213626306553806,1.1291676203554744,-0.213626306553806
1539131203383607,-0.2746623941404778,1.0681315327688026,-0.15259021896690683
1539131203399616,-0.33569848172737693,0.8239871824216607,-0.15259021896690683
1539131203415625,-0.3967345693140487,0.6408789196611906,-0.213626306553806
1539131203431634,-0.33569848172737693,0.6408789196611906,-0.33569848172737693
1539131203447642,-0.2746623941404778,0.8239871824216607,-0.3967345693140487
1539131203463651,-0.2746623941404778,0.9460593575952316,-0.3967345693140487
1539131203479660,-0.09155413138023505,0.9460593575952316,-0.3967345693140487
1539131203495669,0.09155413138023505,1.1902037079423735,-0.33569848172737693
1539131203511678,0.213626306553806,1.3122758831159445,-0.2746623941404778
1539131203527687,0.213626306553806,1.3733119707026162,-0.2746623941404778
1539131203543696,0.213626306553806,1.1902037079423735,-0.3967345693140487
1539131203559704,0.09155413138023505,1.0070954451819034,-0.45777065690094787
1539131203575713,0.03051804379333589,0.8850232700083325,-0.5188067444876197
1539131203591735,-0.09155413138023505,0.9460593575952316,-0.5798428320745188
1539131203607744,-0.09155413138023505,1.1291676203554744,-0.6408789196611906
1539131203623753,-0.09155413138023505,1.3733119707026162,-0.6408789196611906
1539131203639762,-0.03051804379333589,1.4343480582895154,-0.5188067444876197
1539131203655771,0.09155413138023505,1.3122758831159445,-0.5798428320745188
1539131203671780,0.09155413138023505,1.2512397955290453,-0.6408789196611906
1539131203687789,0.09155413138023505,1.1291676203554744,-0.6408789196611906
1539131203703797,0.15259021896690683,1.0681315327688026,-0.5188067444876197
1539131203719806,0.213626306553806,1.1902037079423735,-0.3967345693140487
1539131203735815,0.213626306553806,1.0681315327688026,-0.213626306553806
1539131203751824,0.15259021896690683,1.0681315327688026,-0.09155413138023505
1539131203767833,0.09155413138023505,1.1291676203554744,0.09155413138023505
1539131203783842,0.15259021896690683,1.0681315327688026,0.213626306553806
1539131203799851,0.09155413138023505,1.1291676203554744,0.213626306553806
1539131203815859,0.09155413138023505,1.1291676203554744,0.213626306553806
1539131203831868,0.09155413138023505,1.1291676203554744,0.15259021896690683
1539131203847877,0.03051804379333589,1.1902037079423735,-0.03051804379333589
1539131203863886,0.03051804379333589,1.2512397955290453,-0.213626306553806
1539131203879895,0.03051804379333589,1.3733119707026162,-0.33569848172737693
1539131203895904,0.09155413138023505,1.3122758831159445,-0.45777065690094787
1539131203911895,0.09155413138023505,1.4953841458761872,-0.5798428320745188
1539131203927904,0.03051804379333589,1.4953841458761872,-0.7019150072480898
1539131203943913,0.09155413138023505,1.4343480582895154,-0.8239871824216607
1539131203959922,0.03051804379333589,1.4343480582895154,-0.8239871824216607
1539131203975931,0.09155413138023505,1.3122758831159445,-0.7629510948347615
1539131203991940,0.09155413138023505,1.1902037079423735,-0.7629510948347615
1539131204007949,0.15259021896690683,1.0681315327688026,-0.7019150072480898
1539131204023957,0.15259021896690683,1.0070954451819034,-0.5798428320745188
1539131204039966,0.213626306553806,1.0070954451819034,-0.45777065690094787
1539131204055975,0.213626306553806,1.0070954451819034,-0.3967345693140487
1539131204071984,0.213626306553806,1.0681315327688026,-0.33569848172737693
1539131204087993,0.2746623941404778,1.1291676203554744,-0.33569848172737693
1539131204104002,0.2746623941404778,1.0681315327688026,-0.2746623941404778
1539131204120010,0.2746623941404778,1.0681315327688026,-0.2746623941404778
1539131204136019,0.33569848172737693,1.1291676203554744,-0.213626306553806
1539131204152028,0.2746623941404778,1.1291676203554744,-0.213626306553806
1539131204168037,0.2746623941404778,1.3122758831159445,-0.15259021896690683
1539131204184046,0.2746623941404778,1.4343480582895154,-0.15259021896690683
1539131204200055,0.213626306553806,1.3733119707026162,-0.09155413138023505
1539131204216064,0.15259021896690683,1.1902037079423735,-0.09155413138023505
1539131204232086,0.213626306553806,1.0681315327688026,-0.03051804379333589
1539131204248095,0.15259021896690683,1.0681315327688026,0.03051804379333589
1539131204264104,0.09155413138023505,1.0070954451819034,0.09155413138023505
1539131204280112,-0.03051804379333589,0.9460593575952316,0.03051804379333589
1539131204296121,-0.09155413138023505,0.9460593575952316,-0.09155413138023505
1539131204312130,-0.2746623941404778,1.0070954451819034,-0.213626306553806
1539131204328139,-0.3967345693140487,1.0681315327688026,-0.45777065690094787
1539131204344148,-0.45777065690094787,1.1291676203554744,-0.6408789196611906
1539131204360157,-0.45777065690094787,1.1902037079423735,-0.7629510948347615
1539131204376165,-0.45777065690094787,1.1902037079423735,-0.9460593575952316
1539131204392174,-0.3967345693140487,1.2512397955290453,-0.9460593575952316
1539131204408183,-0.33569848172737693,1.1902037079423735,-0.9460593575952316
1539131204424192,-0.2746623941404778,1.1902037079423735,-0.8850232700083325
1539131204440201,-0.2746623941404778,1.1291676203554744,-0.8239871824216607
1539131204456210,-0.213626306553806,1.1902037079423735,-0.6408789196611906
1539131204472219,-0.15259021896690683,1.1291676203554744,-0.3967345693140487
1539131204488227,-0.03051804379333589,1.1291676203554744,-0.2746623941404778
1539131204504236,0.09155413138023505,1.0681315327688026,-0.15259021896690683
1539131204520245,0.213626306553806,1.0681315327688026,-0.03051804379333589
1539131204536254,0.3967345693140487,1.0681315327688026,-0.03051804379333589
1539131204552276,0.45777065690094787,1.0681315327688026,0.03051804379333589
1539131204568285,0.5188067444876197,1.0681315327688026,0.03051804379333589
1539131204584294,0.5798428320745188,1.1902037079423735,0.03051804379333589
1539131204600303,0.5798428320745188,1.2512397955290453,0.03051804379333589
1539131204616312,0.5798428320745188,1.2512397955290453,0.03051804379333589
1539131204632321,0.5798428320745188,1.1291676203554744,0.03051804379333589
1539131204648329,0.5188067444876197,1.1902037079423735,0.03051804379333589
1539131204664338,0.5188067444876197,1.1291676203554744,-0.03051804379333589
1539131204680347,0.45777065690094787,1.0681315327688026,-0.09155413138023505
1539131204696356,0.33569848172737693,1.0070954451819034,-0.2746623941404778
1539131204712365,0.33569848172737693,1.0681315327688026,-0.33569848172737693
1539131204728374,0.15259021896690683,1.1291676203554744,-0.45777065690094787
1539131204744382,0.03051804379333589,1.1902037079423735,-0.5798428320745188
1539131204760391,-0.03051804379333589,1.1902037079423735,-0.7019150072480898
1539131204776400,-0.15259021896690683,1.1902037079423735,-0.7019150072480898
1539131204792409,-0.213626306553806,1.0681315327688026,-0.7629510948347615
1539131204808418,-0.213626306553806,1.1902037079423735,-0.7629510948347615
1539131204824427,-0.213626306553806,1.3122758831159445,-0.7019150072480898
1539131204840436,-0.213626306553806,1.3733119707026162,-0.5798428320745188
1539131204856444,-0.213626306553806,1.3733119707026162,-0.5188067444876197
1539131204872467,-0.213626306553806,1.3733119707026162,-0.45777065690094787
1539131204888476,-0.213626306553806,1.3733119707026162,-0.33569848172737693
1539131204904484,-0.09155413138023505,1.4953841458761872,-0.213626306553806
1539131204920493,-0.09155413138023505,1.5564202334630863,-0.03051804379333589
1539131204936502,-0.09155413138023505,1.5564202334630863,0.15259021896690683
1539131204952511,-0.03051804379333589,1.3122758831159445,0.213626306553806
1539131204968520,0.03051804379333589,1.0070954451819034,0.2746623941404778
1539131204984529,0.03051804379333589,0.7019150072480898,0.2746623941404778
1539131205000537,0.15259021896690683,0.6408789196611906,0.33569848172737693
1539131205016546,0.2746623941404778,0.7629510948347615,0.33569848172737693
1539131205032555,0.33569848172737693,0.8850232700083325,0.2746623941404778
1539131205048564,0.2746623941404778,0.9460593575952316,-0.03051804379333589
1539131205064573,0.33569848172737693,1.1291676203554744,-0.33569848172737693
1539131205080582,0.33569848172737693,1.1291676203554744,-0.7629510948347615
1539131205096591,0.3967345693140487,1.3733119707026162,-1.1291676203554744
1539131205112599,0.33569848172737693,1.4953841458761872,-1.3122758831159445
1539131205128608,0.33569848172737693,1.5564202334630863,-1.4343480582895154
1539131205144617,0.2746623941404778,1.4953841458761872,-1.4343480582895154
1539131205160626,0.15259021896690683,1.2512397955290453,-1.3122758831159445
1539131205176635,-0.03051804379333589,1.1291676203554744,-1.1291676203554744
1539131205192627,-0.09155413138023505,1.1291676203554744,-0.8850232700083325
1539131205208635,-0.213626306553806,1.1902037079423735,-0.6408789196611906
1539131205224644,-0.33569848172737693,1.4343480582895154,-0.3967345693140487
1539131205240653,-0.2746623941404778,1.4953841458761872,-0.15259021896690683
1539131205256662,-0.15259021896690683,1.1902037079423735,-0.03051804379333589
1539131205272671,0.03051804379333589,0.9460593575952316,-0.03051804379333589
1539131205288680,0.213626306553806,0.8850232700083325,-0.09155413138023505
1539131205304689,0.33569848172737693,0.8850232700083325,-0.09155413138023505
1539131205320697,0.45777065690094787,0.9460593575952316,-0.15259021896690683
1539131205336706,0.3967345693140487,1.0681315327688026,-0.15259021896690683
1539131205352715,0.45777065690094787,1.0681315327688026,-0.09155413138023505
1539131205368724,0.33569848172737693,1.2512397955290453,-0.09155413138023505
1539131205384733,0.213626306553806,1.4953841458761872,-0.03051804379333589
1539131205400742,0.213626306553806,1.4953841458761872,-0.03051804379333589
1539131205416751,0.213626306553806,1.3122758831159445,-0.03051804379333589
1539131205432759,0.15259021896690683,1.0681315327688026,-0.15259021896690683
1539131205448768,0.09155413138023505,0.8850232700083325,-0.33569848172737693
1539131205464777,0.03051804379333589,0.8239871824216607,-0.45777065690094787
1539131205480786,-0.03051804379333589,0.8239871824216607,-0.5188067444876197
1539131205496795,-0.03051804379333589,1.0070954451819034,-0.5798428320745188
1539131205512786,-0.03051804379333589,1.3733119707026162,-0.45777065690094787
1539131205528795,-0.03051804379333589,1.5564202334630863,-0.3967345693140487
1539131205544804,0.03051804379333589,1.5564202334630863,-0.3967345693140487
1539131205560813,0.03051804379333589,1.3733119707026162,-0.45777065690094787
1539131205576822,0.03051804379333589,1.1902037079423735,-0.5188067444876197
1539131205592831,-0.03051804379333589,0.9460593575952316,-0.5798428320745188
1539131205608840,0.03051804379333589,0.8239871824216607,-0.5798428320745188
1539131205624848,-0.03051804379333589,0.8239871824216607,-0.5188067444876197
1539131205640857,0.09155413138023505,0.8850232700083325,-0.5188067444876197
1539131205656866,0.213626306553806,1.0681315327688026,-0.3967345693140487
1539131205672875,0.33569848172737693,1.1902037079423735,-0.3967345693140487
1539131205688884,0.3967345693140487,1.3733119707026162,-0.2746623941404778
1539131205704893,0.3967345693140487,1.3733119707026162,-0.213626306553806
1539131205720902,0.33569848172737693,1.1902037079423735,-0.33569848172737693
1539131205736910,0.3967345693140487,0.8850232700083325,-0.33569848172737693
1539131205752919,0.2746623941404778,0.8239871824216607,-0.33569848172737693
1539131205768928,0.213626306553806,0.8850232700083325,-0.2746623941404778
1539131205784937,0.15259021896690683,1.0681315327688026,-0.213626306553806
1539131205800946,-0.03051804379333589,1.1902037079423735,-0.2746623941404778
1539131205816955,-0.213626306553806,1.4953841458761872,-0.3967345693140487
1539131205832977,-0.15259021896690683,1.5564202334630863,-0.5188067444876197
1539131205848986,-0.09155413138023505,1.2512397955290453,-0.6408789196611906
1539131205864995,-0.09155413138023505,1.1291676203554744,-0.5798428320745188
1539131205881003,-0.15259021896690683,1.1291676203554744,-0.45777065690094787
1539131205897012,-0.2746623941404778,1.0681315327688026,-0.3967345693140487
1539131205913021,-0.3967345693140487,0.8850232700083325,-0.3967345693140487
1539131205929030,-0.5188067444876197,0.8850232700083325,-0.45777065690094787
1539131205945039,-0.7019150072480898,1.0681315327688026,-0.45777065690094787
1539131205961048,-0.8239871824216607,1.3733119707026162,-0.45777065690094787
1539131205977057,-0.7629510948347615,1.6174563210497581,-0.3967345693140487
1539131205993065,-0.5798428320745188,1.739528496223329,-0.33569848172737693
1539131206009074,-0.33569848172737693,1.739528496223329,-0.2746623941404778
1539131206025083,-0.09155413138023505,1.4953841458761872,-0.213626306553806
1539131206041092,0.03051804379333589,1.1902037079423735,-0.2746623941404778
1539131206057101,0.15259021896690683,0.9460593575952316,-0.2746623941404778
1539131206073110,0.213626306553806,0.8239871824216607,-0.33569848172737693
1539131206089119,0.213626306553806,0.8239871824216607,-0.15259021896690683
1539131206105127,0.2746623941404778,1.0070954451819034,0.03051804379333589
1539131206121136,0.45777065690094787,1.2512397955290453,0.09155413138023505
1539131206137145,0.6408789196611906,1.4953841458761872,0.15259021896690683
1539131206153167,0.7629510948347615,1.5564202334630863,0.03051804379333589
1539131206169176,0.8850232700083325,1.4343480582895154,-0.213626306553806
1539131206185185,0.9460593575952316,1.1902037079423735,-0.3967345693140487
1539131206201194,0.8850232700083325,0.9460593575952316,-0.6408789196611906
1539131206217203,0.9460593575952316,0.8850232700083325,-0.8239871824216607
1539131206233212,0.8239871824216607,0.9460593575952316,-0.7629510948347615
1539131206249220,0.6408789196611906,1.0681315327688026,-0.6408789196611906
1539131206265229,0.5188067444876197,1.2512397955290453,-0.6408789196611906
1539131206281238,0.2746623941404778,1.3733119707026162,-0.5798428320745188
1539131206297247,0.09155413138023505,1.3733119707026162,-0.5188067444876197
1539131206313256,-0.09155413138023505,1.1902037079423735,-0.5798428320745188
1539131206329265,-0.7019150072480898,1.3733119707026162,-0.5188067444876197
1539131206345274,-0.6408789196611906,-7.721065079728305,-7.721065079728305
1539131206361282,0.8850232700083325,19.1348134584573,2.7771419851987957
1539131206377291,-0.3967345693140487,-6.744487678339738,-2.3498893720911838
1539131206393300,3.875791561760934,-5.2185854886702145,0.7629510948347615
1539131206409309,1.4343480582895154,7.843137254901876,3.3875028610666504
1539131206425318,0.33569848172737693,6.622415503166167,1.6174563210497581
1539131206441327,-0.7629510948347615,-0.5798428320745188,1.6174563210497581
1539131206457336,-1.739528496223329,1.1291676203554744,0.45777065690094787
1539131206473358,-2.5940337224383256,0.213626306553806,-1.8005645838102282
1539131206489367,-2.4719615472647547,-1.1291676203554744,-2.288853284504512
1539131206505375,-1.8005645838102282,0.33569848172737693,-2.105745021744042
1539131206521384,-0.5798428320745188,0.7629510948347615,-1.4343480582895154
1539131206537393,-0.09155413138023505,1.9226367589837992,-1.1902037079423735
1539131206553402,-0.3967345693140487,3.570611123826893,-1.9226367589837992
1539131206569411,-0.7629510948347615,2.8992141603723667,-2.7161058976118966
1539131206585420,-0.8850232700083325,0.03051804379333589,-3.3264667734797513
1539131206601429,-0.7629510948347615,-1.4953841458761872,-2.8992141603723667
1539131206617437,-0.45777065690094787,-0.7629510948347615,-1.8005645838102282
1539131206633446,-0.2746623941404778,1.5564202334630863,-0.33569848172737693
1539131206649455,0.15259021896690683,3.2043945983061803,0.9460593575952316
1539131206665464,0.5798428320745188,2.410925459678083,1.4953841458761872
1539131206681473,0.7629510948347615,1.0681315327688026,1.5564202334630863
1539131206697482,0.8239871824216607,-0.2746623941404778,1.1902037079423735
1539131206713491,0.8239871824216607,-0.6408789196611906,0.7629510948347615
1539131206729499,1.0681315327688026,-0.213626306553806,0.6408789196611906
1539131206745508,1.1291676203554744,0.45777065690094787,0.7629510948347615
1539131206761517,1.1902037079423735,1.3122758831159445,0.8850232700083325
1539131206777526,1.3122758831159445,1.8616006713969,0.8239871824216607
1539131206793548,1.4343480582895154,1.8005645838102282,0.5798428320745188
1539131206809557,1.1902037079423735,1.4953841458761872,0.33569848172737693
1539131206825566,0.8239871824216607,1.3122758831159445,-0.03051804379333589
1539131206841575,0.3967345693140487,1.0070954451819034,-0.2746623941404778
1539131206857584,0.213626306553806,0.5798428320745188,-0.33569848172737693
1539131206873592,0.03051804379333589,0.7019150072480898,-0.2746623941404778
1539131206889601,-0.213626306553806,0.9460593575952316,-0.213626306553806
1539131206905610,-0.33569848172737693,1.2512397955290453,-0.2746623941404778
1539131206921619,-0.5188067444876197,1.3733119707026162,-0.5798428320745188
1539131206937628,-0.7019150072480898,1.3733119707026162,-0.8239871824216607
1539131206953637,-0.7629510948347615,1.1902037079423735,-1.0681315327688026
1539131206969646,-0.7019150072480898,1.1902037079423735,-1.1291676203554744
1539131206985654,-0.6408789196611906,1.1291676203554744,-1.1902037079423735
1539131207001663,-0.7019150072480898,0.9460593575952316,-1.1902037079423735
1539131207017672,-0.6408789196611906,0.8239871824216607,-1.0070954451819034
1539131207033681,-0.5798428320745188,0.9460593575952316,-0.8850232700083325
1539131207049690,-0.5188067444876197,1.0681315327688026,-0.7019150072480898
1539131207065699,-0.45777065690094787,1.1902037079423735,-0.45777065690094787
1539131207081708,-0.3967345693140487,1.3122758831159445,-0.33569848172737693
1539131207097716,-0.2746623941404778,1.2512397955290453,-0.213626306553806
1539131207113708,-0.03051804379333589,1.1291676203554744,-0.15259021896690683
1539131207129717,0.15259021896690683,1.0681315327688026,-0.09155413138023505
1539131207145726,0.3967345693140487,1.1291676203554744,-0.03051804379333589
1539131207161735,0.7019150072480898,1.1902037079423735,0.03051804379333589
1539131207177744,0.8239871824216607,1.1291676203554744,0.09155413138023505
1539131207193752,0.8239871824216607,1.0681315327688026,0.09155413138023505
1539131207209761,0.8850232700083325,1.1291676203554744,0.09155413138023505
1539131207225770,0.8850232700083325,1.1902037079423735,0.09155413138023505
1539131207241779,0.8850232700083325,1.3122758831159445,0.09155413138023505
1539131207257788,0.8239871824216607,1.3122758831159445,0.15259021896690683
1539131207273797,0.7019150072480898,1.3122758831159445,0.09155413138023505
1539131207289806,0.6408789196611906,1.1902037079423735,-0.03051804379333589
1539131207305814,0.3967345693140487,1.0681315327688026,-0.15259021896690683
1539131207321823,0.213626306553806,0.8850232700083325,-0.33569848172737693
1539131207337832,-0.03051804379333589,0.8850232700083325,-0.45777065690094787
1539131207353841,-0.15259021896690683,0.9460593575952316,-0.5798428320745188
1539131207369850,-0.2746623941404778,1.1291676203554744,-0.7019150072480898
1539131207385859,-0.3967345693140487,1.2512397955290453,-0.7629510948347615
1539131207401867,-0.3967345693140487,1.4343480582895154,-0.8239871824216607
1539131207417876,-0.3967345693140487,1.3733119707026162,-0.8239871824216607
1539131207433899,-0.33569848172737693,1.1902037079423735,-0.8239871824216607
1539131207449907,-0.213626306553806,1.1902037079423735,-0.8239871824216607
1539131207465916,-0.15259021896690683,1.0681315327688026,-0.7019150072480898
1539131207481925,-0.15259021896690683,0.9460593575952316,-0.5188067444876197
1539131207497934,-0.15259021896690683,1.0681315327688026,-0.3967345693140487
1539131207513943,-0.15259021896690683,1.1291676203554744,-0.33569848172737693
1539131207529952,-0.2746623941404778,1.2512397955290453,-0.33569848172737693
1539131207545961,-0.33569848172737693,1.3122758831159445,-0.3967345693140487
1539131207561969,-0.33569848172737693,1.3122758831159445,-0.5188067444876197
1539131207577978,-0.2746623941404778,1.3122758831159445,-0.45777065690094787
1539131207593987,-0.15259021896690683,1.3733119707026162,-0.33569848172737693
1539131207609996,-0.03051804379333589,1.2512397955290453,-0.2746623941404778
1539131207626005,0.03051804379333589,1.1291676203554744,-0.213626306553806
1539131207642014,0.09155413138023505,0.9460593575952316,-0.213626306553806
1539131207658023,0.09155413138023505,0.9460593575952316,-0.09155413138023505
1539131207674031,0.15259021896690683,1.0681315327688026,0.03051804379333589
1539131207690040,0.15259021896690683,1.1902037079423735,0.15259021896690683
1539131207706049,0.33569848172737693,1.2512397955290453,0.213626306553806
1539131207722058,0.45777065690094787,1.3733119707026162,0.213626306553806
1539131207738067,0.5188067444876197,1.4343480582895154,0.213626306553806
1539131207754089,0.5798428320745188,1.3122758831159445,0.09155413138023505
1539131207770098,0.5188067444876197,1.0681315327688026,-0.15259021896690683
1539131207786107,0.5188067444876197,0.8850232700083325,-0.33569848172737693
1539131207802116,0.3967345693140487,0.7629510948347615,-0.45777065690094787
1539131207818124,0.33569848172737693,0.8239871824216607,-0.45777065690094787
1539131207834133,0.15259021896690683,0.8850232700083325,-0.45777065690094787
1539131207850142,-0.03051804379333589,1.0681315327688026,-0.5188067444876197
1539131207866151,-0.09155413138023505,1.1902037079423735,-0.5798428320745188
1539131207882160,-0.09155413138023505,1.2512397955290453,-0.7019150072480898
1539131207898169,-0.15259021896690683,1.1902037079423735,-0.8239871824216607
1539131207914178,-0.03051804379333589,1.1902037079423735,-0.8239871824216607
1539131207930186,0.03051804379333589,1.0681315327688026,-0.8850232700083325
1539131207946195,0.09155413138023505,1.0681315327688026,-0.8850232700083325
1539131207962204,0.09155413138023505,0.9460593575952316,-0.8239871824216607
1539131207978213,0.09155413138023505,0.9460593575952316,-0.6408789196611906
1539131207994222,0.09155413138023505,1.0070954451819034,-0.5188067444876197
1539131208010231,0.15259021896690683,1.2512397955290453,-0.33569848172737693
1539131208026239,0.15259021896690683,1.4343480582895154,-0.09155413138023505
1539131208042248,0.213626306553806,1.4343480582895154,0.03051804379333589
1539131208058257,0.213626306553806,1.3122758831159445,0.09155413138023505
1539131208074279,0.2746623941404778,1.1291676203554744,0.09155413138023505
1539131208090288,0.2746623941404778,0.9460593575952316,0.03051804379333589
1539131208106297,0.33569848172737693,0.8239871824216607,0.03051804379333589
1539131208122306,0.2746623941404778,0.7629510948347615,0.03051804379333589
1539131208138315,0.33569848172737693,0.7019150072480898,0.09155413138023505
1539131208154324,0.2746623941404778,0.7019150072480898,0.09155413138023505
1539131208170333,0.2746623941404778,0.8239871824216607,0.09155413138023505
1539131208186341,0.2746623941404778,1.0681315327688026,0.03051804379333589
1539131208202350,0.213626306553806,1.1291676203554744,-0.03051804379333589
1539131208218359,0.213626306553806,1.3733119707026162,-0.09155413138023505
1539131208234368,0.213626306553806,1.3733119707026162,-0.213626306553806
1539131208250377,0.2746623941404778,1.1902037079423735,-0.45777065690094787
1539131208266386,0.2746623941404778,1.0681315327688026,-0.6408789196611906
1539131208282395,0.213626306553806,1.0070954451819034,-0.7629510948347615
1539131208298403,0.213626306553806,1.1291676203554744,-0.7629510948347615
1539131208314412,0.15259021896690683,1.2512397955290453,-0.7629510948347615
1539131208330421,-0.03051804379333589,1.1902037079423735,-0.6408789196611906
1539131208346430,-0.213626306553806,1.0681315327688026,-0.5798428320745188
1539131208362439,-0.3967345693140487,0.8239871824216607,-0.5798428320745188
1539131208378448,-0.5798428320745188,0.7629510948347615,-0.6408789196611906
1539131208394470,-0.6408789196611906,0.6408789196611906,-0.7019150072480898
1539131208410479,-0.5798428320745188,0.7629510948347615,-0.6408789196611906
1539131208426488,-0.45777065690094787,1.1291676203554744,-0.5188067444876197
1539131208442496,-0.213626306553806,1.2512397955290453,-0.5188067444876197
1539131208458505,-0.09155413138023505,1.2512397955290453,-0.45777065690094787
1539131208474514,0.09155413138023505,1.0681315327688026,-0.3967345693140487
1539131208490523,0.15259021896690683,1.0681315327688026,-0.33569848172737693
1539131208506532,0.2746623941404778,1.1902037079423735,-0.2746623941404778
1539131208522541,0.3967345693140487,1.1902037079423735,-0.213626306553806
1539131208538550,0.5188067444876197,1.0681315327688026,0.03051804379333589
1539131208554558,0.6408789196611906,1.0681315327688026,0.2746623941404778
1539131208570567,0.7019150072480898,1.0681315327688026,0.33569848172737693
1539131208586576,0.6408789196611906,1.1902037079423735,0.15259021896690683
1539131208602585,0.6408789196611906,1.2512397955290453,0.03051804379333589
1539131208618594,0.6408789196611906,1.1902037079423735,-0.09155413138023505
1539131208634603,0.5798428320745188,1.2512397955290453,-0.2746623941404778
1539131208650612,0.5188067444876197,1.4343480582895154,-0.45777065690094787
1539131208666620,0.45777065690094787,1.6784924086366573,-0.5798428320745188
1539131208682629,0.2746623941404778,1.739528496223329,-0.7019150072480898
1539131208698638,0.03051804379333589,1.6174563210497581,-0.8239871824216607
1539131208714630,-0.2746623941404778,1.3122758831159445,-0.8850232700083325
1539131208730639,-0.45777065690094787,1.0681315327688026,-0.9460593575952316
1539131208746647,-0.6408789196611906,1.0070954451819034,-0.8239871824216607
1539131208762656,-0.7629510948347615,0.8239871824216607,-0.7019150072480898
1539131208778665,-0.7019150072480898,0.6408789196611906,-0.5798428320745188
1539131208794674,-0.7019150072480898,0.5188067444876197,-0.45777065690094787
1539131208810683,-0.6408789196611906,0.33569848172737693,-0.45777065690094787
1539131208826692,-0.3967345693140487,0.3967345693140487,-0.45777065690094787
1539131208842701,-0.213626306553806,0.5188067444876197,-0.45777065690094787
1539131208858709,0.09155413138023505,0.7629510948347615,-0.45777065690094787
1539131208874718,0.3967345693140487,1.0681315327688026,-0.3967345693140487
1539131208890727,0.5798428320745188,1.1902037079423735,-0.33569848172737693
1539131208906736,0.7629510948347615,1.2512397955290453,-0.3967345693140487
1539131208922745,0.8850232700083325,1.2512397955290453,-0.3967345693140487
1539131208938754,0.8850232700083325,1.2512397955290453,-0.33569848172737693
1539131208954763,0.8239871824216607,1.2512397955290453,-0.2746623941404778
1539131208970771,0.7019150072480898,1.1902037079423735,-0.15259021896690683
1539131208986780,0.5188067444876197,1.3122758831159445,-0.03051804379333589
1539131209002789,0.33569848172737693,1.4343480582895154,0.03051804379333589
1539131209018798,0.213626306553806,1.5564202334630863,0.03051804379333589
1539131209034820,0.09155413138023505,1.3733119707026162,-0.03051804379333589
1539131209050829,0.09155413138023505,1.0681315327688026,-0.09155413138023505
1539131209066838,0.15259021896690683,0.7019150072480898,-0.03051804379333589
1539131209082847,0.33569848172737693,0.7629510948347615,0.03051804379333589
1539131209098856,0.33569848172737693,0.9460593575952316,0.09155413138023505
1539131209114864,0.2746623941404778,1.0070954451819034,0.09155413138023505
1539131209130873,0.03051804379333589,0.9460593575952316,0.03051804379333589
1539131209146882,-0.2746623941404778,0.8850232700083325,-0.213626306553806
1539131209162891,-0.5798428320745188,1.0681315327688026,-0.45777065690094787
1539131209178900,-0.8850232700083325,1.3122758831159445,-0.7019150072480898
1539131209194909,-1.1902037079423735,1.4953841458761872,-0.8239871824216607
1539131209210918,-1.2512397955290453,1.4953841458761872,-0.9460593575952316
1539131209226926,-1.3122758831159445,1.3122758831159445,-1.0681315327688026
1539131209242935,-1.3122758831159445,1.1902037079423735,-1.1291676203554744
1539131209258944,-1.0681315327688026,1.0681315327688026,-1.3122758831159445
1539131209274953,-0.8239871824216607,1.1291676203554744,-1.3122758831159445
1539131209290962,-0.5188067444876197,1.4343480582895154,-1.1902037079423735
1539131209306971,-0.15259021896690683,1.6784924086366573,-1.0070954451819034
1539131209322980,0.3967345693140487,1.8005645838102282,-0.8239871824216607
1539131209338988,0.8239871824216607,1.8616006713969,-0.5188067444876197
1539131209355011,1.1291676203554744,1.8005645838102282,-0.213626306553806
1539131209371019,1.4343480582895154,1.6784924086366573,0.09155413138023505
1539131209387028,1.4343480582895154,1.4953841458761872,0.3967345693140487
1539131209403037,1.3733119707026162,1.0681315327688026,0.5188067444876197
1539131209419046,1.2512397955290453,0.8239871824216607,0.7019150072480898
1539131209435055,1.0070954451819034,0.7629510948347615,0.7629510948347615
1539131209451064,0.7629510948347615,0.8850232700083325,0.8239871824216607
1539131209467073,0.6408789196611906,1.0681315327688026,0.8239871824216607
1539131209483081,0.3967345693140487,1.1902037079423735,0.6408789196611906
1539131209499090,0.2746623941404778,1.1291676203554744,0.33569848172737693
1539131209515099,0.15259021896690683,0.9460593575952316,0.03051804379333589
1539131209531108,0.15259021896690683,0.8239871824216607,-0.2746623941404778
1539131209547117,0.15259021896690683,0.7629510948347615,-0.6408789196611906
1539131209563126,0.03051804379333589,0.8850232700083325,-0.8850232700083325
1539131209579135,-0.03051804379333589,1.0070954451819034,-1.1291676203554744
1539131209595143,-0.03051804379333589,1.1902037079423735,-1.2512397955290453
1539131209611152,-0.03051804379333589,1.3733119707026162,-1.3733119707026162
1539131209627161,-0.03051804379333589,1.6174563210497581,-1.4343480582895154
1539131209643170,0.03051804379333589,1.739528496223329,-1.3733119707026162
1539131209659179,0.03051804379333589,1.6784924086366573,-1.2512397955290453
1539131209675201,0.03051804379333589,1.4343480582895154,-1.1291676203554744
1539131209691210,0.03051804379333589,1.2512397955290453,-1.0070954451819034
1539131209707219,-0.03051804379333589,1.0681315327688026,-0.8850232700083325
1539131209723228,-0.09155413138023505,1.0070954451819034,-0.5798428320745188
1539131209739236,-0.15259021896690683,1.0070954451819034,-0.2746623941404778
1539131209755245,-0.2746623941404778,1.0681315327688026,-0.03051804379333589
1539131209771254,-0.2746623941404778,1.2512397955290453,0.213626306553806
1539131209787263,-0.213626306553806,1.3122758831159445,0.3967345693140487
1539131209803272,-0.213626306553806,1.2512397955290453,0.5188067444876197
1539131209819281,-0.15259021896690683,1.1291676203554744,0.5798428320745188
1539131209835290,-0.09155413138023505,0.9460593575952316,0.5798428320745188
1539131209851298,-0.15259021896690683,0.8239871824216607,0.5188067444876197
1539131209867307,-0.213626306553806,0.8239871824216607,0.3967345693140487
1539131209883316,-0.213626306553806,0.8850232700083325,0.213626306553806
1539131209899325,-0.2746623941404778,1.1291676203554744,-0.03051804379333589
1539131209915334,-0.33569848172737693,1.3122758831159445,-0.213626306553806
1539131209931343,-0.33569848172737693,1.4953841458761872,-0.5188067444876197
1539131209947352,-0.2746623941404778,1.4343480582895154,-0.7019150072480898
1539131209963360,-0.15259021896690683,1.2512397955290453,-0.8239871824216607
1539131209979369,-0.15259021896690683,1.2512397955290453,-0.9460593575952316
1539131209995391,-0.15259021896690683,1.1902037079423735,-1.0681315327688026
1539131210011400,-0.15259021896690683,1.0070954451819034,-1.1291676203554744
1539131210027409,-0.15259021896690683,0.8850232700083325,-1.1291676203554744
1539131210043418,-0.15259021896690683,0.9460593575952316,-0.9460593575952316
1539131210059427,-0.09155413138023505,1.0070954451819034,-0.7019150072480898
1539131210075436,0.03051804379333589,1.2512397955290453,-0.45777065690094787
1539131210091445,0.15259021896690683,1.2512397955290453,-0.2746623941404778
1539131210107453,0.33569848172737693,1.2512397955290453,-0.15259021896690683
1539131210123462,0.3967345693140487,1.1902037079423735,-0.09155413138023505
1539131210139471,0.5188067444876197,1.1291676203554744,-0.15259021896690683
1539131210155480,0.45777065690094787,1.0681315327688026,-0.213626306553806
1539131210171489,0.5188067444876197,1.0070954451819034,-0.213626306553806
1539131210187498,0.45777065690094787,1.1291676203554744,-0.15259021896690683
1539131210203507,0.45777065690094787,1.2512397955290453,-0.03051804379333589
1539131210219515,0.3967345693140487,1.3122758831159445,0.03051804379333589
1539131210235524,0.213626306553806,1.2512397955290453,0.03051804379333589
1539131210251533,0.09155413138023505,1.0681315327688026,0.03051804379333589
1539131210267542,-0.03051804379333589,0.7629510948347615,-0.15259021896690683
1539131210283551,-0.15259021896690683,0.5798428320745188,-0.2746623941404778
1539131210299560,-0.2746623941404778,0.5188067444876197,-0.3967345693140487
1539131210315551,-0.213626306553806,0.7629510948347615,-0.5188067444876197
1539131210331560,-0.15259021896690683,1.1291676203554744,-0.5798428320745188
1539131210347569,0.03051804379333589,1.2512397955290453,-0.6408789196611906
1539131210363578,0.03051804379333589,1.2512397955290453,-0.7019150072480898
1539131210379587,0.09155413138023505,1.2512397955290453,-0.7629510948347615
1539131210395596,0.09155413138023505,1.1902037079423735,-0.7019150072480898
1539131210411605,0.213626306553806,1.0681315327688026,-0.7019150072480898
1539131210427613,0.15259021896690683,1.1902037079423735,-0.5798428320745188
1539131210443622,0.09155413138023505,1.3122758831159445,-0.33569848172737693
1539131210459631,0.03051804379333589,1.4343480582895154,-0.15259021896690683
1539131210475640,0.09155413138023505,1.4953841458761872,-0.03051804379333589
1539131210491649,0.03051804379333589,1.4343480582895154,0.03051804379333589
1539131210507658,0.09155413138023505,1.3733119707026162,-0.09155413138023505
1539131210523666,0.15259021896690683,1.3122758831159445,-0.15259021896690683
1539131210539675,0.15259021896690683,1.1902037079423735,-0.213626306553806
1539131210555684,0.213626306553806,1.1291676203554744,-0.2746623941404778
1539131210571693,0.33569848172737693,1.0681315327688026,-0.2746623941404778
1539131210587702,0.45777065690094787,1.0070954451819034,-0.213626306553806
1539131210603711,0.45777065690094787,1.0681315327688026,-0.15259021896690683
1539131210619720,0.5188067444876197,1.1902037079423735,-0.03051804379333589
1539131210635742,0.45777065690094787,1.1291676203554744,-0.03051804379333589
1539131210651751,0.33569848172737693,1.0070954451819034,-0.15259021896690683
1539131210667760,0.09155413138023505,0.8239871824216607,-0.2746623941404778
1539131210683768,-0.15259021896690683,0.6408789196611906,-0.45777065690094787
1539131210699777,-0.45777065690094787,0.3967345693140487,-0.7019150072480898
1539131210715786,-0.7019150072480898,0.33569848172737693,-0.7629510948347615
1539131210731795,-0.8850232700083325,0.213626306553806,-0.8239871824216607
1539131210747804,-0.9460593575952316,0.09155413138023505,-0.8850232700083325
1539131210763813,-0.8850232700083325,-0.09155413138023505,-0.8850232700083325
1539131210779821,-0.7019150072480898,-0.03051804379333589,-0.8239871824216607
1539131210795830,-0.45777065690094787,0.33569848172737693,-0.8239871824216607
1539131210811839,-0.2746623941404778,0.5798428320745188,-0.8239871824216607
1539131210827848,0.03051804379333589,0.6408789196611906,-0.8239871824216607
1539131210843857,0.33569848172737693,0.45777065690094787,-0.7629510948347615
1539131210859866,0.6408789196611906,0.09155413138023505,-0.6408789196611906
1539131210875875,0.8239871824216607,-0.15259021896690683,-0.3967345693140487
1539131210891883,1.0070954451819034,-0.15259021896690683,-0.09155413138023505
1539131210907892,1.0681315327688026,0.213626306553806,0.15259021896690683
1539131210923901,1.0681315327688026,0.45777065690094787,0.33569848172737693
